PacketCounter,SampleTimeFine,Quat_W,Quat_X,Quat_Y,Quat_Z,Acc_X,Acc_Y,Acc_Z,Gyr_X,Gyr_Y,Gyr_Z,Mag_X,Mag_Y,Mag_Z,Status,
0, 1049962161, 0.43265867233276367, -0.44786718487739563, -0.5091497898101807, -0.5941332578659058, 0, 0, 0, 0, 0, 0, -2.052978515625, 0.506591796875, -0.141357421875, 0, 
1, 1049970494, 0.43261009454727173, -0.4478220045566559, -0.5091728568077087, -0.5941829681396484, 9.509861946105957, 2.175065040588379, 0.7587592601776123, 0.9270431399345398, -1.1492594480514526, -0.7440935373306274, -2.055419921875, 0.5078125, -0.147216796875, 0, 
2, 1049978827, 0.4325828552246094, -0.44779089093208313, -0.5092052221298218, -0.5941984057426453, 9.486282348632812, 2.176201820373535, 0.7881157398223877, 1.2897406816482544, -1.3886244297027588, -0.3427952826023102, -2.051025390625, 0.509521484375, -0.14599609375, 0, 
3, 1049987160, 0.4325655698776245, -0.4477959871292114, -0.5092483758926392, -0.5941701531410217, 9.49052906036377, 2.1974902153015137, 0.7721772193908691, 1.5266724824905396, -1.9441461563110352, 0.20175053179264069, -2.05712890625, 0.5078125, -0.142578125, 0, 
4, 1049995493, 0.43255192041397095, -0.4478433132171631, -0.5092900395393372, -0.5941087603569031, 9.5225248336792, 2.207636594772339, 0.7142230868339539, 1.5208324193954468, -2.462014675140381, 0.7200546264648438, -2.05908203125, 0.509033203125, -0.143310546875, 0, 
5, 1050003826, 0.4325554072856903, -0.4479372203350067, -0.5093204975128174, -0.594009280204773, 9.585404396057129, 2.2506556510925293, 0.6284795999526978, 1.5210630893707275, -2.8843679428100586, 1.4949109554290771, -2.053466796875, 0.5078125, -0.14453125, 0, 
6, 1050012159, 0.43257567286491394, -0.4480840861797333, -0.5093175172805786, -0.5938863754272461, 9.62057113647461, 2.280940294265747, 0.6598302125930786, 1.203702449798584, -3.15175461769104, 2.3338279724121094, -2.053466796875, 0.50537109375, -0.14404296875, 0, 
7, 1050020492, 0.4325946271419525, -0.44826143980026245, -0.5092561841011047, -0.5937914252281189, 9.691328048706055, 2.182631731033325, 0.5857413411140442, 0.33714738488197327, -2.8849313259124756, 2.7460122108459473, -2.051025390625, 0.50830078125, -0.140869140625, 0, 
8, 1050028825, 0.43261176347732544, -0.4483984112739563, -0.5091603398323059, -0.5937577486038208, 9.5464506149292, 2.053760528564453, 0.7497360110282898, -0.1399049609899521, -1.9907382726669312, 2.2810628414154053, -2.055419921875, 0.50341796875, -0.143310546875, 0, 
9, 1050037158, 0.4326210021972656, -0.44850659370422363, -0.5090795755386353, -0.5937382578849792, 9.463871002197266, 2.0727059841156006, 0.7914088368415833, 0.005391797050833702, -1.8032679557800293, 1.8518965244293213, -2.055908203125, 0.511474609375, -0.146484375, 0, 
10, 1050045491, 0.4326176047325134, -0.44859588146209717, -0.5090031027793884, -0.5937389135360718, 9.474207878112793, 2.0728955268859863, 0.7969678640365601, -0.06462471932172775, -1.649198293685913, 1.4556185007095337, -2.052734375, 0.509033203125, -0.14453125, 0, 
11, 1050053824, 0.43261945247650146, -0.4486510157585144, -0.5089160799980164, -0.5937705039978027, 9.456594467163086, 2.048910617828369, 0.7638305425643921, -0.1400073915719986, -1.0720068216323853, 1.1543182134628296, -2.052978515625, 0.506591796875, -0.143310546875, 0, 
12, 1050062157, 0.4326030910015106, -0.4486747682094574, -0.508841872215271, -0.5938281416893005, 9.384458541870117, 2.061542272567749, 0.9035542607307434, -0.13452595472335815, -0.8672467470169067, 0.5399864912033081, -2.052734375, 0.51025390625, -0.14404296875, 0, 
13, 1050070490, 0.4325721263885498, -0.44868984818458557, -0.5087839365005493, -0.5938887596130371, 9.388300895690918, 2.0353200435638428, 0.8847711086273193, -0.06375382840633392, -0.9664506316184998, 0.25630882382392883, -2.05517578125, 0.510986328125, -0.14453125, 0, 
14, 1050078823, 0.4325471520423889, -0.448686808347702, -0.5087375640869141, -0.5939489603042603, 9.428048133850098, 2.0913195610046387, 0.8228558897972107, 0.1800808608531952, -0.8583073616027832, 0.09209597855806351, -2.05517578125, 0.5126953125, -0.14599609375, 0, 
15, 1050087156, 0.4325159192085266, -0.44867414236068726, -0.508710503578186, -0.5940043926239014, 9.453804969787598, 2.0861051082611084, 0.8060324192047119, 0.3876841962337494, -0.9589712619781494, -0.10214955359697342, -2.051513671875, 0.50830078125, -0.14599609375, 0, 
16, 1050095489, 0.4324890077114105, -0.4486605226993561, -0.5086883902549744, -0.594053328037262, 9.489921569824219, 2.1050891876220703, 0.7668635249137878, 0.509505569934845, -0.9993905425071716, -0.076817087829113, -2.0478515625, 0.51025390625, -0.1396484375, 0, 
17, 1050103822, 0.43247124552726746, -0.4486481845378876, -0.5086573958396912, -0.5941019654273987, 9.517866134643555, 2.134758710861206, 0.7515420317649841, 0.48330217599868774, -0.8847156167030334, 0.0751393511891365, -2.053466796875, 0.509765625, -0.142822265625, 0, 
18, 1050112155, 0.43244683742523193, -0.4486449658870697, -0.5086135268211365, -0.5941598415374756, 9.500699043273926, 2.1265902519226074, 0.782914400100708, 0.22155031561851501, -0.8820773959159851, 0.09547705203294754, -2.052734375, 0.51220703125, -0.143310546875, 0, 
19, 1050120488, 0.43241220712661743, -0.44864362478256226, -0.5085781812667847, -0.5942162871360779, 9.507638931274414, 2.1119487285614014, 0.780804455280304, 0.22900405526161194, -1.0187036991119385, -0.004815476015210152, -2.05029296875, 0.51220703125, -0.14404296875, 0, 
20, 1050128821, 0.4323643445968628, -0.4486442804336548, -0.5085586309432983, -0.5942673087120056, 9.475077629089355, 2.1147665977478027, 0.8301231861114502, 0.3022095263004303, -1.2641394138336182, -0.17742981016635895, -2.05029296875, 0.50830078125, -0.1396484375, 0, 
21, 1050137154, 0.4323035478591919, -0.4486618638038635, -0.5085495114326477, -0.5943061113357544, 9.479869842529297, 2.1383137702941895, 0.8068549633026123, 0.2845101058483124, -1.6238912343978882, -0.14438743889331818, -2.0546875, 0.510986328125, -0.14404296875, 0, 
22, 1050145487, 0.43224698305130005, -0.44869592785835266, -0.5085294246673584, -0.5943387150764465, 9.477948188781738, 2.096362352371216, 0.8212822079658508, 0.17229413986206055, -1.7065739631652832, 0.09675776958465576, -2.052734375, 0.51220703125, -0.1416015625, 0, 
23, 1050153820, 0.4321175217628479, -0.4488378167152405, -0.508427619934082, -0.5944128632545471, 9.469079971313477, 1.9233317375183105, 0.9984434247016907, -1.8771904706954956, -2.3498497009277344, 0.5275379419326782, -2.05419921875, 0.508544921875, -0.141357421875, 0, 
24, 1050162153, 0.43165451288223267, -0.44921034574508667, -0.5081765055656433, -0.5946826338768005, 9.494667053222656, 2.383007287979126, 0.5681479573249817, -7.89461612701416, -4.479930400848389, -0.8424266576766968, -2.05419921875, 0.507080078125, -0.14208984375, 0, 
25, 1050170486, 0.43160080909729004, -0.4492950439453125, -0.5081325769424438, -0.5946949124336243, 9.53248119354248, 2.1169958114624023, 0.7640752196311951, -0.16321389377117157, -2.0785694122314453, 0.7555558681488037, -2.053955078125, 0.5146484375, -0.138427734375, 0, 
26, 1050178819, 0.43152567744255066, -0.44938570261001587, -0.5080646276473999, -0.5947389602661133, 9.454046249389648, 2.163745641708374, 0.8200182914733887, -0.750343382358551, -1.9452216625213623, 0.5684182643890381, -2.05419921875, 0.506591796875, -0.14404296875, 0, 
27, 1050187152, 0.43139731884002686, -0.4495187997817993, -0.5079876184463501, -0.5947976112365723, 9.391071319580078, 2.14445424079895, 0.910951554775238, -1.504477858543396, -2.5144472122192383, 0.4119153618812561, -2.052734375, 0.5126953125, -0.140869140625, 0, 
28, 1050195485, 0.431223064661026, -0.4496840834617615, -0.5079057216644287, -0.5948690176010132, 9.503351211547852, 2.0644185543060303, 0.8648780584335327, -2.110740900039673, -2.9960455894470215, 0.2025957703590393, -2.0546875, 0.507080078125, -0.140869140625, 0, 
29, 1050203818, 0.4309173822402954, -0.44998806715011597, -0.5077258944511414, -0.5950139760971069, 9.438673973083496, 2.0841572284698486, 0.8604670763015747, -5.063806056976318, -4.007781982421875, 0.2810778021812439, -2.051025390625, 0.509765625, -0.1416015625, 0, 
30, 1050212151, 0.4307015836238861, -0.45016494393348694, -0.5076503157615662, -0.595100998878479, 9.442007064819336, 2.0539677143096924, 0.8348596692085266, -2.494493007659912, -3.322627305984497, -0.18944285809993744, -2.04833984375, 0.5126953125, -0.142822265625, 0, 
31, 1050220484, 0.4302256107330322, -0.4505256712436676, -0.5074020028114319, -0.5953840613365173, 9.450719833374023, 1.9431473016738892, 0.8365999460220337, -7.9729437828063965, -4.4011406898498535, -1.1088403463363647, -2.056640625, 0.509765625, -0.135009765625, 0, 
32, 1050228817, 0.4300028681755066, -0.4506393074989319, -0.5073382258415222, -0.5955134034156799, 9.232940673828125, 2.120997428894043, 0.8151395916938782, -2.362093448638916, -2.6603710651397705, -1.011480450630188, -2.055419921875, 0.51171875, -0.1357421875, 0, 
33, 1050237150, 0.4296760857105255, -0.4508083164691925, -0.5072512626647949, -0.5956950187683105, 9.200268745422363, 1.8089280128479004, 1.2221778631210327, -3.887472629547119, -3.3716273307800293, -1.6254792213439941, -2.05029296875, 0.509033203125, -0.132568359375, 0, 
34, 1050245483, 0.4292566776275635, -0.45100775361061096, -0.5072033405303955, -0.5958872437477112, 9.101846694946289, 2.1935863494873047, 0.9529746770858765, -4.394967555999756, -4.4406633377075195, -2.4930851459503174, -2.048583984375, 0.505859375, -0.134521484375, 0, 
35, 1050253816, 0.42881864309310913, -0.4512430727481842, -0.5071917772293091, -0.596034586429596, 9.289514541625977, 1.929803729057312, 1.1307958364486694, -4.119204521179199, -5.352759838104248, -2.341397285461426, -2.056640625, 0.509033203125, -0.135009765625, 0, 
36, 1050262149, 0.4283977448940277, -0.45148319005966187, -0.5072344541549683, -0.5961190462112427, 9.376139640808105, 2.219434976577759, 0.7103844881057739, -3.150294303894043, -5.9873785972595215, -2.147650957107544, -2.053466796875, 0.513427734375, -0.13525390625, 0, 
37, 1050270482, 0.4277767837047577, -0.4518600106239319, -0.5071404576301575, -0.5963592529296875, 9.542150497436523, 1.8972492218017578, 0.8376254439353943, -7.4089436531066895, -6.7266316413879395, -2.8882102966308594, -2.05419921875, 0.508544921875, -0.130126953125, 0, 
38, 1050278815, 0.42733240127563477, -0.4520701766014099, -0.5071765184402466, -0.5964878797531128, 9.439316749572754, 2.378046751022339, 0.4913122057914734, -3.4839205741882324, -5.588846683502197, -2.7694883346557617, -2.05419921875, 0.51171875, -0.13134765625, 0, 
39, 1050287148, 0.42696648836135864, -0.4522477984428406, -0.50718092918396, -0.5966116189956665, 9.591243743896484, 1.9872368574142456, 0.6507629752159119, -3.028217315673828, -4.619809150695801, -2.1126108169555664, -2.052978515625, 0.50537109375, -0.1337890625, 0, 
40, 1050295481, 0.42657461762428284, -0.45237594842910767, -0.5071303844451904, -0.5968379378318787, 9.550610542297363, 2.149472713470459, 0.4677465558052063, -4.066593170166016, -3.4353044033050537, -2.944869041442871, -2.0517578125, 0.504150390625, -0.12939453125, 0, 
41, 1050303814, 0.4261585772037506, -0.45248788595199585, -0.5069894194602966, -0.597169816493988, 9.55925178527832, 1.8593575954437256, 0.6765664219856262, -5.605675220489502, -2.2813827991485596, -3.2997279167175293, -2.051025390625, 0.504638671875, -0.12939453125, 0, 
42, 1050312147, 0.42589282989501953, -0.4524393677711487, -0.50692218542099, -0.5974531173706055, 9.453703880310059, 2.375532388687134, 0.3840203285217285, -2.780322790145874, -0.6523945927619934, -3.3727035522460938, -2.05810546875, 0.499755859375, -0.1259765625, 0, 
43, 1050320480, 0.4258117973804474, -0.45227131247520447, -0.5069324374198914, -0.5976293087005615, 9.41649341583252, 2.1373555660247803, 0.7518457770347595, 0.4479033350944519, 0.5011553168296814, -2.5296106338500977, -2.053466796875, 0.50732421875, -0.128173828125, 0, 
44, 1050328813, 0.4257120192050934, -0.4521888494491577, -0.5069138407707214, -0.5977786183357239, 9.44683837890625, 2.0455896854400635, 0.9070463180541992, -0.21469852328300476, -0.33503419160842896, -1.7628229856491089, -2.05419921875, 0.5048828125, -0.130615234375, 0, 
45, 1050337146, 0.4254530966281891, -0.4522079527378082, -0.5068393349647522, -0.5980115532875061, 9.533320426940918, 2.2747952938079834, 0.6784462928771973, -2.843999147415161, -1.4272249937057495, -2.4926745891571045, -2.048583984375, 0.50537109375, -0.12890625, 0, 
46, 1050345479, 0.4254656434059143, -0.45209595561027527, -0.5069259405136108, -0.5980139970779419, 9.661971092224121, 2.2504184246063232, 0.6901957392692566, 2.544403076171875, -0.8379697203636169, -0.8393529653549194, -2.05419921875, 0.5029296875, -0.126220703125, 0, 
47, 1050353812, 0.4254842698574066, -0.4520869553089142, -0.5069553256034851, -0.5979825854301453, 9.753799438476562, 2.2899458408355713, 0.6995066404342651, 1.7427796125411987, -1.5131096839904785, 0.49554574489593506, -2.054931640625, 0.504150390625, -0.128662109375, 0, 
48, 1050362145, 0.42545467615127563, -0.4521418809890747, -0.5069693922996521, -0.5979502201080322, 9.814473152160645, 2.308946132659912, 0.6171085238456726, 0.9521196484565735, -2.2966747283935547, 0.6314293146133423, -2.05859375, 0.5048828125, -0.126708984375, 0, 
49, 1050370478, 0.42552024126052856, -0.45220232009887695, -0.506989061832428, -0.5978410840034485, 9.873987197875977, 2.3913564682006836, 0.48896318674087524, 2.0959486961364746, -2.182511806488037, 1.8813014030456543, -2.05224609375, 0.506591796875, -0.126220703125, 0, 
50, 1050378811, 0.4256306290626526, -0.4523320198059082, -0.5069534778594971, -0.5976946353912354, 9.865483283996582, 2.384385824203491, 0.5793468356132507, 1.771262764930725, -2.353717803955078, 3.280658721923828, -2.057373046875, 0.502197265625, -0.1298828125, 0, 
51, 1050387144, 0.4258114993572235, -0.4525133967399597, -0.5069002509117126, -0.5974734425544739, 9.881930351257324, 2.431116819381714, 0.555965006351471, 2.281190872192383, -2.6427485942840576, 4.781703472137451, -2.055419921875, 0.504150390625, -0.12548828125, 0, 
52, 1050395477, 0.42605477571487427, -0.452772319316864, -0.5068051218986511, -0.5971845388412476, 9.799278259277344, 2.467489719390869, 0.6461750268936157, 2.3463282585144043, -3.0283455848693848, 6.4779558181762695, -2.0537109375, 0.504150390625, -0.128662109375, 0, 
53, 1050403810, 0.42633432149887085, -0.4531845152378082, -0.5066652297973633, -0.5967910885810852, 9.740338325500488, 2.505457878112793, 0.7541173100471497, 2.032655954360962, -4.412282466888428, 8.749963760375977, -2.05615234375, 0.503662109375, -0.12939453125, 0, 
54, 1050412143, 0.42662370204925537, -0.45373961329460144, -0.5065378546714783, -0.5962704420089722, 9.73071002960205, 2.394113063812256, 0.7786003947257996, 2.2469706535339355, -6.3924946784973145, 10.480487823486328, -2.05419921875, 0.510986328125, -0.126220703125, 0, 
55, 1050420476, 0.4268929362297058, -0.45441120862960815, -0.5064325332641602, -0.5956552624702454, 9.718184471130371, 2.3663268089294434, 0.7776541709899902, 2.2706894874572754, -8.197529792785645, 11.557413101196289, -2.04736328125, 0.510986328125, -0.12646484375, 0, 
56, 1050428809, 0.4271475672721863, -0.45521989464759827, -0.5063345432281494, -0.5949380993843079, 9.867194175720215, 2.3757071495056152, 0.6334455609321594, 2.153325080871582, -10.114090919494629, 12.930234909057617, -2.053466796875, 0.510498046875, -0.123046875, 0, 
57, 1050437142, 0.4274185299873352, -0.4561055600643158, -0.5062273144721985, -0.5941560864448547, 9.953696250915527, 2.362483501434326, 0.44481244683265686, 2.1731252670288086, -10.969914436340332, 14.05603313446045, -2.05029296875, 0.5185546875, -0.12060546875, 0, 
58, 1050445475, 0.4277041554450989, -0.4570538103580475, -0.5061094164848328, -0.593321681022644, 9.881136894226074, 2.331035852432251, 0.4360586702823639, 2.1789138317108154, -11.65417194366455, 14.968436241149902, -2.05224609375, 0.5185546875, -0.117431640625, 0, 
59, 1050453808, 0.4279977083206177, -0.4580588936805725, -0.5059992074966431, -0.5924281477928162, 9.872344970703125, 2.3211913108825684, 0.4461677074432373, 2.3688435554504395, -12.472189903259277, 15.748520851135254, -2.05078125, 0.52294921875, -0.12255859375, 0, 
60, 1050462141, 0.4282861351966858, -0.4591231942176819, -0.5058926343917847, -0.5914860963821411, 9.87874698638916, 2.2901840209960938, 0.45424675941467285, 2.3558831214904785, -13.326733589172363, 16.361188888549805, -2.049072265625, 0.52294921875, -0.11572265625, 0, 
61, 1050470474, 0.42854854464530945, -0.46022218465805054, -0.5058509707450867, -0.5904767513275146, 9.888044357299805, 2.272475004196167, 0.4216076135635376, 2.9786932468414307, -14.583162307739258, 16.39797019958496, -2.047119140625, 0.528076171875, -0.11376953125, 0, 
62, 1050478807, 0.42882975935935974, -0.46132388710975647, -0.505851149559021, -0.589411735534668, 9.91344928741455, 2.261375665664673, 0.4468933045864105, 3.8146915435791016, -15.08732795715332, 16.61264419555664, -2.047607421875, 0.532470703125, -0.107666015625, 0, 
63, 1050487140, 0.4291866421699524, -0.4623437523841858, -0.5059452652931213, -0.5882708430290222, 9.796892166137695, 2.21976375579834, 0.36073458194732666, 6.057219505310059, -14.919556617736816, 16.527732849121094, -2.045166015625, 0.53173828125, -0.111328125, 0, 
64, 1050495473, 0.4299035966396332, -0.4631497263908386, -0.5061822533607483, -0.5869078040122986, 9.835970878601074, 2.3733503818511963, 0.2564834952354431, 12.317981719970703, -12.951075553894043, 18.335460662841797, -2.04443359375, 0.539794921875, -0.105224609375, 0, 
65, 1050503806, 0.4309559762477875, -0.46375852823257446, -0.5065857172012329, -0.5853053331375122, 9.799442291259766, 2.2850635051727295, 0.3286760747432709, 18.627033233642578, -11.521625518798828, 20.04872703552246, -2.0517578125, 0.54248046875, -0.1064453125, 0, 
66, 1050512139, 0.4322796165943146, -0.46427491307258606, -0.5071818828582764, -0.5834006071090698, 9.95246410369873, 2.0839343070983887, 0.4811793267726898, 24.563705444335938, -11.970415115356445, 22.127275466918945, -2.048095703125, 0.544921875, -0.1044921875, 0, 
67, 1050520472, 0.4336080253124237, -0.4648677706718445, -0.5078465342521667, -0.5813605785369873, 10.166070938110352, 2.0451231002807617, 0.45764946937561035, 25.62818717956543, -13.806933403015137, 23.0898380279541, -2.042236328125, 0.550537109375, -0.100341796875, 0, 
68, 1050528805, 0.4354204833507538, -0.4651566743850708, -0.5085930228233337, -0.5791179537773132, 10.173072814941406, 1.9628279209136963, 0.6655524969100952, 32.6097526550293, -9.793925285339355, 25.500764846801758, -2.03857421875, 0.55419921875, -0.100341796875, 0, 
69, 1050537138, 0.437193363904953, -0.4654160737991333, -0.5091397166252136, -0.5770900249481201, 10.401118278503418, 1.8546425104141235, 0.8820280432701111, 29.440441131591797, -7.252295970916748, 24.991010665893555, -2.047119140625, 0.559326171875, -0.098388671875, 0, 
70, 1050545471, 0.43923982977867126, -0.4653153717517853, -0.5092108249664307, -0.5755525231361389, 10.083816528320312, 1.738161563873291, 0.7382891178131104, 26.146902084350586, 3.505734920501709, 24.71455192565918, -2.040283203125, 0.566650390625, -0.10107421875, 0, 
71, 1050553804, 0.44110459089279175, -0.4652976989746094, -0.509016215801239, -0.574311375617981, 9.722309112548828, 1.637223243713379, 0.464938759803772, 20.307329177856445, 5.089232444763184, 23.791688919067383, -2.037353515625, 0.575439453125, -0.108154296875, 0, 
72, 1050562137, 0.4431118667125702, -0.46527335047721863, -0.508969247341156, -0.5728256106376648, 9.594282150268555, 1.7749820947647095, 0.1997378170490265, 24.135488510131836, 3.6671555042266846, 25.38392448425293, -2.041259765625, 0.574951171875, -0.105712890625, 0, 
73, 1050570470, 0.44508248567581177, -0.46532779932022095, -0.5090680718421936, -0.5711634755134583, 9.600163459777832, 1.5338211059570312, 0.6557282209396362, 25.801620483398438, 0.7833225727081299, 25.813554763793945, -2.0390625, 0.584716796875, -0.110107421875, 0, 
74, 1050578803, 0.4468071162700653, -0.46554434299468994, -0.5090901851654053, -0.569618821144104, 9.395925521850586, 1.34101140499115, 0.7323535680770874, 21.812835693359375, -1.0023373365402222, 24.764598846435547, -2.044921875, 0.584228515625, -0.108154296875, 0, 
75, 1050587136, 0.448289155960083, -0.4659879803657532, -0.5089364647865295, -0.5682270526885986, 9.859477996826172, 1.5825674533843994, 0.1901453584432602, 16.417980194091797, -2.4056906700134277, 24.664207458496094, -2.0390625, 0.59033203125, -0.112060546875, 0, 
76, 1050595469, 0.44994670152664185, -0.46629536151885986, -0.5087866187095642, -0.5667971968650818, 9.868122100830078, 1.6216858625411987, 0.300494909286499, 18.67836570739746, -0.395740270614624, 25.268247604370117, -2.03515625, 0.5947265625, -0.1103515625, 0, 
77, 1050603802, 0.45189622044563293, -0.4663630723953247, -0.5086782574653625, -0.5652859807014465, 9.821863174438477, 1.6035287380218506, 0.2319805771112442, 22.9260311126709, 2.7517528533935547, 26.12722396850586, -2.035888671875, 0.59716796875, -0.113525390625, 0, 
78, 1050612135, 0.4539744555950165, -0.46633222699165344, -0.5086312890052795, -0.5636863112449646, 9.756488800048828, 1.4079760313034058, 0.12785707414150238, 25.459978103637695, 3.4549167156219482, 26.57135772705078, -2.0380859375, 0.607177734375, -0.115478515625, 0, 
79, 1050620468, 0.4560217261314392, -0.46629562973976135, -0.5085428953170776, -0.5621412992477417, 9.743831634521484, 1.300126314163208, 0.17352040112018585, 24.5925235748291, 3.908365249633789, 26.237165451049805, -2.0341796875, 0.61083984375, -0.117431640625, 0, 
80, 1050628801, 0.4578514099121094, -0.46639639139175415, -0.5083683133125305, -0.5607266426086426, 9.64383316040039, 1.2685011625289917, 0.6973247528076172, 20.759525299072266, 2.68548846244812, 25.230926513671875, -2.035400390625, 0.620849609375, -0.120849609375, 0, 
81, 1050637134, 0.459674596786499, -0.4665150046348572, -0.5080162286758423, -0.5594539642333984, 9.683487892150879, 1.4882948398590088, 0.7310691475868225, 18.236032485961914, 4.546543121337891, 25.569265365600586, -2.03076171875, 0.62451171875, -0.125244140625, 0, 
82, 1050645467, 0.4616384506225586, -0.46656495332717896, -0.5076354742050171, -0.5581393241882324, 9.74793815612793, 1.4578189849853516, 0.49490171670913696, 19.65370750427246, 5.952332019805908, 26.60065269470215, -2.033447265625, 0.627197265625, -0.124755859375, 0, 
83, 1050653800, 0.4636719524860382, -0.4665890336036682, -0.5071911215782166, -0.556835949420929, 9.904428482055664, 1.4093642234802246, 0.6267428994178772, 19.7008113861084, 7.1299214363098145, 27.311935424804688, -2.02880859375, 0.630126953125, -0.128662109375, 0, 
84, 1050662133, 0.4656969904899597, -0.4666702449321747, -0.5066182017326355, -0.5555981993675232, 9.938453674316406, 1.4986612796783447, 0.43032369017601013, 17.8365535736084, 7.859338283538818, 28.031700134277344, -2.030029296875, 0.636962890625, -0.135009765625, 0, 
85, 1050670466, 0.46786096692085266, -0.4667280316352844, -0.5059952735900879, -0.5542978644371033, 10.25995922088623, 1.5150226354599, 0.44807401299476624, 18.93097496032715, 8.937698364257812, 29.67136573791504, -2.026123046875, 0.640625, -0.1357421875, 0, 
86, 1050678799, 0.47027888894081116, -0.46663397550582886, -0.5052545070648193, -0.5530051589012146, 10.210396766662598, 1.395859718322754, 0.3348458707332611, 20.587892532348633, 12.656713485717773, 31.23945426940918, -2.022216796875, 0.653076171875, -0.1416015625, 0, 
87, 1050687132, 0.4726901948451996, -0.4666633605957031, -0.5044828057289124, -0.5516273975372314, 10.178898811340332, 1.4527662992477417, 0.36378419399261475, 20.09743309020996, 11.341705322265625, 32.81547927856445, -2.020263671875, 0.651123046875, -0.1455078125, 0, 
88, 1050695465, 0.47529274225234985, -0.46663549542427063, -0.5037150382995605, -0.5501142740249634, 10.196414947509766, 1.442636489868164, 0.48174038529396057, 22.671388626098633, 12.191384315490723, 34.70195388793945, -2.025146484375, 0.66064453125, -0.14794921875, 0, 
89, 1050703798, 0.4780066907405853, -0.4665963649749756, -0.5029197335243225, -0.5485212802886963, 10.168124198913574, 1.3727813959121704, 0.7720438241958618, 23.812559127807617, 12.732460975646973, 36.18840026855469, -2.016845703125, 0.6640625, -0.155029296875, 0, 
90, 1050712131, 0.48073625564575195, -0.4666312634944916, -0.5020046234130859, -0.5469422936439514, 10.189836502075195, 1.4724856615066528, 0.8362083435058594, 22.41830062866211, 13.143624305725098, 37.47224807739258, -2.0166015625, 0.672119140625, -0.160888671875, 0, 
91, 1050720464, 0.48358777165412903, -0.46672868728637695, -0.5009998083114624, -0.5452638864517212, 10.191423416137695, 1.5022412538528442, 0.8636371493339539, 22.795345306396484, 13.487547874450684, 40.077816009521484, -2.01708984375, 0.680908203125, -0.160888671875, 0, 
92, 1050728797, 0.4865121841430664, -0.4669249653816223, -0.4998811185359955, -0.5435183048248291, 10.342251777648926, 1.4401427507400513, 0.6690045595169067, 22.218822479248047, 13.556095123291016, 42.45820999145508, -2.018310546875, 0.689697265625, -0.164306640625, 0, 
93, 1050737130, 0.4897569417953491, -0.4669860601425171, -0.4987334609031677, -0.5416025519371033, 10.485069274902344, 1.2329003810882568, 0.33410441875457764, 26.131956100463867, 15.88664436340332, 45.27554702758789, -2.01171875, 0.699462890625, -0.174560546875, 0, 
94, 1050745463, 0.4931394159793854, -0.4670548439025879, -0.4975007176399231, -0.539604127407074, 10.527064323425293, 1.0734013319015503, 0.48478904366493225, 26.898902893066406, 16.80079460144043, 47.43009948730469, -2.011474609375, 0.70751953125, -0.178466796875, 0, 
95, 1050753796, 0.49643880128860474, -0.4673614799976349, -0.49601510167121887, -0.5376776456832886, 10.509565353393555, 1.183700680732727, 0.5124253630638123, 22.37889862060547, 16.660018920898438, 49.60590744018555, -2.009033203125, 0.7138671875, -0.181640625, 0, 
96, 1050762129, 0.49981051683425903, -0.4678153097629547, -0.49434247612953186, -0.5356960296630859, 10.672528266906738, 1.2898929119110107, 0.5894052982330322, 20.836997985839844, 16.971900939941406, 52.69403076171875, -2.0068359375, 0.7236328125, -0.189453125, 0, 
97, 1050770462, 0.5035273432731628, -0.4681839346885681, -0.49257487058639526, -0.5335168838500977, 10.708039283752441, 1.310151219367981, 0.7645881175994873, 24.282629013061523, 19.343570709228516, 56.654273986816406, -2.0009765625, 0.733642578125, -0.194091796875, 0, 
98, 1050778795, 0.5074348449707031, -0.4686119556427002, -0.4907222390174866, -0.5311409831047058, 10.621657371520996, 1.1404626369476318, 0.7711923718452454, 25.810842514038086, 19.50489616394043, 60.33763885498047, -2.001953125, 0.74169921875, -0.197265625, 0, 
99, 1050787128, 0.5112960338592529, -0.46933606266975403, -0.4886627197265625, -0.5286917686462402, 10.61642837524414, 1.1911001205444336, 0.8005583882331848, 22.428878784179688, 18.01919174194336, 63.875545501708984, -2.001220703125, 0.75537109375, -0.203125, 0, 
100, 1050795461, 0.5151392817497253, -0.4703582227230072, -0.48656320571899414, -0.5259820818901062, 10.596231460571289, 1.2359886169433594, 1.0461180210113525, 21.677490234375, 14.313826560974121, 67.80242919921875, -1.995361328125, 0.768310546875, -0.21240234375, 0, 
101, 1050803794, 0.5189300179481506, -0.47175881266593933, -0.48435133695602417, -0.5230347514152527, 10.656142234802246, 1.1810898780822754, 1.4211561679840088, 19.43434715270996, 10.5017728805542, 72.40152740478516, -1.992431640625, 0.781494140625, -0.217529296875, 0, 
102, 1050812127, 0.523123562335968, -0.4730861186981201, -0.4817308783531189, -0.5200701355934143, 11.056939125061035, 1.382402777671814, 1.7082393169403076, 19.748445510864258, 16.496187210083008, 77.54938507080078, -1.986083984375, 0.795166015625, -0.2177734375, 0, 
103, 1050820460, 0.5273895263671875, -0.47470855712890625, -0.47876399755477905, -0.5170138478279114, 10.863584518432617, 1.4032117128372192, 1.1688930988311768, 16.222509384155273, 16.779726028442383, 82.9754867553711, -1.978759765625, 0.810546875, -0.222412109375, 0, 
104, 1050828793, 0.5319539904594421, -0.4765470325946808, -0.4759346544742584, -0.5132448673248291, 10.96348762512207, 1.342999815940857, 0.8844265341758728, 22.278141021728516, 11.54126262664795, 90.751953125, -1.97216796875, 0.826171875, -0.228515625, 0, 
105, 1050837126, 0.5366586446762085, -0.478689044713974, -0.4729209244251251, -0.5091231465339661, 11.267019271850586, 1.3936337232589722, 1.5553045272827148, 21.974838256835938, 9.368860244750977, 97.56297302246094, -1.963623046875, 0.84716796875, -0.2333984375, 0, 
106, 1050845459, 0.5411561131477356, -0.4815523624420166, -0.4695049524307251, -0.5048056244850159, 11.606428146362305, 1.405838966369629, 1.4402321577072144, 13.753966331481934, 4.635978698730469, 104.84890747070312, -1.955322265625, 0.86083984375, -0.2353515625, 0, 
107, 1050853792, 0.5455640554428101, -0.48502030968666077, -0.4656146168708801, -0.5003243088722229, 11.781563758850098, 1.4947798252105713, 1.300921082496643, 6.4285407066345215, 2.3188185691833496, 112.54850769042969, -1.947265625, 0.88330078125, -0.23779296875, 0, 
108, 1050862125, 0.5501513481140137, -0.4887896180152893, -0.46114450693130493, -0.49575209617614746, 12.243077278137207, 1.5363575220108032, 0.9959791898727417, 1.954378366470337, 5.124668121337891, 120.20537567138672, -1.940673828125, 0.90771484375, -0.237548828125, 0, 
109, 1050870458, 0.5551313757896423, -0.49258682131767273, -0.45603707432746887, -0.4911455512046814, 12.323002815246582, 1.3709481954574585, 0.8119577765464783, 0.2503955662250519, 12.028579711914062, 127.6685562133789, -1.931396484375, 0.9287109375, -0.24169921875, 0, 
110, 1050878791, 0.5608960390090942, -0.49585670232772827, -0.45008254051208496, -0.48677921295166016, 12.846416473388672, 1.2050704956054688, 0.4744444191455841, 2.3677291870117188, 28.590810775756836, 133.5004425048828, -1.91845703125, 0.9541015625, -0.243408203125, 0, 
111, 1050887124, 0.5675457119941711, -0.49849551916122437, -0.44268253445625305, -0.48314857482910156, 12.86464786529541, 1.1360372304916382, 0.4314700961112976, -0.9582986831665039, 54.47480773925781, 139.78225708007812, -1.91064453125, 0.9765625, -0.253173828125, 0, 
112, 1050895457, 0.5740526914596558, -0.5017786622047424, -0.4349620044231415, -0.4790576100349426, 12.387886047363281, 0.42021074891090393, -0.9194930791854858, -6.293757915496826, 48.65655517578125, 148.4640655517578, -1.890625, 1.00244140625, -0.264404296875, 0, 
113, 1050903790, 0.5805161595344543, -0.5056897401809692, -0.42686551809310913, -0.4744165241718292, 13.082600593566895, 0.5824645161628723, -0.7203732132911682, -10.742154121398926, 43.451385498046875, 158.9676513671875, -1.871337890625, 1.025390625, -0.27001953125, 0, 
114, 1050912123, 0.5871360301971436, -0.5099197626113892, -0.41806817054748535, -0.46955132484436035, 14.081238746643066, 0.8497751355171204, -0.24491803348064423, -15.452205657958984, 46.30442428588867, 168.427490234375, -1.857666015625, 1.056396484375, -0.28076171875, 0, 
115, 1050920456, 0.5941087007522583, -0.5141523480415344, -0.4079820513725281, -0.4650155007839203, 14.54207992553711, 1.1040523052215576, -0.6844465732574463, -23.222854614257812, 61.06486892700195, 177.20709228515625, -1.8388671875, 1.08544921875, -0.288818359375, 0, 
116, 1050928789, 0.6015623211860657, -0.5183857083320618, -0.39698824286460876, -0.46022382378578186, 15.2326078414917, 1.3482564687728882, -1.309675931930542, -24.189239501953125, 69.33324432373047, 188.6897430419922, -1.81396484375, 1.11328125, -0.2958984375, 0, 
117, 1050937122, 0.6098388433456421, -0.5222353935241699, -0.3849191665649414, -0.4552038311958313, 15.913166999816895, 1.3108205795288086, -1.7820210456848145, -20.706552505493164, 83.56494903564453, 201.48788452148438, -1.790771484375, 1.142333984375, -0.312255859375, 0, 
118, 1050945455, 0.6187792420387268, -0.5259051322937012, -0.3719184994697571, -0.4496878981590271, 16.276519775390625, 0.9783625602722168, -3.031614065170288, -17.63802719116211, 92.41360473632812, 215.4105987548828, -1.76806640625, 1.177490234375, -0.3251953125, 0, 
119, 1050953788, 0.628510057926178, -0.5294864177703857, -0.35851430892944336, -0.44282370805740356, 17.350027084350586, 0.626003623008728, -2.2889764308929443, -6.7700653076171875, 90.75056457519531, 234.40220642089844, -1.735595703125, 1.209716796875, -0.332763671875, 0, 
120, 1050962121, 0.6385459899902344, -0.533214271068573, -0.3439047038555145, -0.4355195164680481, 17.983217239379883, 1.068200707435608, -1.6852922439575195, -10.984978675842285, 98.5162353515625, 249.40431213378906, -1.700439453125, 1.24853515625, -0.3515625, 0, 
121, 1050970454, 0.6493593454360962, -0.5365599393844604, -0.3284885883331299, -0.42724406719207764, 18.448623657226562, 0.8072866201400757, -2.071503162384033, -2.1610758304595947, 104.53426361083984, 266.8910217285156, -1.66015625, 1.28173828125, -0.36376953125, 0, 
122, 1050978787, 0.6605958342552185, -0.5397250056266785, -0.31282973289489746, -0.41767680644989014, 20.080799102783203, -0.5375829935073853, -1.472865343093872, 6.980466365814209, 100.0526123046875, 281.697998046875, -1.62060546875, 1.31982421875, -0.385009765625, 0, 
123, 1050987120, 0.6721348762512207, -0.5424066781997681, -0.2960579991340637, -0.4079040288925171, 21.93153953552246, -1.7318923473358154, -1.9259694814682007, 8.119964599609375, 112.83180236816406, 291.721435546875, -1.573486328125, 1.354248046875, -0.3994140625, 0, 
124, 1050995453, 0.6831315755844116, -0.5450819730758667, -0.2787525951862335, -0.3981460928916931, 23.792333602905273, -0.08254723995923996, -0.6096971035003662, 1.067988634109497, 115.58747100830078, 292.2608642578125, -1.5234375, 1.387451171875, -0.412353515625, 0, 
125, 1051003786, 0.6942791938781738, -0.5467042326927185, -0.2601199448108673, -0.3891463577747345, 21.98033332824707, -1.0872502326965332, 0.62808758020401, 1.9412392377853394, 140.23233032226562, 292.1615295410156, -1.471435546875, 1.423095703125, -0.42724609375, 0, 
126, 1051012119, 0.7046490907669067, -0.5489385724067688, -0.24137255549430847, -0.3793178200721741, 19.799535751342773, -2.039149522781372, 0.32386159896850586, -7.42282772064209, 128.8900909423828, 298.6831359863281, -1.41796875, 1.45361328125, -0.445556640625, 0, 
127, 1051020452, 0.7131876349449158, -0.5535361766815186, -0.22365319728851318, -0.3673507571220398, 20.848072052001953, -1.2444216012954712, -0.346224844455719, -31.659521102905273, 84.55060577392578, 310.2865905761719, -1.365478515625, 1.48291015625, -0.453369140625, 0, 
128, 1051028785, 0.7200442552566528, -0.5600249767303467, -0.20446693897247314, -0.35511672496795654, 18.52910041809082, 0.6630478501319885, -0.968224287033081, -69.630859375, 82.00402069091797, 321.0436706542969, -1.305419921875, 1.514892578125, -0.451416015625, 0, 
129, 1051037118, 0.7262467741966248, -0.5674728751182556, -0.1864403486251831, -0.3402745723724365, 19.296939849853516, 2.5499322414398193, -3.0889220237731934, -71.12647247314453, 44.101966857910156, 337.85711669921875, -1.24169921875, 1.54248046875, -0.44873046875, 0, 
130, 1051045451, 0.7337591052055359, -0.5731663703918457, -0.16928601264953613, -0.3231513500213623, 19.185230255126953, 3.1484575271606445, -3.561742067337036, -33.494361877441406, 28.965808868408203, 355.0539855957031, -1.173583984375, 1.572265625, -0.4423828125, 0, 
131, 1051053784, 0.7411949634552002, -0.5779290795326233, -0.15206927061080933, -0.3057929277420044, 19.96561050415039, -0.30293479561805725, -1.0901237726211548, -24.36311912536621, 31.909297943115234, 355.9042663574219, -1.10498046875, 1.59228515625, -0.4365234375, 0, 
132, 1051062117, 0.746532142162323, -0.5805606842041016, -0.13326352834701538, -0.2964566648006439, 9.676989555358887, -4.04413366317749, -4.0783257484436035, -42.849365234375, 116.22793579101562, 272.97467041015625, -1.045166015625, 1.608642578125, -0.442626953125, 0, 
133, 1051070450, 0.7459802031517029, -0.5860477089881897, -0.12105314433574677, -0.2922571003437042, -5.820743083953857, 4.173678398132324, -3.0612218379974365, -101.6214828491211, 67.32379913330078, 149.37733459472656, -0.997314453125, 1.62451171875, -0.427001953125, 0, 
134, 1051078783, 0.7480694651603699, -0.5836527943611145, -0.11632890999317169, -0.29362478852272034, -10.523082733154297, 9.64305305480957, -9.151931762695312, 21.258283615112305, 71.23367309570312, 28.844209671020508, -0.984130859375, 1.625732421875, -0.418212890625, 0, 
135, 1051087116, 0.7544180750846863, -0.5758814811706543, -0.12274938076734543, -0.29009121656417847, 12.468234062194824, -0.11355862766504288, 2.726227283477783, 163.689697265625, -53.982364654541016, -1.0013891458511353, -0.979736328125, 1.62109375, -0.44873046875, 0, 
136, 1051095449, 0.7533940672874451, -0.572390615940094, -0.12811380624771118, -0.29725348949432373, 5.188209533691406, 8.033308029174805, -2.710850715637207, 38.53266525268555, 11.9102783203125, -126.37348937988281, -0.99365234375, 1.613525390625, -0.4609375, 0, 
137, 1051103782, 0.7513777613639832, -0.5704432725906372, -0.13712871074676514, -0.3020399808883667, 4.994409084320068, 11.01678466796875, -3.935670852661133, 33.937278747558594, -52.39555740356445, -131.23463439941406, -1.018798828125, 1.607421875, -0.462646484375, 0, 
138, 1051112115, 0.7494319677352905, -0.5686752796173096, -0.14462223649024963, -0.3066774010658264, 6.995500564575195, 7.673860549926758, -1.3466659784317017, 26.50067138671875, -38.73037338256836, -117.72489929199219, -1.0439453125, 1.59033203125, -0.465087890625, 0, 
139, 1051120448, 0.7474345564842224, -0.5677114725112915, -0.1517709195613861, -0.30986714363098145, 3.194242477416992, 6.399553298950195, -3.360095500946045, 19.32718849182129, -49.69080352783203, -98.0838394165039, -1.065185546875, 1.5947265625, -0.466796875, 0, 
140, 1051128781, 0.7451773881912231, -0.567916750907898, -0.15997284650802612, -0.3108001947402954, 2.757932662963867, 5.860383033752441, -2.4619052410125732, 14.386961936950684, -83.95916748046875, -82.42151641845703, -1.0849609375, 1.5869140625, -0.464599609375, 0, 
141, 1051137114, 0.7427663207054138, -0.5685092210769653, -0.16830378770828247, -0.31108787655830383, 3.1552014350891113, 5.49827766418457, -2.2165606021881104, 11.289809226989746, -91.99571990966797, -75.93904876708984, -1.099365234375, 1.580322265625, -0.4619140625, 0, 
142, 1051145447, 0.7399886846542358, -0.569161057472229, -0.17729589343070984, -0.31152060627937317, 3.472271203994751, 5.126097679138184, -1.4801818132400513, 10.209104537963867, -99.03787231445312, -84.70362091064453, -1.116455078125, 1.579833984375, -0.45458984375, 0, 
143, 1051153780, 0.7363646030426025, -0.5696449279785156, -0.18675079941749573, -0.31369155645370483, 3.5503456592559814, 5.395162105560303, -1.1233595609664917, 3.1469829082489014, -91.1505355834961, -109.34211730957031, -1.135986328125, 1.57080078125, -0.447998046875, 0, 
144, 1051162113, 0.7319159507751465, -0.5695667266845703, -0.1968429684638977, -0.31804439425468445, 3.5315070152282715, 5.767613887786865, -1.1393609046936035, -0.5835571885108948, -80.54115295410156, -142.13775634765625, -1.161865234375, 1.562255859375, -0.443603515625, 0, 
145, 1051170446, 0.7266663908958435, -0.5688449144363403, -0.20800018310546875, -0.32421207427978516, 3.123217821121216, 5.78665018081665, -1.1631821393966675, -0.5188582539558411, -76.05271911621094, -173.25376892089844, -1.19091796875, 1.55517578125, -0.433837890625, 0, 
146, 1051178779, 0.7208407521247864, -0.5675744414329529, -0.22014915943145752, -0.3313432037830353, 3.2308173179626465, 5.981705665588379, -1.616830587387085, 2.0073764324188232, -77.9758529663086, -195.51754760742188, -1.22607421875, 1.546875, -0.427490234375, 0, 
147, 1051187112, 0.7145364284515381, -0.5659042596817017, -0.23335841298103333, -0.33873313665390015, 3.3590147495269775, 5.786098957061768, -1.7364555597305298, 6.3894124031066895, -85.73294830322266, -208.98516845703125, -1.2666015625, 1.53173828125, -0.41845703125, 0, 
148, 1051195445, 0.7077998518943787, -0.5640287399291992, -0.24702692031860352, -0.346229612827301, 3.9710237979888916, 5.727933406829834, -1.9183686971664429, 6.733503818511963, -90.20796966552734, -217.04611206054688, -1.302490234375, 1.521484375, -0.414794921875, 0, 
149, 1051203778, 0.7007074356079102, -0.561880350112915, -0.2609090209007263, -0.3538818359375, 4.702895641326904, 5.630025863647461, -1.858549952507019, 7.220058917999268, -90.61373901367188, -222.0419464111328, -1.3447265625, 1.509521484375, -0.406005859375, 0, 
150, 1051212111, 0.693294107913971, -0.5595496296882629, -0.27470073103904724, -0.36165356636047363, 5.089598655700684, 5.549919605255127, -1.5992863178253174, 5.525725364685059, -89.45818328857422, -225.51161193847656, -1.39013671875, 1.4892578125, -0.3994140625, 0, 
151, 1051220444, 0.685455858707428, -0.5571118593215942, -0.2884335219860077, -0.3695794939994812, 5.289377212524414, 5.432304859161377, -1.1825133562088013, 2.5025527477264404, -88.3900375366211, -228.21090698242188, -1.431884765625, 1.47119140625, -0.384765625, 0, 
152, 1051228777, 0.6771488785743713, -0.554673433303833, -0.30216747522354126, -0.3775022625923157, 5.466868877410889, 5.308847427368164, -0.805618941783905, -1.1648452281951904, -90.67484283447266, -231.40872192382812, -1.481689453125, 1.451171875, -0.373046875, 0, 
153, 1051237110, 0.6681722402572632, -0.5522629618644714, -0.31619906425476074, -0.3854554295539856, 5.936254024505615, 5.383671760559082, -0.5011610984802246, -5.023035049438477, -95.7301254272461, -236.45623779296875, -1.522216796875, 1.432861328125, -0.36474609375, 0, 
154, 1051245443, 0.6584521532058716, -0.5498698949813843, -0.3304911255836487, -0.39353007078170776, 6.536044120788574, 5.545077800750732, -0.4156683087348938, -10.068037033081055, -100.93888854980469, -244.28515625, -1.57666015625, 1.408447265625, -0.3466796875, 0, 
155, 1051253776, 0.6478637456893921, -0.5473370552062988, -0.34516212344169617, -0.40195053815841675, 7.05606746673584, 5.568139553070068, -0.5012608170509338, -14.809398651123047, -104.52254486083984, -254.7093963623047, -1.624267578125, 1.385986328125, -0.32177734375, 0, 
156, 1051262109, 0.6364916563034058, -0.5445915460586548, -0.3602854609489441, -0.41048645973205566, 7.594573020935059, 5.484491348266602, -0.6297842860221863, -16.943161010742188, -110.65238189697266, -265.39495849609375, -1.675048828125, 1.35546875, -0.29931640625, 0, 
157, 1051270442, 0.6243370771408081, -0.5415927171707153, -0.3759913146495819, -0.41894811391830444, 8.336044311523438, 5.362967491149902, -0.7512832880020142, -16.8470401763916, -118.32686614990234, -273.8304138183594, -1.727783203125, 1.31884765625, -0.271484375, 0, 
158, 1051278775, 0.6115567684173584, -0.538423478603363, -0.3921352028846741, -0.42700713872909546, 9.174857139587402, 5.207806587219238, -0.5915998220443726, -15.520366668701172, -127.76988983154297, -279.0728454589844, -1.782470703125, 1.279052734375, -0.238037109375, 0, 
159, 1051287108, 0.5981583595275879, -0.5350891351699829, -0.40861785411834717, -0.43465399742126465, 10.508599281311035, 5.281851291656494, -0.31473666429519653, -14.419266700744629, -135.5939483642578, -281.645263671875, -1.828125, 1.231201171875, -0.2021484375, 0, 
160, 1051295441, 0.5843148827552795, -0.5315001010894775, -0.4251291751861572, -0.44199037551879883, 11.782752990722656, 5.475701332092285, 0.11865770816802979, -13.761211395263672, -139.53514099121094, -284.3848876953125, -1.87353515625, 1.18505859375, -0.1611328125, 0, 
161, 1051303774, 0.5699705481529236, -0.5275123119354248, -0.44151127338409424, -0.44937562942504883, 13.218815803527832, 5.712469100952148, 0.7080535888671875, -15.20749282836914, -138.1929168701172, -288.1798400878906, -1.914306640625, 1.136474609375, -0.112548828125, 0, 
162, 1051312107, 0.5552453994750977, -0.5230017304420471, -0.45741426944732666, -0.45711085200309753, 14.516846656799316, 5.941638946533203, 0.9856575131416321, -19.039962768554688, -131.43148803710938, -294.0072937011719, -1.950439453125, 1.0810546875, -0.07275390625, 0, 
163, 1051320440, 0.5400800108909607, -0.517795979976654, -0.47286951541900635, -0.465404748916626, 15.477900505065918, 6.097636699676514, 1.188084602355957, -23.149797439575195, -121.9434814453125, -301.1214599609375, -1.984375, 1.028076171875, -0.024169921875, 0, 
164, 1051328773, 0.5246562957763672, -0.511895477771759, -0.48773470520973206, -0.47415176033973694, 16.137998580932617, 6.161613464355469, 1.3401681184768677, -26.628273010253906, -112.01716613769531, -307.5280456542969, -2.011962890625, 0.96875, 0.019287109375, 0, 
165, 1051337106, 0.5089266896247864, -0.5053888559341431, -0.5021959543228149, -0.48309534788131714, 16.697002410888672, 6.131539821624756, 1.2436387538909912, -28.290355682373047, -105.37979125976562, -311.05712890625, -2.036376953125, 0.914306640625, 0.0576171875, 0, 
166, 1051345439, 0.49313053488731384, -0.49849560856819153, -0.5161250233650208, -0.49187982082366943, 17.744903564453125, 6.235039234161377, 1.1623436212539673, -28.555835723876953, -101.0885238647461, -310.4624328613281, -2.0595703125, 0.8505859375, 0.093505859375, 0, 
167, 1051353772, 0.47715023159980774, -0.491277813911438, -0.5293834209442139, -0.5007328987121582, 19.257593154907227, 6.1747660636901855, 1.1514042615890503, -32.570011138916016, -94.76092529296875, -308.7445068359375, -2.0888671875, 0.800537109375, 0.128662109375, 0, 
168, 1051362105, 0.4613867998123169, -0.4837275743484497, -0.5415844917297363, -0.5097280144691467, 20.33165740966797, 6.23275899887085, 0.6483016014099121, -37.31024932861328, -83.41382598876953, -304.5937194824219, -2.1162109375, 0.744140625, 0.16064453125, 0, 
169, 1051370438, 0.44555190205574036, -0.47579285502433777, -0.5528129935264587, -0.5191423296928406, 21.414220809936523, 5.798641204833984, 0.17839853465557098, -45.22403335571289, -71.89628601074219, -302.9976806640625, -2.141845703125, 0.685302734375, 0.188232421875, 0, 
170, 1051378771, 0.4297947883605957, -0.4674686789512634, -0.5632842183113098, -0.5286461710929871, 21.778133392333984, 5.115084648132324, -0.7410745024681091, -48.476959228515625, -63.693843841552734, -302.14678955078125, -2.172119140625, 0.619140625, 0.222412109375, 0, 
171, 1051387104, 0.41354861855506897, -0.4586980640888214, -0.573556661605835, -0.5381566882133484, 22.25437355041504, 4.0765180587768555, -1.3303430080413818, -50.42747116088867, -62.649288177490234, -306.7694396972656, -2.20068359375, 0.542236328125, 0.2685546875, 0, 
172, 1051395437, 0.3969038128852844, -0.4494713544845581, -0.5841497182846069, -0.5470085740089417, 22.177295684814453, 3.1472394466400146, -1.8507145643234253, -42.83280563354492, -68.76702880859375, -312.7490539550781, -2.22314453125, 0.459228515625, 0.314697265625, 0, 
173, 1051403770, 0.379395067691803, -0.43999677896499634, -0.5955464243888855, -0.5547907948493958, 22.360689163208008, 1.705175518989563, -1.720960259437561, -32.13181686401367, -84.49156188964844, -319.2376708984375, -2.23876953125, 0.374267578125, 0.376708984375, 0, 
174, 1051412103, 0.3614320755004883, -0.4306657910346985, -0.6077643632888794, -0.5608230829238892, 23.138046264648438, 0.5684305429458618, -1.5965180397033691, -15.0799560546875, -104.53260040283203, -318.4989013671875, -2.226806640625, 0.27978515625, 0.434814453125, 0, 
175, 1051420436, 0.34338515996932983, -0.4216652512550354, -0.6203038096427917, -0.5652560591697693, 25.221059799194336, -1.3185487985610962, -0.887920618057251, -1.3301732540130615, -118.5168685913086, -309.2554931640625, -2.208251953125, 0.1845703125, 0.500244140625, 0, 
176, 1051428769, 0.3254759609699249, -0.4132627844810486, -0.6322430968284607, -0.568818211555481, 26.501482009887695, -3.7557528018951416, 0.22437123954296112, -0.6353933811187744, -124.5420913696289, -296.5701904296875, -2.179443359375, 0.093505859375, 0.559814453125, 0, 
177, 1051437102, 0.30797481536865234, -0.405743807554245, -0.643396258354187, -0.5714641213417053, 26.484577178955078, -5.906252861022949, 2.1908693313598633, -0.40963080525398254, -129.2734375, -276.123046875, -2.14111328125, 0.0078125, 0.60205078125, 0, 
178, 1051445435, 0.291067510843277, -0.39948445558547974, -0.6532360315322876, -0.5735687017440796, 25.988862991333008, -8.313133239746094, 4.556750297546387, -8.004992485046387, -131.695068359375, -251.68698120117188, -2.095703125, -0.067138671875, 0.63916015625, 0, 
179, 1051453768, 0.27538666129112244, -0.3942548930644989, -0.6618927717208862, -0.575003981590271, 25.557050704956055, -10.92162036895752, 5.475640296936035, -8.663467407226562, -127.45722198486328, -222.69407653808594, -2.047607421875, -0.140625, 0.660888671875, 0, 
180, 1051462101, 0.26224201917648315, -0.38935086131095886, -0.6695521473884583, -0.5756226181983948, 26.088659286499023, -15.00075912475586, 5.406838417053223, 3.3560307025909424, -107.87647247314453, -192.05831909179688, -2.008056640625, -0.194091796875, 0.6728515625, 0, 
181, 1051470434, 0.25179335474967957, -0.3841398358345032, -0.6761232018470764, -0.5761079788208008, 25.565383911132812, -20.888301849365234, 5.09276819229126, 11.567926406860352, -77.17893981933594, -166.48983764648438, -1.97119140625, -0.236083984375, 0.682373046875, 0, 
182, 1051478767, 0.24409161508083344, -0.3788289427757263, -0.6818019151687622, -0.5762467980384827, 23.543506622314453, -26.562143325805664, 4.212242126464844, 22.517423629760742, -49.8172492980957, -140.48419189453125, -1.94482421875, -0.27197265625, 0.6845703125, 0, 
183, 1051487100, 0.2386699765920639, -0.37436753511428833, -0.686760663986206, -0.575544536113739, 20.783367156982422, -32.01956558227539, 5.307151794433594, 33.77663803100586, -36.95997619628906, -107.30716705322266, -1.92138671875, -0.29296875, 0.679443359375, 0, 
184, 1051495433, 0.23420968651771545, -0.3719604015350342, -0.6901392936706543, -0.5748957991600037, 20.47494125366211, -33.15901184082031, 7.486573696136475, 18.920854568481445, -38.85435104370117, -72.90805053710938, -1.90869140625, -0.312255859375, 0.681884765625, 0, 
185, 1051503766, 0.23229990899562836, -0.3709157109260559, -0.6921994686126709, -0.573867917060852, 22.27789878845215, -30.153301239013672, 9.282129287719727, 20.782466888427734, -22.98472023010254, -31.479232788085938, -1.887451171875, -0.315673828125, 0.688720703125, 0, 
186, 1051512099, 0.23364496231079102, -0.37036973237991333, -0.6922122240066528, -0.5736590623855591, 22.676624298095703, -26.65579605102539, 10.066980361938477, 11.809484481811523, 14.651000022888184, 6.409592628479004, -1.881103515625, -0.314453125, 0.68212890625, 0, 
187, 1051520432, 0.2376776784658432, -0.37142127752304077, -0.6898230910301208, -0.5742002129554749, 26.763811111450195, -20.4410400390625, 10.19249439239502, -5.713686943054199, 39.23269271850586, 52.815582275390625, -1.884033203125, -0.3095703125, 0.67724609375, 0, 
188, 1051528765, 0.2518325746059418, -0.38335689902305603, -0.681411862373352, -0.5703524947166443, 46.636531829833984, -28.7272891998291, 13.423321723937988, 4.485642433166504, 46.51786422729492, 280.9391784667969, -1.885986328125, -0.268798828125, 0.6787109375, 0, 
189, 1051537098, 0.2640388011932373, -0.38682353496551514, -0.6765671372413635, -0.5682551860809326, -2.4871866703033447, -1.8350027799606323, -11.725409507751465, 35.11687469482422, 91.5438003540039, 161.42440795898438, -1.9130859375, -0.219970703125, 0.665771484375, 0, 
190, 1051545431, 0.2805831730365753, -0.39742928743362427, -0.6702933311462402, -0.5603891015052795, 18.731578826904297, 14.725202560424805, -9.845525741577148, 74.77783966064453, 50.63520431518555, 290.30755615234375, -1.9404296875, -0.16796875, 0.656005859375, 0, 
191, 1051553764, 0.30079299211502075, -0.4058021008968353, -0.6598537564277649, -0.5562798380851746, 14.239850044250488, 24.013261795043945, -10.738789558410645, 36.68364715576172, 138.20553588867188, 306.13409423828125, -1.962890625, -0.097412109375, 0.630126953125, 0, 
192, 1051562097, 0.31513339281082153, -0.42124319076538086, -0.6473211646080017, -0.5515673756599426, 12.537525177001953, 9.444729804992676, 4.926521301269531, -35.84347152709961, 36.19709777832031, 339.66632080078125, -1.97998046875, -0.039794921875, 0.621337890625, 0, 
193, 1051570430, 0.32915177941322327, -0.4348815083503723, -0.6323140263557434, -0.5502021908760071, 18.024681091308594, -6.723757266998291, 5.484392166137695, -78.47686004638672, 77.10836791992188, 320.9252624511719, -1.999267578125, 0.021484375, 0.603759765625, 0, 
194, 1051578763, 0.34443795680999756, -0.44210946559906006, -0.6183157563209534, -0.5509935021400452, 18.390674591064453, -8.025742530822754, 0.23175373673439026, -52.981163024902344, 144.9793243408203, 259.0490417480469, -2.019775390625, 0.069091796875, 0.57958984375, 0, 
195, 1051587096, 0.35699358582496643, -0.4461256265640259, -0.6075837016105652, -0.551702618598938, 12.8104829788208, -1.1416747570037842, 1.1543691158294678, -28.923982620239258, 130.07911682128906, 191.47067260742188, -2.04248046875, 0.116455078125, 0.548828125, 0, 
196, 1051595429, 0.36493510007858276, -0.4512345790863037, -0.5991077423095703, -0.5516211986541748, 10.968746185302734, 3.4319965839385986, -2.0568630695343018, -38.86954116821289, 67.34986114501953, 155.7306671142578, -2.054443359375, 0.141357421875, 0.528564453125, 0, 
197, 1051603762, 0.37256771326065063, -0.4561532139778137, -0.5898211002349854, -0.552480936050415, 10.261438369750977, 3.283323049545288, -3.8209776878356934, -53.73756408691406, 76.1034927368164, 151.9842529296875, -2.063232421875, 0.171875, 0.51806640625, 0, 
198, 1051612095, 0.3777959644794464, -0.46159136295318604, -0.5779429078102112, -0.5569490194320679, 10.622588157653809, 0.7085478901863098, -3.4591825008392334, -120.43839263916016, 88.62263488769531, 135.8428192138672, -2.07421875, 0.184326171875, 0.493896484375, 0, 
199, 1051620428, 0.38185328245162964, -0.4656009078025818, -0.5663085579872131, -0.5627654194831848, 12.716075897216797, -0.21492430567741394, -3.9045934677124023, -129.299072265625, 97.5046615600586, 106.82975006103516, -2.085205078125, 0.197998046875, 0.474365234375, 0, 
200, 1051628761, 0.38548943400382996, -0.4672531187534332, -0.557194709777832, -0.5679903030395508, 12.211661338806152, -0.8172680139541626, -1.8935706615447998, -95.50096893310547, 95.48841857910156, 72.31713104248047, -2.09228515625, 0.202880859375, 0.44775390625, 0, 
201, 1051637094, 0.38869327306747437, -0.46750304102897644, -0.5503750443458557, -0.5722342133522034, 10.729501724243164, 0.6837784051895142, -0.5177393555641174, -65.4096450805664, 84.63890075683594, 48.50510787963867, -2.106689453125, 0.207275390625, 0.430908203125, 0, 
202, 1051645427, 0.39101818203926086, -0.4674641191959381, -0.5452917218208313, -0.5755391120910645, 9.768214225769043, 0.8837219476699829, 0.7495284080505371, -48.74380874633789, 64.96511840820312, 33.405452728271484, -2.114013671875, 0.20849609375, 0.4130859375, 0, 
203, 1051653760, 0.392265260219574, -0.4675416350364685, -0.5409848690032959, -0.5786834955215454, 9.397310256958008, 1.2161797285079956, 1.232480525970459, -48.950557708740234, 50.73639678955078, 21.466537475585938, -2.118896484375, 0.210693359375, 0.396728515625, 0, 
204, 1051662093, 0.3932071924209595, -0.46752268075942993, -0.5378537774085999, -0.580973744392395, 9.071393966674805, 1.7767102718353271, 1.2377066612243652, -34.680118560791016, 37.417327880859375, 15.522584915161133, -2.12060546875, 0.21142578125, 0.385986328125, 0, 
205, 1051670426, 0.3941810727119446, -0.4673909544944763, -0.535819411277771, -0.5822979807853699, 9.184118270874023, 1.7371737957000732, 0.9306179285049438, -17.95631217956543, 26.39348602294922, 12.961596488952637, -2.121337890625, 0.2138671875, 0.380859375, 0, 
206, 1051678759, 0.39483633637428284, -0.46734774112701416, -0.5340474843978882, -0.5835152864456177, 9.42952823638916, 2.1143686771392822, 0.3897867202758789, -17.595661163330078, 21.248828887939453, 10.111214637756348, -2.1279296875, 0.21630859375, 0.370849609375, 0, 
207, 1051687092, 0.39567822217941284, -0.4671313762664795, -0.5328202843666077, -0.5842396020889282, 9.304203033447266, 2.07155442237854, 0.6181693077087402, -7.468999862670898, 17.85932731628418, 9.361725807189941, -2.126708984375, 0.215576171875, 0.371337890625, 0, 
208, 1051695425, 0.39647117257118225, -0.4670143127441406, -0.5320367813110352, -0.5845096111297607, 9.32332992553711, 2.3192784786224365, 0.4733387529850006, -1.4261754751205444, 11.393227577209473, 9.469112396240234, -2.128662109375, 0.2119140625, 0.36767578125, 0, 
209, 1051703758, 0.39726290106773376, -0.46705418825149536, -0.5312175154685974, -0.5846853256225586, 9.449881553649902, 2.4575722217559814, 0.0981619656085968, -1.884824275970459, 9.686166763305664, 11.206244468688965, -2.13232421875, 0.218017578125, 0.362548828125, 0, 
210, 1051712091, 0.3980873227119446, -0.46739014983177185, -0.5301874876022339, -0.5847909450531006, 9.83340072631836, 3.8191301822662354, -0.604565441608429, -4.47811222076416, 8.272029876708984, 15.513381958007812, -2.13037109375, 0.21923828125, 0.360595703125, 0, 
211, 1051720424, 0.3993975520133972, -0.4678689241409302, -0.5291782021522522, -0.5844286680221558, 9.544367790222168, 2.882146120071411, -0.021370740607380867, 1.448114275932312, 7.520715236663818, 22.750486373901367, -2.133544921875, 0.22314453125, 0.357421875, 0, 
212, 1051728757, 0.4006412625312805, -0.46854400634765625, -0.528179407119751, -0.5839399099349976, 9.261139869689941, 2.3137497901916504, 0.6881895661354065, 0.9409520626068115, 4.610705375671387, 24.410261154174805, -2.13330078125, 0.22607421875, 0.353759765625, 0, 
213, 1051737090, 0.40165233612060547, -0.4695013761520386, -0.5273844003677368, -0.5831944346427917, 9.28954792022705, 2.4041712284088135, 0.5984882116317749, 1.388382077217102, -2.1399424076080322, 24.564899444580078, -2.130859375, 0.235595703125, 0.356689453125, 0, 
214, 1051745423, 0.4023814797401428, -0.4706767201423645, -0.5265186429023743, -0.5825263261795044, 9.879378318786621, 2.4661145210266113, -0.36305853724479675, -2.7660059928894043, -5.024746894836426, 24.04259490966797, -2.132568359375, 0.23681640625, 0.3515625, 0, 
215, 1051753756, 0.40342774987220764, -0.4716043174266815, -0.525646984577179, -0.5818393230438232, 10.164470672607422, 2.312119483947754, -0.6526172757148743, 0.7525337934494019, -0.8571808338165283, 24.813276290893555, -2.13427734375, 0.24365234375, 0.35595703125, 0, 
216, 1051762089, 0.40440982580184937, -0.4723658561706543, -0.5247389674186707, -0.5813593864440918, 9.751079559326172, 1.9193799495697021, -0.0972270518541336, -0.5362854599952698, 1.5765438079833984, 22.304664611816406, -2.133056640625, 0.24609375, 0.35595703125, 0, 
217, 1051770422, 0.40523970127105713, -0.4730684161186218, -0.5239925384521484, -0.5808830857276917, 9.334375381469727, 1.9142085313796997, 0.3689038157463074, 0.06935056298971176, 0.05062655732035637, 19.478107452392578, -2.13720703125, 0.253662109375, 0.350341796875, 0, 
218, 1051778755, 0.40594422817230225, -0.47371548414230347, -0.5233627557754517, -0.5804314613342285, 9.590058326721191, 1.9963430166244507, -0.13895449042320251, 0.31709152460098267, -0.8760839104652405, 17.294851303100586, -2.136474609375, 0.25732421875, 0.350830078125, 0, 
219, 1051787088, 0.4066074788570404, -0.4742313027381897, -0.5227031111717224, -0.5801403522491455, 9.72470474243164, 2.0192079544067383, -0.3758228123188019, -0.6125133633613586, 1.0678703784942627, 15.210440635681152, -2.132080078125, 0.258544921875, 0.35009765625, 0, 
220, 1051795421, 0.40727856755256653, -0.47457951307296753, -0.5220524072647095, -0.57997065782547, 9.743072509765625, 1.8389642238616943, -0.36980298161506653, -0.4248890280723572, 3.2225403785705566, 13.440009117126465, -2.138916015625, 0.262451171875, 0.35205078125, 0, 
221, 1051803754, 0.4079950153827667, -0.4747428894042969, -0.5215247273445129, -0.5798081159591675, 9.616198539733887, 1.845246434211731, -0.09929344803094864, 1.8341974020004272, 4.362092018127441, 11.526036262512207, -2.136962890625, 0.26806640625, 0.34765625, 0, 
222, 1051812087, 0.40868058800697327, -0.47480395436286926, -0.5211412310600281, -0.5796200037002563, 9.493184089660645, 1.9093858003616333, 0.12324205785989761, 3.541565179824829, 3.9983692169189453, 9.854168891906738, -2.139404296875, 0.26806640625, 0.345703125, 0, 
223, 1051820420, 0.4093396067619324, -0.47482502460479736, -0.5208863019943237, -0.5793669819831848, 9.430681228637695, 2.0080060958862305, 0.20248928666114807, 5.08387565612793, 2.9657318592071533, 8.779498100280762, -2.140869140625, 0.26806640625, 0.346435546875, 0, 
224, 1051828753, 0.4099729061126709, -0.4748165011405945, -0.5207206606864929, -0.5790750980377197, 9.493791580200195, 2.078463554382324, 0.18618716299533844, 6.069178581237793, 2.2760426998138428, 8.100464820861816, -2.138671875, 0.275634765625, 0.34814453125, 0, 
225, 1051837086, 0.4106203317642212, -0.47484514117240906, -0.5205621719360352, -0.5787352919578552, 9.585417747497559, 2.2513036727905273, 0.060373496264219284, 6.345274448394775, 1.7113255262374878, 8.605423927307129, -2.141845703125, 0.27490234375, 0.344482421875, 0, 
226, 1051845419, 0.41120630502700806, -0.47493302822113037, -0.520426332950592, -0.5783692598342896, 9.60539722442627, 2.0813071727752686, 0.27211761474609375, 5.985829830169678, 0.5178301930427551, 8.638747215270996, -2.138671875, 0.27294921875, 0.342529296875, 0, 
227, 1051853752, 0.4117649793624878, -0.4750814437866211, -0.5203031301498413, -0.5779604911804199, 9.365797996520996, 2.1317877769470215, 0.37346407771110535, 5.870360851287842, -0.5254248976707458, 8.920632362365723, -2.13671875, 0.27734375, 0.341064453125, 0, 
228, 1051862085, 0.4123096168041229, -0.4752996563911438, -0.5201515555381775, -0.5775290727615356, 9.619433403015137, 2.134855270385742, 0.023837048560380936, 5.32016658782959, -1.1527432203292847, 9.713061332702637, -2.142333984375, 0.27734375, 0.343017578125, 0, 
229, 1051870418, 0.412910133600235, -0.47548627853393555, -0.5199359059333801, -0.5771404504776001, 9.75432014465332, 2.1489663124084473, -0.16830550134181976, 5.048707485198975, 0.12232080847024918, 10.022018432617188, -2.138671875, 0.28369140625, 0.339111328125, 0, 
230, 1051878751, 0.4135969281196594, -0.475594162940979, -0.5197029113769531, -0.5767694711685181, 9.815836906433105, 2.1320431232452393, -0.38960525393486023, 5.797130584716797, 1.597701072692871, 10.242968559265137, -2.142822265625, 0.2841796875, 0.33740234375, 0, 
231, 1051887084, 0.41452041268348694, -0.4754915237426758, -0.5194184184074402, -0.5764473080635071, 9.952153205871582, 2.1593480110168457, -0.6072784662246704, 7.789097309112549, 5.552539348602295, 10.594266891479492, -2.1416015625, 0.287353515625, 0.339111328125, 0, 
232, 1051895417, 0.41563522815704346, -0.4751982092857361, -0.5189592242240906, -0.5763000845909119, 9.835602760314941, 2.126507520675659, -0.6688659191131592, 7.488489627838135, 10.588964462280273, 10.975482940673828, -2.14404296875, 0.29052734375, 0.333984375, 0, 
233, 1051903750, 0.4168940484523773, -0.4747554063796997, -0.5184176564216614, -0.5762432217597961, 9.802056312561035, 2.0306642055511475, -0.4030958116054535, 7.985713958740234, 13.85068416595459, 10.9937744140625, -2.147216796875, 0.29296875, 0.330322265625, 0, 
234, 1051912083, 0.4182942509651184, -0.47418737411499023, -0.5178453922271729, -0.5762107968330383, 9.667960166931152, 1.9121110439300537, -0.008376920595765114, 9.2117919921875, 16.196386337280273, 11.358521461486816, -2.145751953125, 0.296142578125, 0.324462890625, 0, 
235, 1051920416, 0.4195782542228699, -0.47366568446159363, -0.5172440409660339, -0.5762460827827454, 9.597930908203125, 2.0259082317352295, 0.15342414379119873, 7.473174095153809, 15.60295581817627, 10.49775505065918, -2.150146484375, 0.294189453125, 0.325927734375, 0, 
236, 1051928749, 0.42100244760513306, -0.4731227159500122, -0.5165484547615051, -0.5762773156166077, 9.917377471923828, 2.2167680263519287, -0.12856079638004303, 7.791814804077148, 17.294340133666992, 12.164806365966797, -2.150146484375, 0.2978515625, 0.31640625, 0, 
237, 1051937082, 0.422389417886734, -0.4726436138153076, -0.5157144069671631, -0.5764026641845703, 9.978127479553223, 2.034230947494507, -0.1533534824848175, 5.414890289306641, 17.93085479736328, 12.611186027526855, -2.150634765625, 0.302734375, 0.309326171875, 0, 
238, 1051945415, 0.42406514286994934, -0.47201788425445557, -0.5148327946662903, -0.57647305727005, 9.872587203979492, 2.1875617504119873, -0.13292169570922852, 8.155539512634277, 21.06609535217285, 14.556465148925781, -2.149169921875, 0.30712890625, 0.30224609375, 0, 
239, 1051953748, 0.42580872774124146, -0.47142133116722107, -0.5138981342315674, -0.5765100121498108, 9.82108211517334, 1.9146864414215088, 0.19592706859111786, 8.241090774536133, 21.398517608642578, 15.777522087097168, -2.151611328125, 0.310302734375, 0.2958984375, 0, 
240, 1051962081, 0.42769235372543335, -0.47079676389694214, -0.5130541324615479, -0.5763778686523438, 9.863259315490723, 2.048182725906372, 0.19825978577136993, 11.227355003356934, 20.99365997314453, 17.155799865722656, -2.152099609375, 0.314453125, 0.290283203125, 0, 
241, 1051970414, 0.42984580993652344, -0.4700574278831482, -0.5122769474983215, -0.5760704278945923, 10.215492248535156, 2.084528923034668, 0.22604039311408997, 15.416927337646484, 22.271636962890625, 19.021467208862305, -2.158935546875, 0.319580078125, 0.283935546875, 0, 
242, 1051978747, 0.4320286512374878, -0.46940770745277405, -0.5114646553993225, -0.5756890177726746, 10.172348976135254, 2.2109646797180176, 0.2031535804271698, 15.319443702697754, 21.504878997802734, 20.612709045410156, -2.16015625, 0.31884765625, 0.275634765625, 0, 
243, 1051987080, 0.4344435930252075, -0.46875283122062683, -0.5106537342071533, -0.5751248002052307, 10.072159767150879, 2.261120557785034, 0.0016262168064713478, 18.144878387451172, 21.98504638671875, 23.43297004699707, -2.159912109375, 0.326416015625, 0.2685546875, 0, 
244, 1051995413, 0.43706178665161133, -0.46815183758735657, -0.5100924372673035, -0.5741278529167175, 10.079597473144531, 2.0169456005096436, 0.29881149530410767, 24.14466667175293, 18.711650848388672, 26.4516658782959, -2.16552734375, 0.33251953125, 0.262939453125, 0, 
245, 1052003746, 0.4394494593143463, -0.4679470360279083, -0.509710431098938, -0.5728099942207336, 9.689006805419922, 1.884840965270996, 0.8615990877151489, 23.950021743774414, 10.818737030029297, 28.13382911682129, -2.162109375, 0.340576171875, 0.259033203125, 0, 
246, 1052012079, 0.4416678547859192, -0.468288779258728, -0.5097656846046448, -0.5707717537879944, 9.958050727844238, 2.1152255535125732, 1.2225775718688965, 28.04874610900879, -1.9484779834747314, 32.221797943115234, -2.161376953125, 0.34814453125, 0.255126953125, 0, 
247, 1052020412, 0.44376882910728455, -0.4691983163356781, -0.5101144313812256, -0.5680772066116333, 10.656633377075195, 2.6646978855133057, 2.043250799179077, 30.74559211730957, -13.241385459899902, 37.32889938354492, -2.16357421875, 0.362548828125, 0.255615234375, 0, 
248, 1052028745, 0.44591039419174194, -0.4707113206386566, -0.5103020071983337, -0.5649715662002563, 10.558207511901855, 2.917379856109619, 2.558065176010132, 28.952253341674805, -19.334476470947266, 45.47817611694336, -2.1640625, 0.366943359375, 0.2548828125, 0, 
249, 1052037078, 0.44821038842201233, -0.47286927700042725, -0.5105879306793213, -0.561077892780304, 11.051778793334961, 3.0240468978881836, 2.1333634853363037, 32.315250396728516, -28.94610595703125, 55.38356018066406, -2.162109375, 0.381103515625, 0.259765625, 0, 
250, 1052045411, 0.45067423582077026, -0.475693941116333, -0.5108323097229004, -0.5564752221107483, 11.611931800842285, 3.2281880378723145, 2.0082061290740967, 33.930782318115234, -37.285640716552734, 66.0140609741211, -2.15625, 0.396728515625, 0.263427734375, 0, 
251, 1052053744, 0.4534185826778412, -0.47902199625968933, -0.5109565258026123, -0.5512523651123047, 12.546987533569336, 3.3161842823028564, 1.7894039154052734, 36.082786560058594, -42.492942810058594, 76.29053497314453, -2.156494140625, 0.414306640625, 0.274658203125, 0, 
252, 1052062077, 0.45711493492126465, -0.48233893513679504, -0.5107373595237732, -0.5454802513122559, 12.83488941192627, 3.3811538219451904, 1.009999394416809, 43.678504943847656, -37.184139251708984, 89.15076446533203, -2.158203125, 0.435791015625, 0.280029296875, 0, 
253, 1052070410, 0.46180248260498047, -0.4856828451156616, -0.5101299285888672, -0.539095938205719, 13.629660606384277, 3.4828176498413086, 0.1255299597978592, 51.47220993041992, -32.05928421020508, 103.16944122314453, -2.15576171875, 0.460693359375, 0.281005859375, 0, 
254, 1052078743, 0.46778249740600586, -0.4888386130332947, -0.508943498134613, -0.5321646332740784, 14.08393383026123, 3.4492082595825195, -0.2364388406276703, 60.844181060791016, -21.560028076171875, 118.80431365966797, -2.156005859375, 0.48876953125, 0.28369140625, 0, 
255, 1052087076, 0.4747975468635559, -0.49210628867149353, -0.507003664970398, -0.5247401595115662, 14.520746231079102, 3.569729804992676, -0.6856830716133118, 65.01925659179688, -13.6181058883667, 135.37265014648438, -2.153564453125, 0.517578125, 0.28271484375, 0, 
256, 1052095409, 0.48312830924987793, -0.49541276693344116, -0.5040601491928101, -0.516800582408905, 15.101119041442871, 3.625932216644287, -1.3126306533813477, 70.02010345458984, -1.6413252353668213, 155.3212890625, -2.156494140625, 0.556884765625, 0.278564453125, 0, 
257, 1052103742, 0.4924840033054352, -0.4989727735519409, -0.5000600814819336, -0.5083618760108948, 15.321956634521484, 3.651284694671631, -1.9109381437301636, 71.26984405517578, 7.26582145690918, 174.8578338623047, -2.14892578125, 0.59375, 0.275634765625, 0, 
258, 1052112075, 0.5024567246437073, -0.5032423734664917, -0.4948444366455078, -0.4994191527366638, 15.945930480957031, 3.8745622634887695, -2.041008949279785, 65.66537475585938, 11.33742904663086, 195.82614135742188, -2.148193359375, 0.639892578125, 0.259765625, 0, 
259, 1052120408, 0.5124096274375916, -0.5088580846786499, -0.4882584810256958, -0.49001017212867737, 17.152854919433594, 4.558753967285156, -1.56611168384552, 49.9822883605957, 8.187756538391113, 217.54637145996094, -2.144775390625, 0.689697265625, 0.243408203125, 0, 
260, 1052128741, 0.5218831300735474, -0.5162257552146912, -0.4797487258911133, -0.48062098026275635, 18.54314613342285, 6.03300142288208, -0.2963367998600006, 21.193029403686523, 6.869101047515869, 239.4159393310547, -2.137939453125, 0.742431640625, 0.23388671875, 0, 
261, 1052137074, 0.5306533575057983, -0.525664746761322, -0.46862897276878357, -0.47167423367500305, 20.478174209594727, 7.399566173553467, -0.33914998173713684, -18.835233688354492, 10.403312683105469, 263.7870178222656, -2.125244140625, 0.791748046875, 0.224853515625, 0, 
262, 1052145407, 0.5394534468650818, -0.5366467237472534, -0.45461857318878174, -0.46295595169067383, 22.00170135498047, 8.754631996154785, -1.413690209388733, -50.10478210449219, 23.342327117919922, 293.16107177734375, -2.1162109375, 0.8447265625, 0.214599609375, 0, 
263, 1052153740, 0.5500488877296448, -0.5476846694946289, -0.4378505051136017, -0.45363104343414307, 22.342723846435547, 9.77234172821045, -3.734454393386841, -51.0369987487793, 50.18794250488281, 329.82073974609375, -2.1005859375, 0.900634765625, 0.20361328125, 0, 
264, 1052162073, 0.5633242130279541, -0.5580597519874573, -0.4196167588233948, -0.441772997379303, 23.441932678222656, 10.966236114501953, -5.275788307189941, -19.726423263549805, 62.47532272338867, 372.7393493652344, -2.073486328125, 0.973876953125, 0.18017578125, 0, 
265, 1052170406, 0.5792096853256226, -0.5675645470619202, -0.3999345898628235, -0.42713606357574463, 24.980859756469727, 10.283018112182617, -6.5245890617370605, 14.288654327392578, 72.7242660522461, 416.28485107421875, -2.04443359375, 1.056396484375, 0.154296875, 0, 
266, 1052178739, 0.5971373319625854, -0.5759090781211853, -0.3775767683982849, -0.41133660078048706, 25.901777267456055, 8.35235595703125, -7.419318199157715, 30.147680282592773, 103.013916015625, 452.01239013671875, -2.007080078125, 1.140625, 0.11669921875, 0, 
267, 1052187072, 0.6153019070625305, -0.5836232900619507, -0.35381752252578735, -0.3944701552391052, 28.87215232849121, 6.709405899047852, -7.731033802032471, 34.80542755126953, 110.89024353027344, 470.03155517578125, -1.955810546875, 1.225341796875, 0.073974609375, 0, 
268, 1052195405, 0.6345838308334351, -0.589142382144928, -0.32837268710136414, -0.3773488402366638, 28.35806655883789, 2.955256700515747, -4.5829949378967285, 54.457008361816406, 140.44189453125, 481.0275573730469, -1.898193359375, 1.308837890625, 0.028564453125, 0, 
269, 1052203738, 0.6503728032112122, -0.5955385565757751, -0.30203744769096375, -0.3621167242527008, 27.509191513061523, 0.6633234620094299, -2.554295778274536, 5.350554466247559, 143.22010803222656, 457.6898193359375, -1.832763671875, 1.3857421875, -0.022705078125, 0, 
270, 1052212071, 0.6623732447624207, -0.6036536693572998, -0.2773345410823822, -0.34634608030319214, 29.353788375854492, 2.0180795192718506, -2.530305862426758, -30.696874618530273, 99.87487030029297, 437.28314208984375, -1.771240234375, 1.453125, -0.052001953125, 0, 
271, 1052220404, 0.67237389087677, -0.6117963790893555, -0.2494787573814392, -0.3337440490722656, 26.783855438232422, 4.885946273803711, -2.8426895141601562, -74.64720916748047, 147.182861328125, 425.3152770996094, -1.69482421875, 1.5107421875, -0.0771484375, 0, 
272, 1052228737, 0.6790661215782166, -0.6218796372413635, -0.22000545263290405, -0.3220852315425873, 21.10945701599121, 10.463159561157227, -7.5317816734313965, -131.10641479492188, 149.7840118408203, 421.5393371582031, -1.62890625, 1.55615234375, -0.095703125, 0, 
273, 1052237070, 0.6881404519081116, -0.6292401552200317, -0.1927032470703125, -0.3055996894836426, 17.206806182861328, 13.395434379577637, -13.115887641906738, -61.064857482910156, 107.53163146972656, 450.5386962890625, -1.547119140625, 1.596435546875, -0.108642578125, 0, 
274, 1052245403, 0.6985235214233398, -0.6349639892578125, -0.1707923859357834, -0.28235065937042236, 15.872722625732422, 6.909990310668945, -10.055912971496582, 6.328159809112549, 8.276114463806152, 468.8827209472656, -1.4580078125, 1.641845703125, -0.1279296875, 0, 
275, 1052253736, 0.708786129951477, -0.6356216669082642, -0.1515730321407318, -0.2657802700996399, -4.503769397735596, 1.4821085929870605, -12.333439826965332, 48.7328987121582, 60.18400192260742, 369.02783203125, -1.368408203125, 1.673095703125, -0.150390625, 0, 
276, 1052262069, 0.7093102335929871, -0.6396178603172302, -0.14259207248687744, -0.25969570875167847, -27.48084259033203, 11.7157564163208, -10.085874557495117, -53.3950080871582, 19.484811782836914, 148.44534301757812, -1.31982421875, 1.689453125, -0.159912109375, 0, 
277, 1052270402, 0.7190629839897156, -0.6301538944244385, -0.15040500462055206, -0.25147387385368347, 2.5496792793273926, 13.444574356079102, -12.248183250427246, 223.29469299316406, -96.90139770507812, 28.35675048828125, -1.301513671875, 1.683349609375, -0.18115234375, 0, 
278, 1052278735, 0.7235310673713684, -0.6208005547523499, -0.15900997817516327, -0.2565770745277405, 23.702817916870117, 12.315876960754395, 9.527594566345215, 151.52845764160156, -0.634947657585144, -128.5351104736328, -1.3115234375, 1.668212890625, -0.22705078125, 0, 
279, 1052287068, 0.7209248542785645, -0.6165459752082825, -0.16202795505523682, -0.27182990312576294, 3.7808852195739746, 20.152759552001953, -5.677175521850586, -1.4481385946273804, 108.22561645507812, -195.4460906982422, -1.3515625, 1.631591796875, -0.244384765625, 0, 
280, 1052295401, 0.719698965549469, -0.6113634705543518, -0.16817066073417664, -0.2828303277492523, 2.1140034198760986, 15.382309913635254, -6.537360191345215, 40.55324172973633, 47.656463623046875, -176.87997436523438, -1.38525390625, 1.603515625, -0.259521484375, 0, 
281, 1052303734, 0.7192935347557068, -0.6061548590660095, -0.1743907779455185, -0.2911826968193054, 0.2438025176525116, 9.24567699432373, -4.730146408081055, 54.17031478881836, 26.70588493347168, -147.96742248535156, -1.4169921875, 1.57373046875, -0.2734375, 0, 
282, 1052312067, 0.7189088463783264, -0.6020345091819763, -0.18270054459571838, -0.2955527901649475, -2.8361542224884033, 6.176230430603027, -4.345379829406738, 61.45943069458008, -31.546611785888672, -123.52473449707031, -1.445556640625, 1.5458984375, -0.287353515625, 0, 
283, 1052320400, 0.7175379991531372, -0.5990649461746216, -0.19366835057735443, -0.29792505502700806, -2.241220474243164, 7.889100074768066, -3.496371030807495, 57.78647994995117, -81.43573760986328, -126.66788482666016, -1.466796875, 1.519287109375, -0.285400390625, 0, 
284, 1052328733, 0.7153526544570923, -0.5960119366645813, -0.20581172406673431, -0.30114519596099854, 0.07604043185710907, 8.650320053100586, -2.362410306930542, 54.41366958618164, -87.9627914428711, -148.50709533691406, -1.494873046875, 1.48388671875, -0.28662109375, 0, 
285, 1052337066, 0.7116666436195374, -0.5930345058441162, -0.2187667191028595, -0.3065750002861023, 1.8716776371002197, 9.40709114074707, -1.0282865762710571, 38.522544860839844, -82.30888366699219, -182.6809844970703, -1.525390625, 1.4541015625, -0.285888671875, 0, 
286, 1052345399, 0.7065003514289856, -0.5898616313934326, -0.23144277930259705, -0.3152162730693817, 2.6239309310913086, 9.734777450561523, -0.5826780796051025, 17.48006248474121, -57.10719680786133, -218.88499450683594, -1.55810546875, 1.417724609375, -0.276123046875, 0, 
287, 1052353732, 0.7000674605369568, -0.5865330100059509, -0.24413549900054932, -0.3260195255279541, 2.2502286434173584, 9.351685523986816, -1.3149158954620361, 1.950951099395752, -42.99430847167969, -245.79449462890625, -1.593505859375, 1.369873046875, -0.27197265625, 0, 
288, 1052362065, 0.6926447749137878, -0.5832287073135376, -0.25747156143188477, -0.3373459577560425, 2.0376172065734863, 8.540371894836426, -1.6126748323440552, -5.178826808929443, -48.492149353027344, -260.59954833984375, -1.6318359375, 1.32666015625, -0.261962890625, 0, 
289, 1052370398, 0.684515655040741, -0.5799510478973389, -0.2716193199157715, -0.3483165204524994, 2.066883087158203, 7.6670050621032715, -1.8492956161499023, -6.041285991668701, -61.613834381103516, -266.67742919921875, -1.67236328125, 1.27294921875, -0.24951171875, 0, 
290, 1052378731, 0.6757507920265198, -0.5767518281936646, -0.28662312030792236, -0.35856902599334717, 2.8359427452087402, 7.287876129150391, -1.745521068572998, -5.099533557891846, -78.24046325683594, -269.72406005859375, -1.70654296875, 1.220947265625, -0.230712890625, 0, 
291, 1052387064, 0.6662877202033997, -0.573657751083374, -0.30219581723213196, -0.36832261085510254, 3.8311305046081543, 7.350594997406006, -1.444032907485962, -6.815751552581787, -90.66519927978516, -272.4025573730469, -1.737060546875, 1.168701171875, -0.218994140625, 0, 
292, 1052395397, 0.6560783982276917, -0.570624053478241, -0.3179847300052643, -0.3779439330101013, 4.9587860107421875, 7.482432842254639, -1.0167220830917358, -11.637940406799316, -97.18850708007812, -276.65374755859375, -1.77001953125, 1.11181640625, -0.195068359375, 0, 
293, 1052403730, 0.6449187994003296, -0.5676078200340271, -0.33393174409866333, -0.3878105878829956, 5.864645004272461, 7.578315258026123, -0.7330992817878723, -19.48368263244629, -100.84159088134766, -284.7394714355469, -1.793701171875, 1.05419921875, -0.1669921875, 0, 
294, 1052412063, 0.6327667832374573, -0.5643802285194397, -0.35002344846725464, -0.39821016788482666, 6.831806182861328, 7.644461154937744, -0.44911178946495056, -27.052303314208984, -101.4905014038086, -297.0928649902344, -1.81689453125, 0.9921875, -0.140625, 0, 
295, 1052420396, 0.6196840405464172, -0.5607039928436279, -0.36626118421554565, -0.40922117233276367, 7.706329345703125, 7.468772888183594, -0.5941970348358154, -32.49129867553711, -99.94982147216797, -310.5684814453125, -1.8369140625, 0.935302734375, -0.10986328125, 0, 
296, 1052428729, 0.6058527827262878, -0.5565321445465088, -0.38284116983413696, -0.42030155658721924, 8.42533016204834, 7.321815490722656, -0.6810528039932251, -32.48897171020508, -103.4040756225586, -320.7491760253906, -1.855712890625, 0.875, -0.0791015625, 0, 
297, 1052437062, 0.5911599397659302, -0.5520079135894775, -0.3998333513736725, -0.4312271475791931, 9.471464157104492, 6.707615852355957, -0.5647695064544678, -32.93439483642578, -110.42986297607422, -329.20452880859375, -1.871337890625, 0.813720703125, -0.046630859375, 0, 
298, 1052445395, 0.575812578201294, -0.5470432639122009, -0.41723015904426575, -0.4417114555835724, 10.819710731506348, 6.909986972808838, -1.0239005088806152, -29.51051902770996, -118.15167236328125, -335.2405090332031, -1.882080078125, 0.752685546875, -0.012939453125, 0, 
299, 1052453728, 0.5602774024009705, -0.5412628650665283, -0.43528318405151367, -0.4512854814529419, 12.695125579833984, 6.487947940826416, -1.0424511432647705, -15.23523235321045, -126.2296142578125, -338.53997802734375, -1.8935546875, 0.6865234375, 0.026123046875, 0, 
300, 1052462061, 0.5436542630195618, -0.5351396799087524, -0.4531756639480591, -0.461198091506958, 14.763490676879883, 5.996985912322998, -0.2437930703163147, -23.735538482666016, -126.94654083251953, -349.0123596191406, -1.89404296875, 0.624755859375, 0.062255859375, 0, 
301, 1052470394, 0.5265660285949707, -0.5279770493507385, -0.4707345962524414, -0.47157585620880127, 15.65558910369873, 6.155119895935059, -0.8514720797538757, -24.3843994140625, -117.24983978271484, -359.20684814453125, -1.88916015625, 0.558837890625, 0.09326171875, 0, 
302, 1052478727, 0.5092054605484009, -0.5196656584739685, -0.48853805661201477, -0.4816579818725586, 17.223609924316406, 5.697734355926514, -0.6571898460388184, -14.559558868408203, -115.56696319580078, -368.30706787109375, -1.879150390625, 0.49462890625, 0.11865234375, 0, 
303, 1052487060, 0.49110209941864014, -0.510420024394989, -0.5062035322189331, -0.49199044704437256, 18.816144943237305, 5.307702541351318, -0.4383474588394165, -15.904415130615234, -111.52719116210938, -380.00726318359375, -1.86083984375, 0.435791015625, 0.136962890625, 0, 
304, 1052495393, 0.4727036654949188, -0.5003148317337036, -0.5237324237823486, -0.5019435286521912, 20.342227935791016, 5.52501106262207, -0.7879301905632019, -10.471835136413574, -109.59349060058594, -384.7345886230469, -1.846435546875, 0.383544921875, 0.157470703125, 0, 
305, 1052503726, 0.4538864195346832, -0.48968178033828735, -0.5406288504600525, -0.5117866396903992, 22.889249801635742, 5.845174312591553, -0.5483302474021912, -13.476325035095215, -105.5262222290039, -386.0950927734375, -1.83154296875, 0.3427734375, 0.167236328125, 0, 
306, 1052512059, 0.4346334636211395, -0.4785522520542145, -0.5562953352928162, -0.5221334099769592, 24.951255798339844, 6.273153781890869, -0.4914126396179199, -25.731769561767578, -94.28569793701172, -387.97894287109375, -1.82763671875, 0.3115234375, 0.184814453125, 0, 
307, 1052520392, 0.4150850176811218, -0.46680372953414917, -0.5706303715705872, -0.5330909490585327, 26.144412994384766, 6.409183025360107, -0.9184486269950867, -38.195556640625, -80.04131317138672, -389.465087890625, -1.839599609375, 0.283935546875, 0.208740234375, 0, 
308, 1052528725, 0.39517828822135925, -0.45458847284317017, -0.5837565660476685, -0.5444428324699402, 27.048633575439453, 5.72168493270874, -1.7416906356811523, -49.80473327636719, -70.07954406738281, -390.50421142578125, -1.869873046875, 0.2451171875, 0.25439453125, 0, 
309, 1052537058, 0.37529993057250977, -0.4421103596687317, -0.5967281460762024, -0.5546260476112366, 26.351280212402344, 3.243316411972046, -2.133356809616089, -39.96833801269531, -74.27892303466797, -384.82879638671875, -1.896728515625, 0.200439453125, 0.31494140625, 0, 
310, 1052545391, 0.3560260534286499, -0.43040066957473755, -0.6107074022293091, -0.5612872838973999, 27.15680694580078, 0.2737825810909271, -2.9346909523010254, -3.6717207431793213, -101.86569213867188, -362.10693359375, -1.91064453125, 0.117919921875, 0.3837890625, 0, 
311, 1052553724, 0.3369540572166443, -0.41977670788764954, -0.6254290342330933, -0.5648843050003052, 30.223079681396484, -3.555196523666382, -3.0231685638427734, 23.68682289123535, -130.2542724609375, -340.5791320800781, -1.892333984375, 0.035888671875, 0.443359375, 0, 
312, 1052562057, 0.3182896375656128, -0.41021159291267395, -0.6400561928749084, -0.5663502812385559, 32.97920227050781, -7.633934497833252, -2.2877602577209473, 38.714866638183594, -146.90757751464844, -318.12298583984375, -1.852783203125, -0.044677734375, 0.491943359375, 0, 
313, 1052570390, 0.29994267225265503, -0.4014759361743927, -0.6531704664230347, -0.5676496028900146, 34.54352951049805, -11.084210395812988, 0.351326584815979, 26.570178985595703, -144.82196044921875, -298.8660583496094, -1.803955078125, -0.111083984375, 0.516845703125, 0, 
314, 1052578723, 0.28266823291778564, -0.39339062571525574, -0.6645019054412842, -0.5690221190452576, 32.49653625488281, -13.921854972839355, 2.9788947105407715, 15.220914840698242, -132.57167053222656, -275.3192443847656, -1.75390625, -0.153564453125, 0.52099609375, 0, 
315, 1052587056, 0.26773637533187866, -0.3859787583351135, -0.675063967704773, -0.5688872933387756, 29.4719295501709, -17.912193298339844, 4.607612133026123, 33.03604507446289, -121.5374526977539, -240.64207458496094, -1.713134765625, -0.185791015625, 0.524658203125, 0, 
316, 1052595389, 0.2545264661312103, -0.379524827003479, -0.6845503449440002, -0.5679564476013184, 28.50002670288086, -23.905811309814453, 5.966231346130371, 37.617496490478516, -113.36682891845703, -209.79656982421875, -1.68212890625, -0.206787109375, 0.522705078125, 0, 
317, 1052603722, 0.2441025972366333, -0.3736701011657715, -0.6928808689117432, -0.5663100481033325, 27.418685913085938, -30.024303436279297, 6.1847310066223145, 47.775047302246094, -91.46762084960938, -173.74827575683594, -1.662353515625, -0.2236328125, 0.527587890625, 0, 
318, 1052612055, 0.23647929728031158, -0.3693109154701233, -0.6998522281646729, -0.5638264417648315, 23.906166076660156, -37.97087860107422, 8.704667091369629, 54.53265380859375, -76.20811462402344, -127.99859619140625, -1.6494140625, -0.22998046875, 0.52880859375, 0, 
319, 1052620388, 0.229679137468338, -0.36822566390037537, -0.7039945125579834, -0.5621880292892456, 23.133800506591797, -40.92668151855469, 11.687146186828613, 17.994524002075195, -80.15614318847656, -78.4439926147461, -1.64208984375, -0.23193359375, 0.540771484375, 0, 
320, 1052628721, 0.2258027344942093, -0.3696467876434326, -0.7055413722991943, -0.5608850121498108, 26.315153121948242, -38.79642105102539, 13.635358810424805, 1.571682333946228, -61.35231018066406, -19.536176681518555, -1.636474609375, -0.230712890625, 0.547119140625, 0, 
321, 1052637054, 0.22639323770999908, -0.3719167113304138, -0.7042132616043091, -0.5608155131340027, 27.490705490112305, -35.574832916259766, 13.557233810424805, -12.508267402648926, -9.363269805908203, 33.909690856933594, -1.641845703125, -0.217529296875, 0.553955078125, 0, 
322, 1052645387, 0.23086261749267578, -0.37451112270355225, -0.6998605132102966, -0.5627124309539795, 24.560014724731445, -31.175264358520508, 11.846456527709961, -36.041748046875, 45.17161560058594, 76.33944702148438, -1.642822265625, -0.208740234375, 0.548828125, 0, 
323, 1052653720, 0.23748357594013214, -0.37844353914260864, -0.6932492852210999, -0.5655032396316528, 21.328340530395508, -26.956769943237305, 9.387775421142578, -55.30140686035156, 67.26885986328125, 114.56531524658203, -1.6630859375, -0.185546875, 0.54296875, 0, 
324, 1052662053, 0.24173563718795776, -0.391044944524765, -0.683393657207489, -0.5671221017837524, 49.50657653808594, 4.166882514953613, 0.14143165946006775, -109.98899841308594, -18.20295524597168, 199.6015625, -1.671630859375, -0.165283203125, 0.54296875, 0, 
325, 1052670386, 0.2668039798736572, -0.3828715980052948, -0.6664479970932007, -0.5814451575279236, 1.970414638519287, 16.786060333251953, -0.5937470197677612, -103.699951171875, 431.3648681640625, 162.47372436523438, -1.701171875, -0.150390625, 0.503173828125, 0, 
326, 1052678719, 0.27247339487075806, -0.3999626040458679, -0.6495836973190308, -0.5863747596740723, -3.2572031021118164, 36.51869583129883, -19.671613693237305, -211.78213500976562, 1.777161717414856, 273.0879211425781, -1.744873046875, -0.13037109375, 0.4580078125, 0, 
327, 1052687052, 0.280806303024292, -0.4256490170955658, -0.6508902311325073, -0.5624223351478577, 7.110023498535156, 31.737085342407227, 3.284261703491211, 175.2267608642578, -270.7854919433594, 379.52044677734375, -1.736083984375, -0.067626953125, 0.500732421875, 0, 
328, 1052695385, 0.30557185411453247, -0.4417293667793274, -0.6401969790458679, -0.5492312908172607, 22.763315200805664, -7.812211990356445, 6.079763889312744, 119.3695068359375, 60.040130615234375, 449.475341796875, -1.746337890625, 0.021240234375, 0.518310546875, 0, 
329, 1052703718, 0.3253266215324402, -0.45391738414764404, -0.6213496923446655, -0.5495928525924683, 23.957265853881836, -20.884061813354492, 2.8732080459594727, -75.64885711669922, 161.88580322265625, 369.8069763183594, -1.7763671875, 0.09326171875, 0.49755859375, 0, 
330, 1052712051, 0.34260454773902893, -0.45903629064559937, -0.6061257719993591, -0.5518382787704468, 17.20921516418457, -6.473556995391846, -1.4224296808242798, -48.18389129638672, 189.7305908203125, 259.71868896484375, -1.804931640625, 0.136962890625, 0.460693359375, 0, 
331, 1052720384, 0.3528372049331665, -0.4649372100830078, -0.5937497019767761, -0.5539015531539917, 13.962389945983887, 4.534502029418945, -2.312767744064331, -73.22019958496094, 110.4443130493164, 195.49842834472656, -1.822265625, 0.170654296875, 0.439697265625, 0, 
332, 1052728717, 0.3624556362628937, -0.47027939558029175, -0.5809560418128967, -0.5567401051521301, 14.08795166015625, 2.4743576049804688, -4.5290632247924805, -83.93777465820312, 116.71815490722656, 185.30587768554688, -1.83056640625, 0.195556640625, 0.41845703125, 0, 
333, 1052737050, 0.3677181601524353, -0.4759519398212433, -0.5660015940666199, -0.563827633857727, 11.510235786437988, -1.4179141521453857, -2.3952622413635254, -164.26210021972656, 117.59471130371094, 147.2480926513672, -1.84765625, 0.2119140625, 0.393310546875, 0, 
334, 1052745383, 0.3723757266998291, -0.4792519509792328, -0.5539152026176453, -0.5699459910392761, 12.286771774291992, -1.000329613685608, -3.1287615299224854, -126.42423248291016, 110.47486877441406, 110.35919952392578, -1.857421875, 0.218505859375, 0.373779296875, 0, 
335, 1052753716, 0.3760838508605957, -0.48052406311035156, -0.5455723404884338, -0.5744690895080566, 11.523963928222656, -2.0937957763671875, -0.5489177703857422, -80.81290435791016, 89.41992950439453, 70.82078552246094, -1.86328125, 0.228515625, 0.353271484375, 0, 
336, 1052762049, 0.37896808981895447, -0.48068106174468994, -0.540346622467041, -0.5773740410804749, 9.915749549865723, 0.13510145246982574, 1.1680223941802979, -43.71445846557617, 65.26692199707031, 43.86224365234375, -1.87060546875, 0.232177734375, 0.337646484375, 0, 
337, 1052770382, 0.38100558519363403, -0.48058679699897766, -0.5369024276733398, -0.5793212652206421, 9.887694358825684, 0.9876204133033752, 0.20134270191192627, -26.744470596313477, 45.32474899291992, 28.338333129882812, -1.88134765625, 0.230224609375, 0.32763671875, 0, 
338, 1052778715, 0.38250255584716797, -0.48055845499038696, -0.5329961776733398, -0.5819595456123352, 9.673020362854004, 2.544886827468872, -0.15774229168891907, -39.44110107421875, 47.82548522949219, 24.099897384643555, -1.881103515625, 0.237060546875, 0.318115234375, 0, 
339, 1052787048, 0.3849222660064697, -0.48017117381095886, -0.5301880836486816, -0.5832473039627075, 8.709817886352539, 2.4758265018463135, 1.144263744354248, -12.77238941192627, 42.73293685913086, 28.55800437927246, -1.883544921875, 0.239013671875, 0.30859375, 0, 
340, 1052795381, 0.38692155480384827, -0.4801863729953766, -0.5278850793838501, -0.584000289440155, 9.574318885803223, 2.0760910511016846, 0.08377068489789963, -9.723588943481445, 30.262229919433594, 27.756742477416992, -1.885986328125, 0.243896484375, 0.301513671875, 0, 
341, 1052803714, 0.3878832757472992, -0.48070886731147766, -0.5253141522407532, -0.5852495431900024, 9.838434219360352, 2.555098056793213, -0.42149990797042847, -25.031444549560547, 23.333538055419922, 22.09941864013672, -1.890869140625, 0.245849609375, 0.2958984375, 0, 
342, 1052812047, 0.38958853483200073, -0.48104262351989746, -0.5231176614761353, -0.5858097672462463, 9.561573028564453, 2.673081398010254, 0.05930241942405701, -11.116540908813477, 23.696435928344727, 28.057315826416016, -1.891357421875, 0.246337890625, 0.28955078125, 0, 
343, 1052820380, 0.3906491994857788, -0.48180320858955383, -0.5208431482315063, -0.5865046381950378, 9.24911117553711, 1.85099196434021, 0.6105945706367493, -19.26517677307129, 16.90791130065918, 25.595733642578125, -1.892578125, 0.251220703125, 0.284423828125, 0, 
344, 1052828713, 0.39199960231781006, -0.4825257956981659, -0.5193233489990234, -0.5863572359085083, 9.883357048034668, 2.146547794342041, -0.010988634079694748, -5.021444320678711, 9.677871704101562, 27.31928062438965, -1.8974609375, 0.255615234375, 0.280029296875, 0, 
345, 1052837046, 0.39307838678359985, -0.4834091067314148, -0.5177228450775146, -0.5863227248191833, 9.946748733520508, 2.58597469329834, -0.6126350164413452, -9.147130966186523, 7.601528644561768, 26.075218200683594, -1.894287109375, 0.258056640625, 0.283203125, 0, 
346, 1052845379, 0.394386887550354, -0.4841330349445343, -0.5161201357841492, -0.5862597823143005, 9.869112968444824, 2.0981149673461914, 0.15323103964328766, -6.5718488693237305, 10.367842674255371, 27.089828491210938, -1.8955078125, 0.264404296875, 0.279296875, 0, 
347, 1052853712, 0.39551275968551636, -0.4849306344985962, -0.5148001313209534, -0.5860027074813843, 9.23045539855957, 1.8912440538406372, 0.7910466194152832, -4.524500846862793, 5.634251117706299, 25.18865966796875, -1.896728515625, 0.269287109375, 0.27783203125, 0, 
348, 1052862045, 0.3962889015674591, -0.4858923852443695, -0.5136829018592834, -0.5856620669364929, 9.843626022338867, 1.9111037254333496, 0.19053004682064056, -5.53021764755249, 0.1931954175233841, 22.7569637298584, -1.896484375, 0.273681640625, 0.27587890625, 0, 
349, 1052870378, 0.39705222845077515, -0.4868068993091583, -0.5126676559448242, -0.5852749347686768, 9.411314964294434, 2.048201560974121, 0.3608928620815277, -4.210572719573975, -0.40229737758636475, 21.773557662963867, -1.89453125, 0.27490234375, 0.274169921875, 0, 
350, 1052878711, 0.3976495862007141, -0.4878005087375641, -0.5117976069450378, -0.5848035216331482, 9.838300704956055, 2.0108540058135986, 0.1382254660129547, -3.988957405090332, -3.546241044998169, 20.601884841918945, -1.895263671875, 0.279296875, 0.270751953125, 0, 
351, 1052887044, 0.3983295261859894, -0.48869675397872925, -0.511083722114563, -0.5842165946960449, 9.565317153930664, 2.0166351795196533, -0.17548681795597076, -0.8336924314498901, -3.8298163414001465, 20.05166244506836, -1.891357421875, 0.282958984375, 0.270751953125, 0, 
352, 1052895377, 0.39900895953178406, -0.4894951581954956, -0.510412335395813, -0.5836712718009949, 10.634699821472168, 2.06980562210083, -0.8100603222846985, -0.2523515224456787, -2.981036901473999, 18.96010971069336, -1.89453125, 0.28369140625, 0.274658203125, 0, 
353, 1052903710, 0.39982685446739197, -0.49000483751296997, -0.5098053216934204, -0.5832138657569885, 9.607306480407715, 1.9100898504257202, -0.3920949399471283, 2.167233943939209, 0.5288700461387634, 17.018936157226562, -1.896728515625, 0.29052734375, 0.26513671875, 0, 
354, 1052912043, 0.4006480574607849, -0.4903741478919983, -0.509174644947052, -0.5828907489776611, 9.648688316345215, 1.939590573310852, -0.10676142573356628, 1.8268970251083374, 2.7297990322113037, 15.592987060546875, -1.8974609375, 0.2900390625, 0.27392578125, 0, 
355, 1052920376, 0.4013594388961792, -0.49080294370651245, -0.5085541605949402, -0.5825821161270142, 9.496978759765625, 1.852007269859314, 0.07184000313282013, 0.7382408380508423, 1.5096137523651123, 14.875689506530762, -1.896240234375, 0.29248046875, 0.267578125, 0, 
356, 1052928709, 0.4020613431930542, -0.49115654826164246, -0.5080437660217285, -0.582245409488678, 9.317256927490234, 1.8894144296646118, -0.0947009027004242, 2.168360948562622, 1.2655613422393799, 13.791259765625, -1.89599609375, 0.298583984375, 0.264892578125, 0, 
357, 1052937042, 0.40269801020622253, -0.49153047800064087, -0.5075798630714417, -0.5818945169448853, 9.80187702178955, 1.9648152589797974, -0.2838417887687683, 2.089442729949951, 0.2755451500415802, 13.072135925292969, -1.8955078125, 0.298095703125, 0.26806640625, 0, 
358, 1052945375, 0.40337926149368286, -0.4919039309024811, -0.5070561766624451, -0.5815635323524475, 9.843635559082031, 2.142564535140991, -0.28977087140083313, 1.7709298133850098, 1.076476812362671, 13.823224067687988, -1.89599609375, 0.298095703125, 0.264892578125, 0, 
359, 1052953708, 0.4039798974990845, -0.49236422777175903, -0.5064384937286377, -0.5812951326370239, 9.75718879699707, 1.9817166328430176, -0.15157413482666016, -0.4363898038864136, 0.7451566457748413, 13.974245071411133, -1.899658203125, 0.29931640625, 0.26171875, 0, 
360, 1052962041, 0.40475261211395264, -0.4928063452243805, -0.5059276223182678, -0.5808277130126953, 9.619088172912598, 1.8260421752929688, 0.3634396493434906, 3.062528133392334, 0.16576255857944489, 15.702207565307617, -1.896484375, 0.30615234375, 0.260498046875, 0, 
361, 1052970374, 0.4054100215435028, -0.4933850169181824, -0.5054347515106201, -0.580306887626648, 9.616083145141602, 1.7446439266204834, 0.27849701046943665, 2.035627841949463, -2.2043869495391846, 15.814910888671875, -1.89453125, 0.306640625, 0.263671875, 0, 
362, 1052978707, 0.4063214659690857, -0.49385982751846313, -0.5050235986709595, -0.5796231627464294, 9.898046493530273, 1.9696296453475952, -0.020943226292729378, 6.124711036682129, -1.1573538780212402, 17.565698623657227, -1.896484375, 0.31298828125, 0.26025390625, 0, 
363, 1052987040, 0.40730831027030945, -0.49432528018951416, -0.5045166611671448, -0.5789746642112732, 10.05633544921875, 1.8465182781219482, -0.04365651682019234, 5.680278301239014, 0.20023934543132782, 18.465883255004883, -1.8974609375, 0.316650390625, 0.25830078125, 0, 
364, 1052995373, 0.40841424465179443, -0.4947583079338074, -0.5039570927619934, -0.5783126950263977, 9.753650665283203, 1.8840155601501465, -0.3657837212085724, 6.346146583557129, 1.5045421123504639, 19.712350845336914, -1.8955078125, 0.322998046875, 0.25634765625, 0, 
365, 1053003706, 0.4097532331943512, -0.4951294958591461, -0.5035358667373657, -0.5774140357971191, 9.658828735351562, 1.662962555885315, -0.2206968367099762, 11.017393112182617, 1.2095688581466675, 21.43885612487793, -1.89990234375, 0.322998046875, 0.2578125, 0, 
366, 1053012039, 0.41105926036834717, -0.4955795109272003, -0.503212571144104, -0.5763805508613586, 9.647186279296875, 1.5361393690109253, 0.24408358335494995, 12.062966346740723, -1.0996452569961548, 21.902780532836914, -1.89794921875, 0.327392578125, 0.257568359375, 0, 
367, 1053020372, 0.4121817350387573, -0.49617964029312134, -0.5027809739112854, -0.5754384994506836, 9.938212394714355, 1.8507161140441895, 0.07191649079322815, 8.4701566696167, -2.3376073837280273, 21.62430191040039, -1.895263671875, 0.336669921875, 0.251708984375, 0, 
368, 1053028705, 0.4138500392436981, -0.49647223949432373, -0.5024175643920898, -0.5743051171302795, 10.097146987915039, 1.9764899015426636, -0.2584074139595032, 15.800676345825195, 2.1919267177581787, 24.520462036132812, -1.899658203125, 0.334228515625, 0.250732421875, 0, 
369, 1053037038, 0.41573667526245117, -0.49658849835395813, -0.5020431280136108, -0.573168158531189, 9.867243766784668, 1.5341962575912476, -0.18677785992622375, 18.237592697143555, 5.116819381713867, 25.041635513305664, -1.89453125, 0.34716796875, 0.2509765625, 0, 
370, 1053045371, 0.41770505905151367, -0.49670523405075073, -0.5017759799957275, -0.571868360042572, 9.463028907775879, 1.5297108888626099, -0.08258559554815292, 20.758834838867188, 3.965791940689087, 25.965856552124023, -1.89501953125, 0.346435546875, 0.242919921875, 0, 
371, 1053053704, 0.4195598363876343, -0.4969302713871002, -0.5016239285469055, -0.5704467296600342, 9.50025463104248, 1.3702392578125, 0.44090843200683594, 21.104700088500977, 0.8227683305740356, 25.65648078918457, -1.898681640625, 0.35546875, 0.247802734375, 0, 
372, 1053062037, 0.42142218351364136, -0.49720537662506104, -0.5016472339630127, -0.5688115358352661, 9.573942184448242, 1.7074835300445557, 0.562180757522583, 23.717592239379883, -1.9751415252685547, 26.173871994018555, -1.89794921875, 0.36083984375, 0.2421875, 0, 
373, 1053070370, 0.4234604239463806, -0.49755704402923584, -0.5017498135566711, -0.5668964982032776, 9.854069709777832, 1.8276830911636353, 0.48912161588668823, 27.025142669677734, -3.747546911239624, 29.082197189331055, -1.897216796875, 0.36669921875, 0.243896484375, 0, 
374, 1053078703, 0.4255092144012451, -0.4980824589729309, -0.5018753409385681, -0.5647860765457153, 10.10538387298584, 1.6934361457824707, 0.6132718324661255, 27.61458396911621, -6.484766006469727, 31.419788360595703, -1.900146484375, 0.372802734375, 0.24072265625, 0, 
375, 1053087036, 0.4275625944137573, -0.49878841638565063, -0.5018395185470581, -0.5626401305198669, 10.395381927490234, 1.854702353477478, 0.47677648067474365, 25.58083724975586, -7.169154644012451, 33.940391540527344, -1.89697265625, 0.38232421875, 0.244384765625, 0, 
376, 1053095369, 0.4300896227359772, -0.499309778213501, -0.5019719004631042, -0.5601280331611633, 10.377800941467285, 1.742581844329834, 0.4498889148235321, 33.743896484375, -5.957218170166016, 37.403385162353516, -1.8955078125, 0.388916015625, 0.240966796875, 0, 
377, 1053103702, 0.4327598214149475, -0.49993082880973816, -0.5020209550857544, -0.5574669241905212, 10.530920028686523, 1.7006359100341797, 0.29314979910850525, 34.52662658691406, -6.284544467926025, 40.58143615722656, -1.8984375, 0.3984375, 0.24169921875, 0, 
378, 1053112035, 0.43568292260169983, -0.5006008148193359, -0.5021166205406189, -0.5544946789741516, 10.309328079223633, 1.8925970792770386, 0.2283647358417511, 38.47721481323242, -7.3143463134765625, 44.454776763916016, -1.89013671875, 0.406494140625, 0.237548828125, 0, 
379, 1053120368, 0.4388144016265869, -0.5015106201171875, -0.5024420619010925, -0.5508968830108643, 10.89159107208252, 2.107978582382202, 0.5116279125213623, 44.55000686645508, -13.403343200683594, 49.80238342285156, -1.890625, 0.41943359375, 0.231689453125, 0, 
380, 1053128701, 0.44229528307914734, -0.5025848150253296, -0.5025966763496399, -0.5469792485237122, 11.692389488220215, 2.3313708305358887, 0.2320292890071869, 46.87933349609375, -13.392544746398926, 56.757568359375, -1.8896484375, 0.4326171875, 0.232177734375, 0, 
381, 1053137034, 0.44628453254699707, -0.5036752223968506, -0.5024598240852356, -0.5428462624549866, 12.348184585571289, 2.3738460540771484, -0.2067716419696808, 49.59271240234375, -9.733978271484375, 63.95692825317383, -1.892822265625, 0.442626953125, 0.234619140625, 0, 
382, 1053145367, 0.45088234543800354, -0.5047881603240967, -0.5019538402557373, -0.5384634137153625, 13.1821928024292, 2.687183380126953, -0.6890772581100464, 52.637489318847656, -5.1453986167907715, 72.80543518066406, -1.890380859375, 0.4619140625, 0.231201171875, 0, 
383, 1053153700, 0.45682215690612793, -0.5054120421409607, -0.5006163120269775, -0.5340991616249084, 13.749021530151367, 2.885624885559082, -0.7523757815361023, 58.7017936706543, 13.0079927444458, 84.97002410888672, -1.8857421875, 0.4755859375, 0.227294921875, 0, 
384, 1053162033, 0.4636613428592682, -0.5060954093933105, -0.4988591969013214, -0.5291800498962402, 13.227020263671875, 2.7612459659576416, -1.1979047060012817, 65.31671905517578, 17.558456420898438, 98.44215393066406, -1.8916015625, 0.496826171875, 0.215087890625, 0, 
385, 1053170366, 0.4710119664669037, -0.5072812438011169, -0.4968591630458832, -0.5234031677246094, 13.184612274169922, 2.762253999710083, -0.39886409044265747, 69.78655242919922, 12.972647666931152, 112.71849822998047, -1.885498046875, 0.52099609375, 0.2001953125, 0, 
386, 1053178699, 0.47846683859825134, -0.5093436241149902, -0.49416273832321167, -0.5171538591384888, 13.051857948303223, 2.8578224182128906, 0.5055204629898071, 63.05462646484375, 8.608367919921875, 127.42936706542969, -1.884521484375, 0.541015625, 0.197509765625, 0, 
387, 1053187032, 0.48590749502182007, -0.5124377608299255, -0.49047955870628357, -0.5106245279312134, 14.017544746398926, 3.3441274166107178, 0.47090914845466614, 51.0450553894043, 5.6897172927856445, 143.04714965820312, -1.876953125, 0.5703125, 0.186767578125, 0, 
388, 1053195365, 0.494120717048645, -0.5159290432929993, -0.4855438470840454, -0.5039000511169434, 14.93712329864502, 3.858004331588745, 0.11587127298116684, 46.36267852783203, 15.121832847595215, 161.32803344726562, -1.877197265625, 0.60009765625, 0.174560546875, 0, 
389, 1053203698, 0.502994179725647, -0.5201347470283508, -0.47938334941864014, -0.4966433346271515, 15.733839988708496, 4.048601150512695, -0.7529292702674866, 41.25943374633789, 19.109060287475586, 182.94090270996094, -1.86767578125, 0.63427734375, 0.159423828125, 0, 
390, 1053212031, 0.5118014216423035, -0.5257933139801025, -0.47204309701919556, -0.48865365982055664, 16.878284454345703, 4.710052967071533, -0.6379216313362122, 27.51038932800293, 11.684057235717773, 205.61817932128906, -1.861328125, 0.67041015625, 0.15625, 0, 
391, 1053220364, 0.5200358033180237, -0.5335228443145752, -0.4631117284297943, -0.48005226254463196, 18.79143524169922, 5.998530387878418, 0.07582011073827744, 2.072429895401001, 0.8080261945724487, 230.99073791503906, -1.849853515625, 0.706298828125, 0.139892578125, 0, 
392, 1053228697, 0.5279316902160645, -0.5432678461074829, -0.45204198360443115, -0.4709699749946594, 21.010189056396484, 7.60776424407959, 0.15599463880062103, -25.88014030456543, -2.872272491455078, 260.7572326660156, -1.838623046875, 0.742431640625, 0.133056640625, 0, 
393, 1053237030, 0.5371913313865662, -0.5534860491752625, -0.43776971101760864, -0.4619986414909363, 22.789175033569336, 8.723906517028809, -1.8117008209228516, -40.563602447509766, 26.606521606445312, 295.63714599609375, -1.822021484375, 0.787841796875, 0.1220703125, 0, 
394, 1053245363, 0.5489758253097534, -0.5631946325302124, -0.4208584129810333, -0.45201992988586426, 23.369977951049805, 9.314477920532227, -4.81242036819458, -28.28084945678711, 56.88825225830078, 336.1700439453125, -1.799072265625, 0.839111328125, 0.1015625, 0, 
395, 1053253696, 0.5626952052116394, -0.5729910731315613, -0.4027160406112671, -0.43918275833129883, 24.39415740966797, 9.887030601501465, -6.8136186599731445, -5.062234878540039, 54.68612289428711, 379.8265380859375, -1.7724609375, 0.89501953125, 0.0830078125, 0, 
396, 1053262029, 0.5787205696105957, -0.5823518633842468, -0.38325557112693787, -0.42316702008247375, 26.854013442993164, 9.074889183044434, -7.7813897132873535, 26.123401641845703, 55.256591796875, 426.3511657714844, -1.736572265625, 0.960693359375, 0.058349609375, 0, 
397, 1053270362, 0.5964293479919434, -0.5904353260993958, -0.36078599095344543, -0.4068145155906677, 28.843263626098633, 7.395034313201904, -8.340267181396484, 34.036190032958984, 92.8169174194336, 456.2205505371094, -1.692626953125, 1.02685546875, 0.027099609375, 0, 
398, 1053278695, 0.6141756772994995, -0.5976558923721313, -0.33711954951286316, -0.3898110091686249, 29.21498680114746, 4.41285514831543, -5.847262859344482, 37.95362854003906, 102.36653900146484, 467.20172119140625, -1.638671875, 1.098388671875, -0.006591796875, 0, 
399, 1053287028, 0.6314372420310974, -0.6041072607040405, -0.3111473619937897, -0.37354403734207153, 26.777912139892578, 1.6210769414901733, -3.23885178565979, 24.692533493041992, 129.78346252441406, 473.8103332519531, -1.58740234375, 1.15576171875, -0.04150390625, 0, 
400, 1053295361, 0.644721269607544, -0.6122857928276062, -0.2875347137451172, -0.35604891180992126, 30.23198890686035, 0.5438361763954163, -2.6735599040985107, -5.98259162902832, 73.18135070800781, 451.77728271484375, -1.52099609375, 1.2080078125, -0.073486328125, 0, 
401, 1053303694, 0.6572247743606567, -0.619422435760498, -0.26224949955940247, -0.3400046229362488, 27.757484436035156, 1.9124442338943481, -2.0723538398742676, -17.241247177124023, 102.2591323852539, 445.10986328125, -1.4619140625, 1.257080078125, -0.090576171875, 0, 
402, 1053312027, 0.6677966713905334, -0.6264932155609131, -0.23488859832286835, -0.3261713683605194, 22.821252822875977, 5.111367225646973, -4.857596397399902, -50.78664779663086, 133.1868133544922, 433.48150634765625, -1.395751953125, 1.30126953125, -0.1103515625, 0, 
403, 1053320360, 0.6759210824966431, -0.6350693702697754, -0.21002839505672455, -0.309373676776886, 19.584491729736328, 8.204272270202637, -10.02400016784668, -64.90117645263672, 70.02838134765625, 433.1178894042969, -1.32861328125, 1.3349609375, -0.124267578125, 0, 
404, 1053328693, 0.6856788396835327, -0.6411530375480652, -0.1884758174419403, -0.2885318100452423, 17.900964736938477, 6.946106433868408, -7.908681869506836, -1.7113765478134155, 19.263566970825195, 441.49615478515625, -1.260986328125, 1.369873046875, -0.130615234375, 0, 
405, 1053337026, 0.6962528824806213, -0.6424828767776489, -0.1707647442817688, -0.27072763442993164, 3.1421422958374023, 4.2612714767456055, -11.545721054077148, 57.70491409301758, 30.818510055541992, 369.972900390625, -1.191650390625, 1.39208984375, -0.150634765625, 0, 
406, 1053345359, 0.7023320198059082, -0.6418127417564392, -0.16018202900886536, -0.26297223567962646, -23.65288734436035, 7.4940996170043945, -12.872596740722656, 40.057159423828125, 48.22218704223633, 189.208740234375, -1.14306640625, 1.40380859375, -0.16845703125, 0, 
407, 1053353692, 0.7115768790245056, -0.6355394124984741, -0.166139155626297, -0.24930331110954285, 2.6912457942962646, 12.457969665527344, -13.692782402038574, 194.98338317871094, -136.45578002929688, 99.56160736083984, -1.1171875, 1.406005859375, -0.189697265625, 0, 
408, 1053362025, 0.718925416469574, -0.6261303424835205, -0.17407342791557312, -0.24660035967826843, 20.91019058227539, 16.313390731811523, 10.199644088745117, 190.7926483154297, -53.57255554199219, -38.806541442871094, -1.11083984375, 1.4013671875, -0.21826171875, 0, 
409, 1053370358, 0.7217038869857788, -0.618830680847168, -0.17465484142303467, -0.256308376789093, 2.94278621673584, 20.505102157592773, -4.913918972015381, 75.98129272460938, 107.93403625488281, -108.54202270507812, -1.1298828125, 1.383056640625, -0.248291015625, 0, 
410, 1053378691, 0.7223150730133057, -0.6135943531990051, -0.1809266209602356, -0.26274487376213074, 1.750713586807251, 18.955013275146484, -1.7169740200042725, 64.93270874023438, 11.098630905151367, -127.28358459472656, -1.1435546875, 1.373779296875, -0.26318359375, 0, 
411, 1053387024, 0.722098171710968, -0.6090878844261169, -0.18464280664920807, -0.2711081802845001, -0.24123404920101166, 14.514710426330566, -0.6482555270195007, 36.6970329284668, 48.08867263793945, -125.90989685058594, -1.156982421875, 1.35693359375, -0.276611328125, 0, 
412, 1053395357, 0.7205215096473694, -0.6062600016593933, -0.19086115062236786, -0.27726536989212036, -4.795750141143799, 12.476719856262207, -3.1389501094818115, 23.54042625427246, -4.989699840545654, -125.89261627197266, -1.177978515625, 1.342041015625, -0.286376953125, 0, 
413, 1053403690, 0.7173527479171753, -0.6052982211112976, -0.1999524086713791, -0.28114834427833557, -3.2190003395080566, 12.084362983703613, -2.482175588607788, 8.72148609161377, -63.66416549682617, -128.34982299804688, -1.1982421875, 1.325439453125, -0.283447265625, 0, 
414, 1053412023, 0.7131586074829102, -0.6049723029136658, -0.2100285142660141, -0.2851448059082031, -1.7559020519256592, 11.509199142456055, -2.4985604286193848, -2.6119422912597656, -77.76006317138672, -140.01866149902344, -1.21923828125, 1.31298828125, -0.278564453125, 0, 
415, 1053420356, 0.7076024413108826, -0.6051923036575317, -0.22137600183486938, -0.2898966670036316, 0.1360759139060974, 11.258341789245605, -2.5325582027435303, -16.4742431640625, -89.970947265625, -161.63204956054688, -1.236572265625, 1.28955078125, -0.269775390625, 0, 
416, 1053428689, 0.7007546424865723, -0.6054759621620178, -0.23307707905769348, -0.29668742418289185, 2.0120961666107178, 10.999122619628906, -2.3659749031066895, -32.66154861450195, -80.6778564453125, -189.50965881347656, -1.2587890625, 1.269287109375, -0.260498046875, 0, 
417, 1053437022, 0.6927268505096436, -0.605485737323761, -0.2449938952922821, -0.30577895045280457, 2.754728078842163, 10.396692276000977, -2.7281582355499268, -46.312137603759766, -66.22638702392578, -219.03021240234375, -1.286865234375, 1.250244140625, -0.252197265625, 0, 
418, 1053445355, 0.6837329864501953, -0.6049465537071228, -0.2574595808982849, -0.31665411591529846, 2.6064774990081787, 9.417560577392578, -3.1944949626922607, -52.859107971191406, -57.59013366699219, -246.6488494873047, -1.316162109375, 1.223876953125, -0.241455078125, 0, 
419, 1053453688, 0.6741124391555786, -0.6035165786743164, -0.2712016701698303, -0.3283233940601349, 2.3035385608673096, 8.43482494354248, -3.688307046890259, -46.92965316772461, -61.27367401123047, -270.47503662109375, -1.347412109375, 1.19677734375, -0.23193359375, 0, 
420, 1053462021, 0.66397625207901, -0.6011437773704529, -0.2865859866142273, -0.3400537967681885, 2.728659152984619, 7.230786323547363, -3.5479140281677246, -35.30286407470703, -73.70987701416016, -290.66436767578125, -1.37548828125, 1.167724609375, -0.2236328125, 0, 
421, 1053470354, 0.6529983878135681, -0.5982794761657715, -0.30324214696884155, -0.35171765089035034, 4.133420467376709, 6.951592922210693, -3.5187087059020996, -31.541370391845703, -86.84184265136719, -306.2939758300781, -1.4111328125, 1.141357421875, -0.20947265625, 0, 
422, 1053478687, 0.6416800618171692, -0.594612181186676, -0.3207669258117676, -0.36304008960723877, 5.817856311798096, 7.155919075012207, -3.525486469268799, -21.527809143066406, -95.03897857666016, -315.52691650390625, -1.44384765625, 1.106201171875, -0.196044921875, 0, 
423, 1053487020, 0.6304137706756592, -0.5899109244346619, -0.33878159523010254, -0.373921275138855, 7.244054794311523, 7.156256675720215, -3.0335500240325928, -7.561735153198242, -97.52777099609375, -319.7822265625, -1.47509765625, 1.076416015625, -0.183837890625, 0, 
424, 1053495353, 0.6184819936752319, -0.5848555564880371, -0.35686978697776794, -0.38480424880981445, 8.743755340576172, 6.520763874053955, -1.9607292413711548, -9.545531272888184, -99.48140716552734, -325.62567138671875, -1.51123046875, 1.04638671875, -0.177978515625, 0, 
425, 1053503686, 0.6061325669288635, -0.5792187452316284, -0.37451261281967163, -0.3960496783256531, 9.62625503540039, 6.659902572631836, -1.7007060050964355, -12.06967830657959, -91.69566345214844, -330.02752685546875, -1.5537109375, 1.025634765625, -0.167236328125, 0, 
426, 1053512019, 0.5935679078102112, -0.5728949308395386, -0.39216911792755127, -0.4070355296134949, 10.391757011413574, 6.595427513122559, -1.5751760005950928, -6.669571876525879, -91.29844665527344, -332.84735107421875, -1.593994140625, 0.9892578125, -0.15087890625, 0, 
427, 1053520352, 0.5802610516548157, -0.5660679936408997, -0.4100848436355591, -0.41797199845314026, 11.652073860168457, 6.053175926208496, -0.6576188802719116, -6.672323703765869, -94.93151092529297, -341.1860656738281, -1.6328125, 0.95361328125, -0.134765625, 0, 
428, 1053528685, 0.5662155151367188, -0.5584789514541626, -0.4279782474040985, -0.4293505549430847, 12.316263198852539, 5.890888690948486, -0.7580485939979553, -8.98255729675293, -91.1581039428711, -353.25616455078125, -1.68505859375, 0.907958984375, -0.116455078125, 0, 
429, 1053537018, 0.5514680743217468, -0.5501445531845093, -0.44649767875671387, -0.44030696153640747, 13.135418891906738, 6.253190994262695, -1.0170165300369263, -2.366896867752075, -98.94440460205078, -363.13519287109375, -1.72998046875, 0.853515625, -0.098876953125, 0, 
430, 1053545351, 0.5363777279853821, -0.5409656763076782, -0.4655899405479431, -0.4504304826259613, 14.784578323364258, 6.133013725280762, -0.6378362774848938, 10.004873275756836, -106.64405822753906, -368.5933532714844, -1.76513671875, 0.794677734375, -0.083740234375, 0, 
431, 1053553684, 0.5201890468597412, -0.531460165977478, -0.48474356532096863, -0.46041661500930786, 16.720378875732422, 6.233413219451904, -0.03761637210845947, 5.529804706573486, -113.0685806274414, -376.7523498535156, -1.787109375, 0.72265625, -0.06689453125, 0, 
432, 1053562017, 0.5035589933395386, -0.5213145017623901, -0.5038278698921204, -0.46991854906082153, 18.050146102905273, 6.677151679992676, -0.4304202198982239, 9.646240234375, -115.06265258789062, -380.0287170410156, -1.804443359375, 0.65966796875, -0.0634765625, 0, 
433, 1053570350, 0.4862113893032074, -0.5107501745223999, -0.5225883722305298, -0.479208379983902, 20.826305389404297, 6.521019458770752, 0.6779727935791016, 6.7972002029418945, -116.54324340820312, -383.58734130859375, -1.821044921875, 0.603759765625, -0.061279296875, 0, 
434, 1053578683, 0.4684842526912689, -0.4995154142379761, -0.5401937961578369, -0.48908498883247375, 22.313365936279297, 6.766793727874756, 0.6975849270820618, -3.2358293533325195, -103.07107543945312, -386.9075927734375, -1.837890625, 0.53759765625, -0.056396484375, 0, 
435, 1053587016, 0.45018434524536133, -0.48776373267173767, -0.5568861961364746, -0.4993042051792145, 23.87195587158203, 6.776340961456299, 0.6816605925559998, -12.50976276397705, -95.55013275146484, -390.34320068359375, -1.8623046875, 0.478515625, -0.049072265625, 0, 
436, 1053595349, 0.43167605996131897, -0.47533053159713745, -0.5725782513618469, -0.509781539440155, 25.02610969543457, 6.655148983001709, -0.3047317862510681, -18.552104949951172, -84.60401916503906, -392.0753479003906, -1.885498046875, 0.404052734375, -0.0390625, 0, 
437, 1053603682, 0.41301387548446655, -0.46225765347480774, -0.5873823165893555, -0.5203129649162292, 26.802490234375, 6.047647953033447, -1.3988001346588135, -22.39520263671875, -75.64881896972656, -392.5099792480469, -1.90380859375, 0.324951171875, -0.02978515625, 0, 
438, 1053612015, 0.39439332485198975, -0.4485361874103546, -0.6013780832290649, -0.5306786894798279, 27.85012435913086, 5.304473400115967, -2.8146562576293945, -22.909547805786133, -67.18726348876953, -391.5671081542969, -1.919921875, 0.230712890625, -0.01513671875, 0, 
439, 1053620348, 0.37617629766464233, -0.4342409074306488, -0.615122377872467, -0.5399600863456726, 28.047542572021484, 3.427628517150879, -3.6267642974853516, -10.157927513122559, -64.93611145019531, -385.74261474609375, -1.9130859375, 0.132080078125, 0.0009765625, 0, 
440, 1053628681, 0.3588728904724121, -0.41977107524871826, -0.6292458772659302, -0.5468622446060181, 28.778989791870117, 0.8504152894020081, -4.644871711730957, 19.130569458007812, -72.132568359375, -370.57733154296875, -1.88671875, 0.029541015625, 0.011962890625, 0, 
441, 1053637014, 0.3416461646556854, -0.40576303005218506, -0.643607497215271, -0.5517335534095764, 29.822418212890625, -2.2928855419158936, -3.9853057861328125, 36.6659049987793, -87.78740692138672, -357.17156982421875, -1.8388671875, -0.052001953125, 0.025634765625, 0, 
442, 1053645347, 0.3248429298400879, -0.3926592469215393, -0.6580234169960022, -0.5543529391288757, 30.70481300354004, -5.252837657928467, -3.5340957641601562, 55.12043762207031, -103.77629852294922, -335.8544006347656, -1.765625, -0.127685546875, 0.03564453125, 0, 
443, 1053653680, 0.3081405758857727, -0.3808974623680115, -0.671619176864624, -0.5557880401611328, 31.217910766601562, -8.870865821838379, -0.8087632060050964, 54.14445114135742, -115.76957702636719, -313.0596618652344, -1.696044921875, -0.165283203125, 0.044189453125, 0, 
