PacketCounter,SampleTimeFine,Quat_W,Quat_X,Quat_Y,Quat_Z,Acc_X,Acc_Y,Acc_Z,Gyr_X,Gyr_Y,Gyr_Z,Mag_X,Mag_Y,Mag_Z,Status,
0, 1021613295, 0.41915106773376465, -0.4585219621658325, -0.5050439238548279, -0.5991718769073486, 0, 0, 0, 0, 0, 0, -2.037841796875, 0.480712890625, -0.216796875, 0, 
1, 1021621628, 0.4191432595252991, -0.4585467576980591, -0.5050382018089294, -0.5991628766059875, 9.499052047729492, 2.1284070014953613, 0.657261848449707, 1.1372079849243164, -1.5878006219863892, 0.5918297171592712, -2.033447265625, 0.487060546875, -0.215576171875, 0, 
2, 1021629961, 0.4191383123397827, -0.45856064558029175, -0.5050352811813354, -0.5991582870483398, 9.507403373718262, 2.1532983779907227, 0.6656383275985718, 1.012492060661316, -1.5161833763122559, 0.49070465564727783, -2.03662109375, 0.48193359375, -0.21484375, 0, 
3, 1021638294, 0.4191385805606842, -0.45856842398643494, -0.5050383806228638, -0.5991496443748474, 9.516674041748047, 2.1393015384674072, 0.6629422903060913, 1.0050897598266602, -1.5201536417007446, 0.4578416049480438, -2.034912109375, 0.4775390625, -0.213623046875, 0, 
4, 1021646627, 0.4191376566886902, -0.45858439803123474, -0.5050413608551025, -0.5991355776786804, 9.517364501953125, 2.1173784732818604, 0.7090871930122375, 1.1400768756866455, -1.5991735458374023, 0.5578140020370483, -2.033447265625, 0.484375, -0.216796875, 0, 
5, 1021654960, 0.4191286563873291, -0.458599328994751, -0.5050387978553772, -0.5991325974464417, 9.500201225280762, 2.1230790615081787, 0.6533886194229126, 1.084647536277771, -1.5140061378479004, 0.4518479108810425, -2.04052734375, 0.478271484375, -0.211669921875, 0, 
6, 1021663293, 0.41912293434143066, -0.458607017993927, -0.5050400495529175, -0.5991296768188477, 9.512675285339355, 2.1194753646850586, 0.6653028726577759, 1.0664359331130981, -1.4846011400222778, 0.4073304235935211, -2.03466796875, 0.482666015625, -0.213623046875, 0, 
7, 1021671626, 0.419120192527771, -0.4586107134819031, -0.5050339102745056, -0.5991339683532715, 9.508814811706543, 2.1404082775115967, 0.6473982930183411, 0.9947672486305237, -1.3367043733596802, 0.39731520414352417, -2.03466796875, 0.4814453125, -0.212890625, 0, 
8, 1021679959, 0.41911476850509644, -0.4586150646209717, -0.5050356388092041, -0.5991330146789551, 9.541425704956055, 2.133671522140503, 0.661732017993927, 1.0782182216644287, -1.4463077783584595, 0.3726230561733246, -2.03662109375, 0.4814453125, -0.20849609375, 0, 
9, 1021688292, 0.4191136360168457, -0.45862194895744324, -0.5050402283668518, -0.599124550819397, 9.501751899719238, 2.1402807235717773, 0.6958345174789429, 1.1548817157745361, -1.494769811630249, 0.4368123412132263, -2.0302734375, 0.48193359375, -0.216064453125, 0, 
10, 1021696625, 0.4191192388534546, -0.45862579345703125, -0.5050445199012756, -0.5991140604019165, 9.511205673217773, 2.138392210006714, 0.6551086902618408, 1.2394089698791504, -1.4411851167678833, 0.49649354815483093, -2.035400390625, 0.478271484375, -0.216796875, 0, 
11, 1021704958, 0.4191179573535919, -0.4586374759674072, -0.5050401091575623, -0.5991097688674927, 9.536452293395996, 2.1384758949279785, 0.6517173647880554, 1.1835440397262573, -1.4224352836608887, 0.515345573425293, -2.032958984375, 0.48193359375, -0.21435546875, 0, 
12, 1021713291, 0.41912686824798584, -0.4586390256881714, -0.5050368309020996, -0.5991051197052002, 9.535772323608398, 2.152216672897339, 0.6306735277175903, 1.1683292388916016, -1.3171864748001099, 0.5236701965332031, -2.039794921875, 0.4775390625, -0.21484375, 0, 
13, 1021721624, 0.4191288948059082, -0.4586479663848877, -0.5050298571586609, -0.5991027355194092, 9.542482376098633, 2.1537890434265137, 0.6463010907173157, 1.1093653440475464, -1.3674414157867432, 0.522901713848114, -2.03857421875, 0.48193359375, -0.214111328125, 0, 
14, 1021729957, 0.4191310405731201, -0.458652138710022, -0.50503009557724, -0.5990978479385376, 9.523941993713379, 2.119138240814209, 0.6645994782447815, 1.142254114151001, -1.4077582359313965, 0.4641171097755432, -2.03857421875, 0.4794921875, -0.213623046875, 0, 
15, 1021738290, 0.41913580894470215, -0.45865190029144287, -0.5050160884857178, -0.5991063714027405, 9.52787971496582, 2.1369833946228027, 0.6558584570884705, 0.9651315808296204, -1.18319833278656, 0.4575342535972595, -2.03466796875, 0.483154296875, -0.21484375, 0, 
16, 1021746623, 0.41915684938430786, -0.4586412310600281, -0.5049936771392822, -0.5991187691688538, 9.536813735961914, 2.1477770805358887, 0.6501576900482178, 1.0384907722473145, -0.912916898727417, 0.560862123966217, -2.0322265625, 0.478759765625, -0.21240234375, 0, 
17, 1021754956, 0.4191801846027374, -0.45863133668899536, -0.5049631595611572, -0.5991358757019043, 9.51036262512207, 2.1618824005126953, 0.6903280019760132, 0.9767605066299438, -0.8174015283584595, 0.6006409525871277, -2.03662109375, 0.48583984375, -0.21435546875, 0, 
18, 1021763289, 0.4191977083683014, -0.458635151386261, -0.5049319267272949, -0.5991470217704773, 9.491515159606934, 2.1613173484802246, 0.7049555778503418, 0.8701539635658264, -1.015220284461975, 0.6946964859962463, -2.03857421875, 0.480712890625, -0.212890625, 0, 
19, 1021771622, 0.41921281814575195, -0.45864832401275635, -0.5048986673355103, -0.5991544723510742, 9.506134986877441, 2.1471762657165527, 0.7220938205718994, 0.8473572731018066, -1.1061762571334839, 0.7660064697265625, -2.037109375, 0.484375, -0.215576171875, 0, 
20, 1021779955, 0.41922861337661743, -0.4586750566959381, -0.5048694014549255, -0.5991475582122803, 9.499055862426758, 2.1250455379486084, 0.7084655165672302, 0.8682329058647156, -1.3410588502883911, 0.9316281080245972, -2.035888671875, 0.4794921875, -0.21484375, 0, 
21, 1021788288, 0.4192366898059845, -0.45870473980903625, -0.5048507452011108, -0.5991347432136536, 9.44316577911377, 2.1401257514953613, 0.6954222917556763, 0.9821138978004456, -1.500686764717102, 0.8489966988563538, -2.035400390625, 0.484619140625, -0.211181640625, 0, 
22, 1021796621, 0.4192349910736084, -0.458747923374176, -0.5048343539237976, -0.5991166234016418, 9.471224784851074, 2.121516466140747, 0.7003067135810852, 0.8469218611717224, -1.743688941001892, 0.8861884474754333, -2.035888671875, 0.480224609375, -0.212890625, 0, 
23, 1021804954, 0.41924363374710083, -0.4587898254394531, -0.5048317313194275, -0.5990809202194214, 9.503706932067871, 2.133812189102173, 0.6854711771011353, 0.9468942284584045, -1.8916367292404175, 0.9508900046348572, -2.035888671875, 0.47998046875, -0.216796875, 0, 
24, 1021813287, 0.4192373752593994, -0.4588471055030823, -0.5048183798789978, -0.5990526080131531, 9.513646125793457, 2.124866247177124, 0.6590713262557983, 0.8329620957374573, -1.972296118736267, 0.9850337505340576, -2.03515625, 0.486328125, -0.216064453125, 0, 
25, 1021821620, 0.4192315340042114, -0.4588841199874878, -0.5048141479492188, -0.5990320444107056, 9.509021759033203, 2.1114137172698975, 0.6641940474510193, 0.9814221858978271, -1.7991437911987305, 0.737497866153717, -2.03662109375, 0.4794921875, -0.208984375, 0, 
26, 1021829953, 0.41922953724861145, -0.4589182138442993, -0.5048109889030457, -0.5990098118782043, 9.526397705078125, 2.1080756187438965, 0.6480674147605896, 1.0349560976028442, -1.7720953226089478, 0.7578611373901367, -2.02978515625, 0.483154296875, -0.213623046875, 0, 
27, 1021838286, 0.4192326068878174, -0.45894142985343933, -0.5048101544380188, -0.5989906787872314, 9.524226188659668, 2.134479284286499, 0.64934903383255, 1.084647536277771, -1.6460731029510498, 0.6803011894226074, -2.03662109375, 0.482666015625, -0.214111328125, 0, 
28, 1021846619, 0.41923555731773376, -0.4589584171772003, -0.5048088431358337, -0.598976731300354, 9.493885040283203, 2.1248395442962646, 0.6649462580680847, 1.12301766872406, -1.556269645690918, 0.6233095526695251, -2.03466796875, 0.4814453125, -0.2109375, 0, 
29, 1021854952, 0.4192377030849457, -0.4589751362800598, -0.5048105716705322, -0.598960816860199, 9.512892723083496, 2.1167104244232178, 0.6451178193092346, 1.1190985441207886, -1.5896192789077759, 0.592828631401062, -2.032958984375, 0.47998046875, -0.216064453125, 0, 
30, 1021863285, 0.4192325472831726, -0.4589880406856537, -0.5048119425773621, -0.5989533066749573, 9.510458946228027, 2.1172709465026855, 0.6916108131408691, 1.073377251625061, -1.5540924072265625, 0.4739273488521576, -2.035400390625, 0.480712890625, -0.21484375, 0, 
31, 1021871618, 0.4192332625389099, -0.45899471640586853, -0.5048141479492188, -0.5989459753036499, 9.495911598205566, 2.1169590950012207, 0.681514322757721, 1.0956361293792725, -1.4713327884674072, 0.45633038878440857, -2.0341796875, 0.483154296875, -0.209228515625, 0, 
32, 1021879951, 0.41921886801719666, -0.45900121331214905, -0.5048211812973022, -0.5989450812339783, 9.494940757751465, 2.1262829303741455, 0.6662927269935608, 1.0522454977035522, -1.5561927556991577, 0.2793872654438019, -2.03662109375, 0.48388671875, -0.21240234375, 0, 
33, 1021888284, 0.41920167207717896, -0.4590145945549011, -0.5048182010650635, -0.5989494323730469, 9.494070053100586, 2.1289985179901123, 0.6457672119140625, 1.0335217714309692, -1.4964605569839478, 0.33658385276794434, -2.03466796875, 0.485107421875, -0.211669921875, 0, 
34, 1021896617, 0.41919219493865967, -0.4590226113796234, -0.5048203468322754, -0.5989481210708618, 9.493315696716309, 2.11893892288208, 0.6459035277366638, 1.0366209745407104, -1.5088320970535278, 0.36327388882637024, -2.03662109375, 0.4814453125, -0.213623046875, 0, 
35, 1021904950, 0.4191851019859314, -0.45902127027511597, -0.504828691482544, -0.5989472270011902, 9.499686241149902, 2.135906219482422, 0.6828991174697876, 1.086287021636963, -1.4578087329864502, 0.2616366147994995, -2.037841796875, 0.48193359375, -0.214111328125, 0, 
36, 1021913283, 0.41917961835861206, -0.459018737077713, -0.5048385262489319, -0.5989446640014648, 9.490204811096191, 2.101912260055542, 0.6632380485534668, 1.1958644390106201, -1.4465125799179077, 0.28289636969566345, -2.033447265625, 0.478759765625, -0.214111328125, 0, 
37, 1021921616, 0.41917261481285095, -0.4590190052986145, -0.5048506855964661, -0.598939061164856, 9.512962341308594, 2.126384973526001, 0.6834157109260559, 1.2170987129211426, -1.5015833377838135, 0.28146204352378845, -2.0341796875, 0.482666015625, -0.215576171875, 0, 
38, 1021929949, 0.4191683530807495, -0.45902112126350403, -0.5048665404319763, -0.5989270210266113, 9.52189826965332, 2.1358792781829834, 0.6527695655822754, 1.2908422946929932, -1.5703831911087036, 0.3406052887439728, -2.037841796875, 0.484619140625, -0.213623046875, 0, 
39, 1021938282, 0.4191589951515198, -0.459039568901062, -0.504878044128418, -0.5989096164703369, 9.549928665161133, 2.1414616107940674, 0.649567186832428, 1.365354061126709, -1.6985825300216675, 0.4733639061450958, -2.035888671875, 0.48388671875, -0.21044921875, 0, 
40, 1021946615, 0.41917479038238525, -0.45905250310897827, -0.5048885941505432, -0.5988796949386597, 9.536581039428711, 2.15824031829834, 0.6246954202651978, 1.4359469413757324, -1.6019400358200073, 0.7174164056777954, -2.0361328125, 0.480224609375, -0.2109375, 0, 
41, 1021954948, 0.41919076442718506, -0.4590696394443512, -0.5048927068710327, -0.5988520383834839, 9.570436477661133, 2.157547950744629, 0.5867651104927063, 1.395758032798767, -1.567795991897583, 0.768670380115509, -2.031005859375, 0.480712890625, -0.21240234375, 0, 
42, 1021963281, 0.41922351717948914, -0.4590819478034973, -0.5048841834068298, -0.5988268852233887, 9.552666664123535, 2.135842800140381, 0.6246965527534485, 1.3567475080490112, -1.3392401933670044, 0.9451780319213867, -2.037109375, 0.482666015625, -0.2109375, 0, 
43, 1021971614, 0.41925227642059326, -0.45910030603408813, -0.5048731565475464, -0.5988019108772278, 9.50504207611084, 2.123776912689209, 0.6709455251693726, 1.3172248601913452, -1.3851152658462524, 0.9616991877555847, -2.03466796875, 0.484375, -0.213623046875, 0, 
44, 1021979947, 0.419280469417572, -0.4591081142425537, -0.5048649311065674, -0.5987831354141235, 9.45882511138916, 2.1066086292266846, 0.6689001321792603, 1.311615228652954, -1.2959522008895874, 0.8391863703727722, -2.031494140625, 0.48193359375, -0.213623046875, 0, 
45, 1021988280, 0.41929781436920166, -0.4591139554977417, -0.5048579573631287, -0.5987724661827087, 9.45568561553955, 2.090782642364502, 0.7130404710769653, 1.2654072046279907, -1.2913672924041748, 0.6730780005455017, -2.03271484375, 0.486328125, -0.213623046875, 0, 
46, 1021996613, 0.4193185865879059, -0.4590979814529419, -0.5048657655715942, -0.5987637042999268, 9.47683048248291, 2.085653781890869, 0.6976537704467773, 1.4652750492095947, -1.1812260150909424, 0.4538457989692688, -2.03173828125, 0.480712890625, -0.211181640625, 0, 
47, 1022004946, 0.4193459451198578, -0.45906105637550354, -0.5048834681510925, -0.5987579226493835, 9.492246627807617, 2.0918562412261963, 0.6732514500617981, 1.4175556898117065, -1.0541281700134277, 0.2526203989982605, -2.037353515625, 0.4814453125, -0.21044921875, 0, 
48, 1022013279, 0.4193570017814636, -0.4590316712856293, -0.5049027800559998, -0.5987564325332642, 9.515883445739746, 2.1338560581207275, 0.6900026202201843, 1.5242133140563965, -1.1582756042480469, 0.166069895029068, -2.0341796875, 0.4814453125, -0.2109375, 0, 
49, 1022021612, 0.41936612129211426, -0.458999902009964, -0.504922091960907, -0.598757803440094, 9.528627395629883, 2.1141414642333984, 0.6561175584793091, 1.4144819974899292, -1.1472615003585815, 0.09926795959472656, -2.035400390625, 0.483154296875, -0.216796875, 0, 
50, 1022029945, 0.4193631112575531, -0.45898717641830444, -0.5049450993537903, -0.5987503528594971, 9.529247283935547, 2.1283652782440186, 0.6914836764335632, 1.4119462966918945, -1.452762484550476, 0.17698155343532562, -2.0322265625, 0.484375, -0.216796875, 0, 
51, 1022038278, 0.41936782002449036, -0.45897895097732544, -0.5049594640731812, -0.5987411737442017, 9.522442817687988, 2.135948419570923, 0.643498957157135, 1.3371014595031738, -1.3975383043289185, 0.3214714527130127, -2.03857421875, 0.48388671875, -0.2109375, 0, 
52, 1022046611, 0.4193588197231293, -0.4589760899543762, -0.5049732327461243, -0.5987381339073181, 9.514785766601562, 2.126533269882202, 0.6545386910438538, 1.2111819982528687, -1.4934380054473877, 0.22772334516048431, -2.0390625, 0.484619140625, -0.21240234375, 0, 
53, 1022054944, 0.41935446858406067, -0.4589717984199524, -0.5049865245819092, -0.5987332463264465, 9.502704620361328, 2.1117963790893555, 0.6885825991630554, 1.3579002618789673, -1.4312208890914917, 0.26816821098327637, -2.0322265625, 0.48193359375, -0.21435546875, 0, 
54, 1022063277, 0.4193478226661682, -0.4589560925960541, -0.5050113201141357, -0.5987290740013123, 9.507871627807617, 2.143925189971924, 0.6692851185798645, 1.3973461389541626, -1.4413641691207886, 0.09473424404859543, -2.03662109375, 0.48193359375, -0.214111328125, 0, 
55, 1022071610, 0.4193308651447296, -0.4589521288871765, -0.5050219297409058, -0.598734974861145, 9.522270202636719, 2.100004196166992, 0.6572540998458862, 1.1866947412490845, -1.4346789121627808, 0.1192983016371727, -2.033447265625, 0.48193359375, -0.21240234375, 0, 
56, 1022079943, 0.41931962966918945, -0.4589332640171051, -0.505034863948822, -0.5987463593482971, 9.529402732849121, 2.1285078525543213, 0.6717413067817688, 1.1824170351028442, -1.2818386554718018, 0.02117016538977623, -2.0341796875, 0.482666015625, -0.21435546875, 0, 
57, 1022088276, 0.4193118214607239, -0.45891520380973816, -0.5050469636917114, -0.5987557172775269, 9.530067443847656, 2.125436544418335, 0.6542158722877502, 1.2250391244888306, -1.261885166168213, 0.06307504326105118, -2.035400390625, 0.47998046875, -0.214111328125, 0, 
58, 1022096609, 0.41930240392684937, -0.45889484882354736, -0.5050542950630188, -0.5987716913223267, 9.528473854064941, 2.1267476081848145, 0.6465311646461487, 1.122454047203064, -1.1945197582244873, 0.03410534933209419, -2.0390625, 0.47900390625, -0.211669921875, 0, 
59, 1022104942, 0.41930365562438965, -0.4588712453842163, -0.5050532817840576, -0.5987896919250488, 9.506664276123047, 2.1173059940338135, 0.6422179937362671, 1.1431503295898438, -1.0244157314300537, 0.13005627691745758, -2.035400390625, 0.483154296875, -0.214111328125, 0, 
60, 1022113275, 0.4193004369735718, -0.4588479995727539, -0.5050652027130127, -0.5987996459007263, 9.500456809997559, 2.134218215942383, 0.6737838983535767, 1.2572362422943115, -1.1919071674346924, 0.07037510722875595, -2.037353515625, 0.480712890625, -0.212890625, 0, 
61, 1022121608, 0.41928964853286743, -0.45883387327194214, -0.5050725340843201, -0.5988118648529053, 9.497577667236328, 2.1281192302703857, 0.6645585298538208, 1.1929445266723633, -1.2538936138153076, 0.08453977853059769, -2.03466796875, 0.4794921875, -0.21240234375, 0, 
62, 1022129941, 0.4192866384983063, -0.4588128328323364, -0.5050888061523438, -0.5988163352012634, 9.498270988464355, 2.1523263454437256, 0.6505832076072693, 1.3222451210021973, -1.2696462869644165, 0.09112263470888138, -2.0341796875, 0.482666015625, -0.212890625, 0, 
63, 1022138274, 0.4192861318588257, -0.45880410075187683, -0.5051002502441406, -0.5988137125968933, 9.537643432617188, 2.1482794284820557, 0.6579975485801697, 1.1542158126831055, -1.3919289112091064, 0.24890634417533875, -2.03857421875, 0.4833984375, -0.2109375, 0, 
64, 1022146607, 0.419284462928772, -0.45880597829818726, -0.5051109790802002, -0.5988044738769531, 9.54397964477539, 2.156611919403076, 0.6345593929290771, 1.2464014291763306, -1.5029665231704712, 0.37833505868911743, -2.037353515625, 0.480224609375, -0.212890625, 0, 
65, 1022154940, 0.4192880392074585, -0.4588150680065155, -0.5051141381263733, -0.5987921357154846, 9.522098541259766, 2.152583599090576, 0.6040939688682556, 1.2631018161773682, -1.481937050819397, 0.5277172327041626, -2.039794921875, 0.4814453125, -0.216796875, 0, 
66, 1022163273, 0.4192982316017151, -0.4588145613670349, -0.5051128268241882, -0.5987865328788757, 9.545061111450195, 2.137092113494873, 0.6276614665985107, 1.2107210159301758, -1.3081703186035156, 0.5127585530281067, -2.037353515625, 0.478759765625, -0.21533203125, 0, 
67, 1022171606, 0.41929078102111816, -0.4588315486907959, -0.505098283290863, -0.598791241645813, 9.54150104522705, 2.162026882171631, 0.6415572166442871, 1.2766518592834473, -1.3248449563980103, 0.5345562696456909, -2.0341796875, 0.481201171875, -0.216064453125, 0, 
68, 1022179939, 0.41930413246154785, -0.4588410258293152, -0.5050959587097168, -0.5987765789031982, 9.528228759765625, 2.148204803466797, 0.6333175301551819, 1.2294704914093018, -1.4205141067504883, 0.6653937697410583, -2.037109375, 0.484375, -0.21484375, 0, 
69, 1022188272, 0.41932210326194763, -0.4588547945022583, -0.5050877332687378, -0.5987603664398193, 9.501058578491211, 2.1353237628936768, 0.6577286720275879, 1.1830061674118042, -1.3961293697357178, 0.7699766755104065, -2.03466796875, 0.482666015625, -0.21240234375, 0, 
70, 1022196605, 0.41934818029403687, -0.45886120200157166, -0.5050783157348633, -0.5987451672554016, 9.495631217956543, 2.1312835216522217, 0.6535558104515076, 1.272092580795288, -1.2687242031097412, 0.7966411113739014, -2.0361328125, 0.4794921875, -0.209716796875, 0, 
71, 1022204938, 0.41937142610549927, -0.4588776230812073, -0.5050659775733948, -0.5987265706062317, 9.486186981201172, 2.1207642555236816, 0.6680216789245605, 1.1893842220306396, -1.3714373111724854, 0.8706150054931641, -2.03662109375, 0.483154296875, -0.211669921875, 0, 
72, 1022213271, 0.4193936884403229, -0.4588891863822937, -0.5050647854804993, -0.5987032055854797, 9.49413013458252, 2.1196374893188477, 0.6641579270362854, 1.3428133726119995, -1.4370867013931274, 0.79817795753479, -2.035888671875, 0.48193359375, -0.211669921875, 0, 
73, 1022221604, 0.41940975189208984, -0.4588995575904846, -0.5050586462020874, -0.5986891984939575, 9.49438762664795, 2.1111741065979004, 0.6738216280937195, 1.2841569185256958, -1.3572216033935547, 0.7101674675941467, -2.035888671875, 0.482666015625, -0.216796875, 0, 
74, 1022229937, 0.4194250702857971, -0.45889347791671753, -0.5050570368766785, -0.5986844301223755, 9.520395278930664, 2.0990350246429443, 0.6867038607597351, 1.2674307823181152, -1.2196987867355347, 0.5114778876304626, -2.033447265625, 0.483154296875, -0.212890625, 0, 
75, 1022238270, 0.41945117712020874, -0.45886895060539246, -0.5050630569458008, -0.5986799597740173, 9.510390281677246, 2.118856191635132, 0.6540480852127075, 1.284387230873108, -1.0783592462539673, 0.40033766627311707, -2.03466796875, 0.482666015625, -0.211669921875, 0, 
76, 1022246603, 0.41946208477020264, -0.4588426351547241, -0.5050635933876038, -0.5986920595169067, 9.517114639282227, 2.0947601795196533, 0.6510231494903564, 1.2572362422943115, -0.9901950359344482, 0.22523877024650574, -2.035400390625, 0.48193359375, -0.21875, 0, 
77, 1022254936, 0.41947102546691895, -0.4588046669960022, -0.5050662159919739, -0.5987125039100647, 9.497151374816895, 2.100625514984131, 0.6654576063156128, 1.3113590478897095, -0.8523136377334595, 0.05805465579032898, -2.04052734375, 0.477783203125, -0.2109375, 0, 
78, 1022263269, 0.41948026418685913, -0.45876941084861755, -0.5050728917121887, -0.5987273454666138, 9.4827241897583, 2.152547836303711, 0.6584764122962952, 1.3306978940963745, -0.9464203715324402, 0.09473424404859543, -2.031494140625, 0.485107421875, -0.21044921875, 0, 
79, 1022271602, 0.41947752237319946, -0.4587549567222595, -0.5050601959228516, -0.5987513065338135, 9.527922630310059, 2.1281344890594482, 0.6413882374763489, 1.2697104215621948, -0.9446273446083069, 0.22482894361019135, -2.0322265625, 0.4794921875, -0.21044921875, 0, 
80, 1022279935, 0.4194878339767456, -0.4587295651435852, -0.5050702095031738, -0.5987548828125, 9.490041732788086, 2.1430447101593018, 0.6851854920387268, 1.3852819204330444, -1.111350417137146, 0.21550539135932922, -2.035400390625, 0.48583984375, -0.212890625, 0, 
81, 1022288268, 0.4194929897785187, -0.4587269425392151, -0.5050817728042603, -0.5987436771392822, 9.506387710571289, 2.152003765106201, 0.6772989630699158, 1.3454005718231201, -1.426661729812622, 0.3975713551044464, -2.035888671875, 0.482666015625, -0.212890625, 0, 
82, 1022296601, 0.4195030629634857, -0.45872417092323303, -0.5050923228263855, -0.5987297892570496, 9.541435241699219, 2.1436173915863037, 0.6176079511642456, 1.3793905973434448, -1.4128042459487915, 0.4702901244163513, -2.033447265625, 0.4814453125, -0.211669921875, 0, 
83, 1022304934, 0.41951411962509155, -0.4587269425392151, -0.5050987005233765, -0.5987144112586975, 9.51269817352295, 2.138946056365967, 0.6638193726539612, 1.258260726928711, -1.4439256191253662, 0.5345562696456909, -2.03857421875, 0.483154296875, -0.213623046875, 0, 
84, 1022313267, 0.41952356696128845, -0.45872700214385986, -0.5051016211509705, -0.5987052321434021, 9.50346851348877, 2.1088502407073975, 0.6517587304115295, 1.263767957687378, -1.366237759590149, 0.5041009187698364, -2.03662109375, 0.485107421875, -0.215576171875, 0, 
85, 1022321600, 0.41953036189079285, -0.45872846245765686, -0.5050989985466003, -0.5987016558647156, 9.471024513244629, 2.1241180896759033, 0.6673418879508972, 1.192022442817688, -1.3133186101913452, 0.48676010966300964, -2.03271484375, 0.484375, -0.216796875, 0, 
86, 1022329933, 0.4195297956466675, -0.4587346315383911, -0.505111038684845, -0.5986871719360352, 9.521020889282227, 2.1126296520233154, 0.6457603573799133, 1.2764469385147095, -1.571228265762329, 0.4391176104545593, -2.0341796875, 0.483154296875, -0.21240234375, 0, 
87, 1022338266, 0.41954171657562256, -0.4587249755859375, -0.5051310062408447, -0.5986692905426025, 9.534889221191406, 2.1224684715270996, 0.6554940938949585, 1.4750597476959229, -1.4297353029251099, 0.38315051794052124, -2.033447265625, 0.483154296875, -0.21240234375, 0, 
88, 1022346599, 0.41955846548080444, -0.4587118625640869, -0.5051392316818237, -0.5986607670783997, 9.500689506530762, 2.12125301361084, 0.6591284275054932, 1.4238312244415283, -1.232019066810608, 0.4363512694835663, -2.03466796875, 0.482666015625, -0.21044921875, 0, 
89, 1022354932, 0.4195777475833893, -0.4586995244026184, -0.5051430463790894, -0.5986534357070923, 9.508977890014648, 2.1211163997650146, 0.6512083411216736, 1.3483717441558838, -1.1939821243286133, 0.46911191940307617, -2.040283203125, 0.480712890625, -0.213623046875, 0, 
90, 1022363265, 0.4195927083492279, -0.4586949944496155, -0.5051421523094177, -0.5986472368240356, 9.53836727142334, 2.1414849758148193, 0.6462165713310242, 1.2709141969680786, -1.2472082376480103, 0.5253095626831055, -2.0341796875, 0.48193359375, -0.21044921875, 0, 
91, 1022371598, 0.41961291432380676, -0.45868366956710815, -0.5051482319831848, -0.5986365675926208, 9.511933326721191, 2.1209468841552734, 0.6399077773094177, 1.3198630809783936, -1.2440065145492554, 0.48286673426628113, -2.03955078125, 0.485107421875, -0.215576171875, 0, 
92, 1022379931, 0.4196292757987976, -0.45868080854415894, -0.5051431059837341, -0.5986316800117493, 9.50223159790039, 2.1346051692962646, 0.6329383850097656, 1.2287532091140747, -1.2209280729293823, 0.5669582486152649, -2.037841796875, 0.480224609375, -0.216796875, 0, 
93, 1022388264, 0.4196382761001587, -0.45867598056793213, -0.5051427483558655, -0.5986291766166687, 9.504151344299316, 2.1044726371765137, 0.6416158080101013, 1.258081316947937, -1.2504613399505615, 0.4414997398853302, -2.0361328125, 0.478759765625, -0.216064453125, 0, 
94, 1022396597, 0.4196451008319855, -0.4586750864982605, -0.505139172077179, -0.5986281037330627, 9.510479927062988, 2.1087310314178467, 0.6657546758651733, 1.1434321403503418, -1.2878837585449219, 0.4710073471069336, -2.033447265625, 0.48388671875, -0.211181640625, 0, 
95, 1022404930, 0.41965556144714355, -0.45866918563842773, -0.5051299929618835, -0.5986332297325134, 9.501534461975098, 2.135167360305786, 0.6608326435089111, 1.2104134559631348, -1.117139220237732, 0.45968589186668396, -2.035400390625, 0.47998046875, -0.21728515625, 0, 
96, 1022413263, 0.4196675419807434, -0.45866772532463074, -0.5051203966140747, -0.5986340045928955, 9.513397216796875, 2.140835762023926, 0.6976665258407593, 1.1156920194625854, -1.199821949005127, 0.5367847084999084, -2.037109375, 0.48388671875, -0.214111328125, 0, 
97, 1022421596, 0.4196915328502655, -0.45866328477859497, -0.5051183104515076, -0.5986224412918091, 9.535321235656738, 2.1298160552978516, 0.6341914534568787, 1.2222472429275513, -1.2386530637741089, 0.6183915734291077, -2.033935546875, 0.485107421875, -0.215576171875, 0, 
98, 1022429929, 0.4196922779083252, -0.45867860317230225, -0.5051106214523315, -0.5986167192459106, 9.517911911010742, 2.1392035484313965, 0.6698295474052429, 1.009930968284607, -1.468669056892395, 0.5847858786582947, -2.03466796875, 0.484375, -0.213623046875, 0, 
99, 1022438262, 0.41970402002334595, -0.4586924910545349, -0.5050963759422302, -0.5986097455024719, 9.519905090332031, 2.1304666996002197, 0.6699127554893494, 1.073403000831604, -1.337216854095459, 0.7066327333450317, -2.035400390625, 0.48193359375, -0.213623046875, 0, 
100, 1022446595, 0.41970720887184143, -0.4587134122848511, -0.505088210105896, -0.5985983610153198, 9.50510311126709, 2.1138341426849365, 0.6321597099304199, 1.0271437168121338, -1.5299127101898193, 0.6800963878631592, -2.039794921875, 0.478271484375, -0.2109375, 0, 
101, 1022454928, 0.4197220504283905, -0.45872586965560913, -0.5050781965255737, -0.5985868573188782, 9.495179176330566, 2.1228344440460205, 0.6417680978775024, 1.0926647186279297, -1.3751513957977295, 0.7157513499259949, -2.033447265625, 0.485595703125, -0.21484375, 0, 
102, 1022463261, 0.4197321832180023, -0.4587377607822418, -0.5050653219223022, -0.5985815525054932, 9.502086639404297, 2.130014181137085, 0.6205146908760071, 1.041231393814087, -1.342057704925537, 0.6702348589897156, -2.037841796875, 0.480712890625, -0.21484375, 0, 
103, 1022471594, 0.41973888874053955, -0.4587588310241699, -0.5050452351570129, -0.5985776782035828, 9.528014183044434, 2.1310184001922607, 0.6196646690368652, 0.9595732688903809, -1.370797038078308, 0.7356023788452148, -2.031494140625, 0.48193359375, -0.218017578125, 0, 
104, 1022479927, 0.4197556674480438, -0.4587678909301758, -0.5050262212753296, -0.5985749959945679, 9.514650344848633, 2.1193575859069824, 0.6926866173744202, 1.032292127609253, -1.2223625183105469, 0.7278156876564026, -2.033447265625, 0.48388671875, -0.213623046875, 0, 
105, 1022488260, 0.41977035999298096, -0.45877766609191895, -0.5050193071365356, -0.598563015460968, 9.522845268249512, 2.114405870437622, 0.691011369228363, 1.1635138988494873, -1.3666476011276245, 0.6823504567146301, -2.04150390625, 0.486328125, -0.213623046875, 0, 
106, 1022496593, 0.41978919506073, -0.45879048109054565, -0.5050177574157715, -0.5985413193702698, 9.487526893615723, 2.10636830329895, 0.7024062275886536, 1.2992180585861206, -1.4589099884033203, 0.7698742747306824, -2.03662109375, 0.485595703125, -0.21875, 0, 
107, 1022504926, 0.41980618238449097, -0.4588029384613037, -0.5050243139266968, -0.5985142588615417, 9.48695182800293, 2.1061320304870605, 0.6841657757759094, 1.29073965549469, -1.5645173788070679, 0.7156744599342346, -2.037109375, 0.484619140625, -0.212890625, 0, 
108, 1022513259, 0.4198170304298401, -0.4588175415992737, -0.5050249695777893, -0.5984948873519897, 9.490361213684082, 2.1131980419158936, 0.6647239923477173, 1.2410224676132202, -1.527530550956726, 0.6892150044441223, -2.035888671875, 0.48193359375, -0.213623046875, 0, 
109, 1022521592, 0.4198286533355713, -0.4588242471218109, -0.5050308108329773, -0.5984767079353333, 9.516716957092285, 2.0901637077331543, 0.639214038848877, 1.2431997060775757, -1.4901080131530762, 0.5857847332954407, -2.03271484375, 0.48193359375, -0.215576171875, 0, 
110, 1022529925, 0.4198478162288666, -0.4588218033313751, -0.5050231218338013, -0.5984715819358826, 9.525142669677734, 2.1182780265808105, 0.6625678539276123, 1.2230666875839233, -1.1903958320617676, 0.6096059679985046, -2.0361328125, 0.480224609375, -0.21240234375, 0, 
111, 1022538258, 0.41985926032066345, -0.45881515741348267, -0.5050185322761536, -0.5984724164009094, 9.528029441833496, 2.094686269760132, 0.6398974657058716, 1.217841386795044, -1.1762312650680542, 0.4554338753223419, -2.038330078125, 0.485107421875, -0.2109375, 0, 
112, 1022546591, 0.419863224029541, -0.4588053822517395, -0.5050197243690491, -0.5984761714935303, 9.50593090057373, 2.1042330265045166, 0.6552022099494934, 1.1789849996566772, -1.230021357536316, 0.327849417924881, -2.037841796875, 0.4794921875, -0.214111328125, 0, 
113, 1022554924, 0.4198639690876007, -0.4588031768798828, -0.5050109028816223, -0.5984847545623779, 9.50369930267334, 2.1321945190429688, 0.6503015160560608, 1.121199131011963, -1.1952370405197144, 0.386249840259552, -2.032958984375, 0.48193359375, -0.21435546875, 0, 
114, 1022563257, 0.4198702573776245, -0.4588024616241455, -0.5050153136253357, -0.5984770655632019, 9.483668327331543, 2.121385335922241, 0.6889868974685669, 1.2501922845840454, -1.3802741765975952, 0.45358967781066895, -2.032958984375, 0.4794921875, -0.21728515625, 0, 
115, 1022571590, 0.4198686182498932, -0.45880383253097534, -0.5050227642059326, -0.5984711050987244, 9.51911735534668, 2.117382764816284, 0.6955975890159607, 1.1866178512573242, -1.455836296081543, 0.3637349307537079, -2.040283203125, 0.486328125, -0.216064453125, 0, 
116, 1022579923, 0.4198596179485321, -0.45880183577537537, -0.5050233602523804, -0.598478376865387, 9.518961906433105, 2.1338162422180176, 0.631286084651947, 1.0252481698989868, -1.3591939210891724, 0.2570004463195801, -2.03271484375, 0.482666015625, -0.21484375, 0, 
117, 1022588256, 0.41986072063446045, -0.45880550146102905, -0.5050278902053833, -0.5984710454940796, 9.532599449157715, 2.1110100746154785, 0.6616443395614624, 1.1964280605316162, -1.4448477029800415, 0.4302038848400116, -2.035400390625, 0.478759765625, -0.21728515625, 0, 
118, 1022596589, 0.4198543429374695, -0.4588004946708679, -0.5050334334373474, -0.5984746813774109, 9.537117958068848, 2.116795778274536, 0.653760552406311, 1.1253485679626465, -1.36749267578125, 0.24898315966129303, -2.037109375, 0.484375, -0.215576171875, 0, 
119, 1022604922, 0.4198790192604065, -0.4587702751159668, -0.5050554871559143, -0.598461925983429, 9.511981010437012, 2.1241555213928223, 0.6734191179275513, 1.2791619300842285, -1.2346829175949097, 0.27664655447006226, -2.03271484375, 0.485595703125, -0.21923828125, 0, 
120, 1022613255, 0.41987526416778564, -0.45875778794288635, -0.5050597786903381, -0.5984706282615662, 9.511691093444824, 2.1195309162139893, 0.6637875437736511, 1.1403840780258179, -1.2500513792037964, 0.19688381254673004, -2.03662109375, 0.480224609375, -0.214111328125, 0, 
121, 1022621588, 0.41987037658691406, -0.4587462842464447, -0.505058765411377, -0.5984835624694824, 9.51982307434082, 2.121762752532959, 0.6670729517936707, 1.1893329620361328, -1.169930100440979, 0.20182736217975616, -2.03466796875, 0.483154296875, -0.213623046875, 0, 
122, 1022629921, 0.41986167430877686, -0.4587358236312866, -0.5050608515739441, -0.5984959602355957, 9.484820365905762, 2.1302740573883057, 0.6871378421783447, 1.0522456169128418, -1.2649846076965332, 0.16332916915416718, -2.0302734375, 0.4794921875, -0.211669921875, 0, 
123, 1022638254, 0.4198450446128845, -0.458728551864624, -0.5050632357597351, -0.5985112190246582, 9.526062965393066, 2.1283140182495117, 0.6674031615257263, 0.9297069907188416, -1.3289432525634766, 0.08646085113286972, -2.03466796875, 0.483154296875, -0.216796875, 0, 
124, 1022646587, 0.41983717679977417, -0.45871514081954956, -0.5050663352012634, -0.5985243916511536, 9.5384521484375, 2.135474681854248, 0.6367889642715454, 1.0792174339294434, -1.2359893321990967, 0.1391749531030655, -2.035400390625, 0.4814453125, -0.211669921875, 0, 
125, 1022654920, 0.41983360052108765, -0.458699107170105, -0.5050586462020874, -0.5985456705093384, 9.547492980957031, 2.1196377277374268, 0.6866085529327393, 0.9674368500709534, -1.064758062362671, 0.16532708704471588, -2.035888671875, 0.47998046875, -0.21728515625, 0, 
126, 1022663253, 0.4198327958583832, -0.4586864709854126, -0.5050647854804993, -0.5985507965087891, 9.51550006866455, 2.1708903312683105, 0.6744877099990845, 1.199066162109375, -1.2613472938537598, 0.22997738420963287, -2.0302734375, 0.480712890625, -0.212890625, 0, 
127, 1022671586, 0.41983330249786377, -0.4586907923221588, -0.5050637125968933, -0.5985479354858398, 9.545130729675293, 2.1408045291900635, 0.6595130562782288, 1.1093653440475464, -1.3918519020080566, 0.4378112852573395, -2.035400390625, 0.48193359375, -0.215576171875, 0, 
128, 1022679919, 0.41982337832450867, -0.4587044417858124, -0.505061149597168, -0.59854656457901, 9.525816917419434, 2.139775037765503, 0.6817091703414917, 0.9637995958328247, -1.5309884548187256, 0.4282059669494629, -2.03271484375, 0.485107421875, -0.213623046875, 0, 
129, 1022688252, 0.4198179244995117, -0.45873191952705383, -0.5050561428070068, -0.5985333919525146, 9.519645690917969, 2.129838466644287, 0.6699886918067932, 0.9130833745002747, -1.6819074153900146, 0.6287654042243958, -2.03466796875, 0.485107421875, -0.21484375, 0, 
130, 1022696585, 0.41980382800102234, -0.4587657153606415, -0.5050523281097412, -0.5985206365585327, 9.520336151123047, 2.12641978263855, 0.6978222131729126, 0.8900049924850464, -1.7915618419647217, 0.6090680360794067, -2.037841796875, 0.4814453125, -0.214111328125, 0, 
131, 1022704918, 0.4197998046875, -0.4587935507297516, -0.5050532221794128, -0.5985015034675598, 9.533513069152832, 2.124150514602661, 0.6247214674949646, 1.013952374458313, -1.7441245317459106, 0.6417006850242615, -2.033935546875, 0.48583984375, -0.212890625, 0, 
132, 1022713251, 0.41979825496673584, -0.4588205814361572, -0.5050494074821472, -0.598484992980957, 9.502554893493652, 2.1120686531066895, 0.6488275527954102, 1.0340594053268433, -1.6714311838150024, 0.6847581267356873, -2.037841796875, 0.48193359375, -0.216796875, 0, 
133, 1022721584, 0.41978511214256287, -0.45885419845581055, -0.5050382018089294, -0.5984780788421631, 9.479204177856445, 2.1228158473968506, 0.6910790801048279, 0.9612382650375366, -1.6579837799072266, 0.6298156380653381, -2.035888671875, 0.483154296875, -0.209228515625, 0, 
134, 1022729917, 0.4197767674922943, -0.4588714838027954, -0.5050315856933594, -0.5984762907028198, 9.50825023651123, 2.109894037246704, 0.6703638434410095, 0.9219459891319275, -1.5294259786605835, 0.49485424160957336, -2.0341796875, 0.482666015625, -0.216796875, 0, 
135, 1022738250, 0.4197658896446228, -0.45887961983680725, -0.5050293207168579, -0.5984796285629272, 9.509577751159668, 2.1153624057769775, 0.614745020866394, 0.8907478451728821, -1.4729721546173096, 0.33840247988700867, -2.032958984375, 0.480712890625, -0.214111328125, 0, 
136, 1022746583, 0.41975367069244385, -0.45888665318489075, -0.5050216913223267, -0.5984891653060913, 9.548694610595703, 2.1287503242492676, 0.6319894194602966, 0.8694368004798889, -1.3944389820098877, 0.3325367569923401, -2.037109375, 0.48193359375, -0.213623046875, 0, 
137, 1022754916, 0.4197525084018707, -0.45888468623161316, -0.5050143599510193, -0.5984976887702942, 9.53426742553711, 2.1266188621520996, 0.6355587244033813, 0.933497965335846, -1.2601946592330933, 0.3497239053249359, -2.03466796875, 0.48583984375, -0.21044921875, 0, 
138, 1022763249, 0.4197562336921692, -0.4588775634765625, -0.505005419254303, -0.5985080003738403, 9.543094635009766, 2.132812976837158, 0.6353084444999695, 1.0350583791732788, -1.1544848680496216, 0.3699592053890228, -2.0341796875, 0.48193359375, -0.212890625, 0, 
139, 1022771582, 0.4197656810283661, -0.45887184143066406, -0.5049912929534912, -0.598517656326294, 9.534868240356445, 2.124830722808838, 0.63812655210495, 1.1053695678710938, -1.0760284662246704, 0.45663779973983765, -2.035888671875, 0.482666015625, -0.212890625, 0, 
140, 1022779915, 0.41977959871292114, -0.4588555693626404, -0.5049956440925598, -0.5985168218612671, 9.51560115814209, 2.117094039916992, 0.6648668050765991, 1.3388947248458862, -1.1550997495651245, 0.3720596134662628, -2.038330078125, 0.486328125, -0.211669921875, 0, 
141, 1022788248, 0.41978949308395386, -0.4588435888290405, -0.505002498626709, -0.5985132455825806, 9.493461608886719, 2.1081814765930176, 0.6936691403388977, 1.4940142631530762, -1.209171175956726, 0.3670903742313385, -2.0322265625, 0.484375, -0.211669921875, 0, 
142, 1022796581, 0.4198012351989746, -0.458828866481781, -0.5050132274627686, -0.598507285118103, 9.506705284118652, 2.1264493465423584, 0.7102921009063721, 1.4038008451461792, -1.2517420053482056, 0.3519267439842224, -2.035400390625, 0.4814453125, -0.2109375, 0, 
143, 1022804914, 0.41980257630348206, -0.4588349163532257, -0.5050160884857178, -0.598499059677124, 9.522926330566406, 2.1344149112701416, 0.6559516787528992, 1.2190455198287964, -1.4492278099060059, 0.4678824245929718, -2.035888671875, 0.480712890625, -0.213623046875, 0, 
144, 1022813247, 0.4198089838027954, -0.45883867144584656, -0.5050179958343506, -0.5984902381896973, 9.53414249420166, 2.137131690979004, 0.6260371208190918, 1.212231993675232, -1.4088598489761353, 0.5097617506980896, -2.03662109375, 0.484375, -0.21484375, 0, 
145, 1022821580, 0.41981130838394165, -0.45884984731674194, -0.5050126910209656, -0.5984845757484436, 9.501415252685547, 2.1313960552215576, 0.647899866104126, 1.0824192762374878, -1.4241771697998047, 0.5431114435195923, -2.03515625, 0.486328125, -0.218017578125, 0, 
146, 1022829913, 0.4198179244995117, -0.4588685631752014, -0.505000650882721, -0.5984757542610168, 9.508048057556152, 2.1310253143310547, 0.6778936982154846, 1.0114421844482422, -1.4499449729919434, 0.7025856375694275, -2.037841796875, 0.482666015625, -0.216064453125, 0, 
147, 1022838246, 0.41980665922164917, -0.45888444781303406, -0.5049880743026733, -0.5984821319580078, 9.488407135009766, 2.106698513031006, 0.6560454368591309, 1.0407447814941406, -1.3945157527923584, 0.45932725071907043, -2.037841796875, 0.484619140625, -0.2109375, 0, 
148, 1022846579, 0.4198083281517029, -0.45888829231262207, -0.5049861073493958, -0.5984797477722168, 9.488296508789062, 2.1073238849639893, 0.6971868276596069, 1.1043449640274048, -1.3787630796432495, 0.4579184651374817, -2.035400390625, 0.4794921875, -0.213623046875, 0, 
149, 1022854912, 0.41980063915252686, -0.45890480279922485, -0.5049864053726196, -0.5984721779823303, 9.495949745178223, 2.1239848136901855, 0.7015141248703003, 1.1856188774108887, -1.5525299310684204, 0.48468533158302307, -2.039794921875, 0.4833984375, -0.212890625, 0, 
150, 1022863245, 0.4197916090488434, -0.45892149209976196, -0.5049917697906494, -0.5984610319137573, 9.528291702270508, 2.114412546157837, 0.6443460583686829, 1.0834436416625977, -1.657829999923706, 0.46350234746932983, -2.035888671875, 0.48193359375, -0.215576171875, 0, 
151, 1022871578, 0.41979050636291504, -0.45892390608787537, -0.5050037503242493, -0.5984500646591187, 9.537964820861816, 2.11184024810791, 0.6647136807441711, 1.148170828819275, -1.5439234972000122, 0.36934447288513184, -2.03662109375, 0.4814453125, -0.2109375, 0, 
152, 1022879911, 0.4197843074798584, -0.458938866853714, -0.505011796951294, -0.5984361171722412, 9.515812873840332, 2.146812677383423, 0.658404529094696, 1.1543439626693726, -1.656446933746338, 0.472902774810791, -2.037841796875, 0.48193359375, -0.21484375, 0, 
153, 1022888244, 0.41975492238998413, -0.4589940309524536, -0.5050129890441895, -0.598413348197937, 9.491066932678223, 2.1370203495025635, 0.6414799094200134, 1.1003235578536987, -2.085664749145508, 0.6689285635948181, -2.037353515625, 0.4775390625, -0.21533203125, 0, 
154, 1022896577, 0.4197278916835785, -0.4590529799461365, -0.5050303936004639, -0.5983724594116211, 9.56289291381836, 2.1385388374328613, 0.6920691728591919, 1.0322664976119995, -2.3867344856262207, 0.7045836448669434, -2.035400390625, 0.485107421875, -0.215576171875, 0, 
155, 1022904910, 0.419702410697937, -0.45910727977752686, -0.5050408840179443, -0.5983395576477051, 9.537821769714355, 2.1379692554473877, 0.6593686938285828, 1.010443091392517, -2.229334831237793, 0.6731293201446533, -2.0361328125, 0.478271484375, -0.212890625, 0, 
156, 1022913243, 0.4196850657463074, -0.459159791469574, -0.5050407648086548, -0.5983116030693054, 9.515549659729004, 2.095181703567505, 0.622231125831604, 0.8970233798027039, -2.0843071937561035, 0.7768926024436951, -2.0341796875, 0.48193359375, -0.21240234375, 0, 
157, 1022921576, 0.4196663498878479, -0.45919671654701233, -0.50504070520401, -0.5982964634895325, 9.51626968383789, 2.097574234008789, 0.6086289882659912, 1.0163344144821167, -1.8515249490737915, 0.5797910094261169, -2.0341796875, 0.483154296875, -0.21240234375, 0, 
158, 1022929909, 0.41966620087623596, -0.4592154026031494, -0.5050312280654907, -0.5982902646064758, 9.515311241149902, 2.115156412124634, 0.6195930242538452, 0.9730463624000549, -1.4947441816329956, 0.6150618195533752, -2.0322265625, 0.48388671875, -0.21240234375, 0, 
159, 1022938242, 0.41967278718948364, -0.4592273235321045, -0.5050150752067566, -0.5982900261878967, 9.523993492126465, 2.1007795333862305, 0.6426516771316528, 0.9683333039283752, -1.306607723236084, 0.6241548657417297, -2.035888671875, 0.480712890625, -0.212890625, 0, 
160, 1022946575, 0.4196770191192627, -0.4592335820198059, -0.5050027370452881, -0.5982927680015564, 9.524523735046387, 2.127779960632324, 0.65426105260849, 0.9866475462913513, -1.2894461154937744, 0.531277596950531, -2.039794921875, 0.484619140625, -0.212890625, 0, 
161, 1022954908, 0.41969311237335205, -0.4592413008213043, -0.504990816116333, -0.5982854962348938, 9.51307201385498, 2.130640745162964, 0.6583322882652283, 0.9963040351867676, -1.3068639039993286, 0.6756650805473328, -2.035400390625, 0.484619140625, -0.21044921875, 0, 
162, 1022963241, 0.4196982681751251, -0.4592553377151489, -0.5049731731414795, -0.598285973072052, 9.514908790588379, 2.1344635486602783, 0.6228628158569336, 0.9198712110519409, -1.3310694694519043, 0.6391135454177856, -2.039794921875, 0.4833984375, -0.212158203125, 0, 
163, 1022971574, 0.4197026491165161, -0.45927131175994873, -0.504955530166626, -0.5982856154441833, 9.509949684143066, 2.1134395599365234, 0.6348695755004883, 0.8567833304405212, -1.362293004989624, 0.6375511288642883, -2.0322265625, 0.48193359375, -0.215576171875, 0, 
164, 1022979907, 0.419704794883728, -0.4592796266078949, -0.5049364566802979, -0.5982938408851624, 9.505083084106445, 2.0986149311065674, 0.6496999263763428, 0.8670547604560852, -1.2473363876342773, 0.541164755821228, -2.037841796875, 0.483154296875, -0.214111328125, 0, 
165, 1022988240, 0.4197056293487549, -0.45928746461868286, -0.5049140453338623, -0.5983061194419861, 9.545319557189941, 2.0692248344421387, 0.6350937485694885, 0.8338072896003723, -1.19564688205719, 0.5155504941940308, -2.03955078125, 0.485107421875, -0.21484375, 0, 
166, 1022996573, 0.4197157025337219, -0.45928990840911865, -0.5048961043357849, -0.5983123183250427, 9.517143249511719, 2.1189868450164795, 0.6573033332824707, 0.9744806885719299, -1.1631423234939575, 0.5694940686225891, -2.03466796875, 0.48583984375, -0.212890625, 0, 
167, 1023004906, 0.4197133183479309, -0.459303617477417, -0.504875898361206, -0.5983205437660217, 9.516535758972168, 2.111140251159668, 0.719068169593811, 0.8942058086395264, -1.2890876531600952, 0.5426760315895081, -2.03466796875, 0.484375, -0.21484375, 0, 
168, 1023013239, 0.4197211265563965, -0.4593077301979065, -0.5048668384552002, -0.5983195900917053, 9.529787063598633, 2.1273744106292725, 0.6381481885910034, 1.0738893747329712, -1.289241075515747, 0.5476194620132446, -2.03466796875, 0.483154296875, -0.21484375, 0, 
169, 1023021572, 0.41972944140434265, -0.45930713415145874, -0.504862368106842, -0.5983180999755859, 9.490047454833984, 2.102832317352295, 0.6280993819236755, 0.9944087266921997, -1.3036365509033203, 0.4699059724807739, -2.031494140625, 0.487548828125, -0.216796875, 0, 
170, 1023029905, 0.4197385311126709, -0.4593087434768677, -0.5048531889915466, -0.5983182191848755, 9.516583442687988, 2.089326858520508, 0.6649957299232483, 1.0879006385803223, -1.2518956661224365, 0.535683274269104, -2.031494140625, 0.480712890625, -0.212890625, 0, 
171, 1023038238, 0.4197610020637512, -0.45929187536239624, -0.5048420429229736, -0.5983247756958008, 9.549481391906738, 2.078909397125244, 0.5652462840080261, 1.121455192565918, -0.9704208970069885, 0.47420910000801086, -2.037109375, 0.48828125, -0.211181640625, 0, 
172, 1023046571, 0.41979455947875977, -0.4592510461807251, -0.5048317313194275, -0.5983412861824036, 9.551534652709961, 2.099123477935791, 0.6121760606765747, 1.364277958869934, -0.6221696734428406, 0.3548467755317688, -2.03662109375, 0.484375, -0.213623046875, 0, 
173, 1023054904, 0.4198216497898102, -0.45920947194099426, -0.5048210024833679, -0.5983631610870361, 9.53230094909668, 2.0987799167633057, 0.6464453339576721, 1.4274429082870483, -0.5890249013900757, 0.2659398019313812, -2.039794921875, 0.480224609375, -0.21728515625, 0, 
174, 1023063237, 0.4198695123195648, -0.45914605259895325, -0.5048224925994873, -0.5983768701553345, 9.511493682861328, 2.1065924167633057, 0.6881760954856873, 1.701566457748413, -0.42291662096977234, 0.254387766122818, -2.035400390625, 0.482666015625, -0.21484375, 0, 
175, 1023071570, 0.41990822553634644, -0.4591047465801239, -0.5048263669013977, -0.5983783006668091, 9.475018501281738, 2.124493360519409, 0.7196494340896606, 1.465505599975586, -0.7893026471138, 0.36977988481521606, -2.035400390625, 0.480224609375, -0.209228515625, 0, 
176, 1023079903, 0.41994285583496094, -0.45907062292099, -0.5048285126686096, -0.5983782410621643, 9.505094528198242, 2.1333606243133545, 0.6641184687614441, 1.5492385625839233, -0.847037136554718, 0.4261312186717987, -2.037841796875, 0.48388671875, -0.212890625, 0, 
177, 1023088236, 0.41996878385543823, -0.459058940410614, -0.5048342943191528, -0.5983641147613525, 9.504578590393066, 2.1205739974975586, 0.7103531360626221, 1.3932478427886963, -1.2168042659759521, 0.5497198700904846, -2.03271484375, 0.48681640625, -0.21630859375, 0, 
178, 1023096569, 0.4199802875518799, -0.45906996726989746, -0.5048385262489319, -0.5983439683914185, 9.497615814208984, 2.1283676624298096, 0.7045494914054871, 1.2997559309005737, -1.517771601676941, 0.6526123285293579, -2.037841796875, 0.483154296875, -0.213623046875, 0, 
179, 1023104902, 0.4199797809123993, -0.4591028690338135, -0.5048357248306274, -0.5983214974403381, 9.536144256591797, 2.104447364807129, 0.6758912801742554, 1.0698680877685547, -1.7481714487075806, 0.7539933919906616, -2.037841796875, 0.484619140625, -0.214111328125, 0, 
180, 1023113235, 0.4199708104133606, -0.4591260254383087, -0.5048398971557617, -0.5983065366744995, 9.50770092010498, 2.109957695007324, 0.6687369346618652, 1.0656931400299072, -1.7281156778335571, 0.5390644073486328, -2.0361328125, 0.4794921875, -0.213623046875, 0, 
181, 1023121568, 0.41995927691459656, -0.4591529369354248, -0.5048370361328125, -0.5982965230941772, 9.490508079528809, 2.118988275527954, 0.6581593751907349, 0.9385696053504944, -1.6958928108215332, 0.5486440658569336, -2.035888671875, 0.48388671875, -0.21484375, 0, 
182, 1023129901, 0.4199471175670624, -0.4591823220252991, -0.5048226118087769, -0.5982947945594788, 9.499564170837402, 2.102471113204956, 0.6441327929496765, 0.7636499404907227, -1.60939359664917, 0.5962609052658081, -2.03857421875, 0.4814453125, -0.21044921875, 0, 
183, 1023138234, 0.41994020342826843, -0.4591994285583496, -0.5048076510429382, -0.5982987880706787, 9.480175018310547, 2.086970329284668, 0.6776329874992371, 0.8549903631210327, -1.420206904411316, 0.5161396265029907, -2.03662109375, 0.48583984375, -0.21435546875, 0, 
184, 1023146567, 0.41993439197540283, -0.4592045545578003, -0.5047950148582458, -0.5983096361160278, 9.496421813964844, 2.0705907344818115, 0.6535624265670776, 0.8711786270141602, -1.2977964878082275, 0.39636749029159546, -2.031005859375, 0.48388671875, -0.213623046875, 0, 
185, 1023154900, 0.4199276566505432, -0.4591982960700989, -0.5047845244407654, -0.5983279943466187, 9.508124351501465, 2.09001088142395, 0.6626465320587158, 0.8791958689689636, -1.1719025373458862, 0.24181118607521057, -2.033935546875, 0.48388671875, -0.215576171875, 0, 
186, 1023163233, 0.41992151737213135, -0.4591878354549408, -0.5047796368598938, -0.5983443856239319, 9.495793342590332, 2.1045377254486084, 0.6673960089683533, 0.9825748205184937, -1.1790488958358765, 0.20397897064685822, -2.033447265625, 0.485107421875, -0.216064453125, 0, 
187, 1023171566, 0.419924259185791, -0.45916813611984253, -0.5047793984413147, -0.5983580350875854, 9.520963668823242, 2.102670907974243, 0.6915439963340759, 1.1365164518356323, -1.0848653316497803, 0.18894340097904205, -2.037841796875, 0.48388671875, -0.21044921875, 0, 
188, 1023179899, 0.4199253022670746, -0.4591514766216278, -0.5047804713249207, -0.5983691811561584, 9.524303436279297, 2.1097309589385986, 0.6362024545669556, 1.1507322788238525, -1.147876262664795, 0.21325130760669708, -2.035888671875, 0.480712890625, -0.215576171875, 0, 
189, 1023188232, 0.4199237525463104, -0.45912301540374756, -0.5047781467437744, -0.5983940958976746, 9.516857147216797, 2.123042583465576, 0.6610657572746277, 1.1182020902633667, -0.9462410807609558, 0.04345454275608063, -2.031494140625, 0.484375, -0.21630859375, 0, 
190, 1023196565, 0.4199238419532776, -0.4591032862663269, -0.5047788023948669, -0.5984086394309998, 9.513946533203125, 2.116304874420166, 0.6698565483093262, 1.134544014930725, -1.104997992515564, 0.1678628772497177, -2.03662109375, 0.48193359375, -0.213623046875, 0, 
191, 1023204898, 0.41992294788360596, -0.45908939838409424, -0.5047810673713684, -0.5984178781509399, 9.49277400970459, 2.112792491912842, 0.663132905960083, 1.0933564901351929, -1.2070709466934204, 0.2046961635351181, -2.03515625, 0.487060546875, -0.211669921875, 0, 
192, 1023213231, 0.4199199080467224, -0.45907410979270935, -0.5047802925109863, -0.5984324216842651, 9.48709487915039, 2.1144661903381348, 0.6641629338264465, 1.0793709754943848, -1.156098484992981, 0.18079806864261627, -2.035888671875, 0.48193359375, -0.213623046875, 0, 
193, 1023221564, 0.4199167490005493, -0.45905810594558716, -0.5047851800918579, -0.5984429121017456, 9.482495307922363, 2.118479013442993, 0.6747992038726807, 1.1626431941986084, -1.199694037437439, 0.15328839421272278, -2.035400390625, 0.482666015625, -0.21240234375, 0, 
194, 1023229897, 0.4199070930480957, -0.4590415358543396, -0.5047963857650757, -0.5984529256820679, 9.492352485656738, 2.1111605167388916, 0.6781602501869202, 1.173093557357788, -1.2884984016418457, 0.06768561154603958, -2.03466796875, 0.48388671875, -0.212890625, 0, 
195, 1023238230, 0.41989293694496155, -0.4590286314487457, -0.5048170685768127, -0.5984552502632141, 9.500259399414062, 2.1100337505340576, 0.6807504296302795, 1.1391290426254272, -1.4720243215560913, 0.02219473384320736, -2.032958984375, 0.47998046875, -0.213623046875, 0, 
196, 1023246563, 0.4198775291442871, -0.4590224027633667, -0.5048435926437378, -0.5984484553337097, 9.515652656555176, 2.124518871307373, 0.6461869478225708, 1.3204522132873535, -1.608394742012024, 0.09401705116033554, -2.03662109375, 0.484619140625, -0.211669921875, 0, 
197, 1023254896, 0.41986823081970215, -0.4590071439743042, -0.5048726201057434, -0.5984421372413635, 9.53862190246582, 2.10432767868042, 0.6577790975570679, 1.274705171585083, -1.5302199125289917, 0.0398685596883297, -2.03271484375, 0.485595703125, -0.215576171875, 0, 
198, 1023263229, 0.41986289620399475, -0.45898157358169556, -0.5048993825912476, -0.5984428524971008, 9.507781028747559, 2.111765146255493, 0.6585761904716492, 1.4454498291015625, -1.3331185579299927, -0.002254052786156535, -2.0390625, 0.480224609375, -0.211669921875, 0, 
199, 1023271562, 0.4198598265647888, -0.4589494466781616, -0.5049276351928711, -0.5984458327293396, 9.487237930297852, 2.118380069732666, 0.6743623614311218, 1.4427602291107178, -1.261757254600525, -0.06757035851478577, -2.0322265625, 0.48388671875, -0.213623046875, 0, 
200, 1023279895, 0.4198608696460724, -0.45890963077545166, -0.504950761795044, -0.598456084728241, 9.52403736114502, 2.125410795211792, 0.6307142972946167, 1.4719349145889282, -1.0902186632156372, -0.08096660673618317, -2.033447265625, 0.483154296875, -0.213623046875, 0, 
201, 1023288228, 0.41985681653022766, -0.458869069814682, -0.5049753785133362, -0.5984693169593811, 9.519241333007812, 2.1016457080841064, 0.6450590491294861, 1.4325913190841675, -1.1016169786453247, -0.16615954041481018, -2.0341796875, 0.48388671875, -0.213623046875, 0, 
202, 1023296561, 0.4198582172393799, -0.45882517099380493, -0.5050024390220642, -0.5984792113304138, 9.52876091003418, 2.1246907711029053, 0.6618909239768982, 1.5333064794540405, -1.0791279077529907, -0.1294543445110321, -2.033935546875, 0.48388671875, -0.215576171875, 0, 
203, 1023304894, 0.41985440254211426, -0.45878469944000244, -0.5050225257873535, -0.5984959006309509, 9.508261680603027, 2.1058096885681152, 0.7034448981285095, 1.3072607517242432, -1.0686001777648926, -0.16067807376384735, -2.037353515625, 0.4794921875, -0.21533203125, 0, 
204, 1023313227, 0.4198513925075531, -0.4587453603744507, -0.5050514936447144, -0.5985037684440613, 9.543237686157227, 2.1100590229034424, 0.6266143321990967, 1.5085117816925049, -1.1710059642791748, -0.13439789414405823, -2.03466796875, 0.48193359375, -0.212890625, 0, 
205, 1023321560, 0.41984882950782776, -0.4587152600288391, -0.5050680041313171, -0.5985146164894104, 9.493803977966309, 2.126490354537964, 0.6536113619804382, 1.350600004196167, -1.141498327255249, -0.01636749692261219, -2.0390625, 0.48193359375, -0.211669921875, 0, 
206, 1023329893, 0.41984742879867554, -0.45868152379989624, -0.5050913691520691, -0.5985217094421387, 9.529501914978027, 2.1270456314086914, 0.6714476943016052, 1.445296049118042, -1.1779985427856445, -0.042545244097709656, -2.03271484375, 0.484375, -0.211669921875, 0, 
207, 1023338226, 0.4198514521121979, -0.45864737033843994, -0.5051114559173584, -0.598528265953064, 9.532812118530273, 2.15010142326355, 0.6625868678092957, 1.4034935235977173, -1.1296900510787964, 0.008772874251008034, -2.03466796875, 0.485107421875, -0.217529296875, 0, 
208, 1023346559, 0.41984832286834717, -0.4586228132247925, -0.5051289200782776, -0.5985345244407654, 9.535160064697266, 2.141540765762329, 0.6546304225921631, 1.3386895656585693, -1.2364246845245361, 0.048603009432554245, -2.0341796875, 0.481201171875, -0.218017578125, 0, 
209, 1023354892, 0.4198639392852783, -0.4586019217967987, -0.5051466226577759, -0.5985245704650879, 9.526806831359863, 2.153991460800171, 0.6591799259185791, 1.2852839231491089, -1.2926989793777466, 0.29004278779029846, -2.0390625, 0.484375, -0.21728515625, 0, 
210, 1023363225, 0.41986775398254395, -0.45859333872795105, -0.5051512122154236, -0.5985247492790222, 9.527399063110352, 2.1406145095825195, 0.6710381507873535, 1.2262686491012573, -1.2839902639389038, 0.3343554139137268, -2.03271484375, 0.48388671875, -0.213623046875, 0, 
211, 1023371558, 0.4198724627494812, -0.4585891366004944, -0.5051645636558533, -0.5985132455825806, 9.482131958007812, 2.10697865486145, 0.679053544998169, 1.262845754623413, -1.4550421237945557, 0.36506685614585876, -2.03662109375, 0.48193359375, -0.211669921875, 0, 
212, 1023379891, 0.41987261176109314, -0.4585905373096466, -0.5051674246788025, -0.5985096096992493, 9.47984790802002, 2.119149684906006, 0.680437445640564, 1.1576738357543945, -1.4063241481781006, 0.4048202335834503, -2.03466796875, 0.48193359375, -0.212890625, 0, 
213, 1023388224, 0.4198746085166931, -0.4585862457752228, -0.5051799416542053, -0.5985009074211121, 9.528863906860352, 2.1195614337921143, 0.6328585743904114, 1.3502929210662842, -1.418004035949707, 0.3408870995044708, -2.03466796875, 0.484375, -0.218017578125, 0, 
214, 1023396557, 0.4198738932609558, -0.4585952162742615, -0.5051785111427307, -0.5984958410263062, 9.530122756958008, 2.114041328430176, 0.6670286059379578, 1.082624077796936, -1.45809006690979, 0.4860941171646118, -2.03271484375, 0.48388671875, -0.211669921875, 0, 
215, 1023404890, 0.4198744297027588, -0.45859917998313904, -0.5051786303520203, -0.5984922647476196, 9.525620460510254, 2.1308557987213135, 0.6482036709785461, 1.09215247631073, -1.41139554977417, 0.429794043302536, -2.033447265625, 0.48388671875, -0.217529296875, 0, 
216, 1023413223, 0.4198683500289917, -0.45860159397125244, -0.5051732659339905, -0.5984992980957031, 9.529535293579102, 2.137165069580078, 0.6485360264778137, 0.9715607166290283, -1.343082308769226, 0.35302817821502686, -2.033447265625, 0.48388671875, -0.212890625, 0, 
217, 1023421556, 0.41986095905303955, -0.45861077308654785, -0.5051688551902771, -0.5985012054443359, 9.528286933898926, 2.1238787174224854, 0.6745842099189758, 1.0498377084732056, -1.41972017288208, 0.40553736686706543, -2.03466796875, 0.48193359375, -0.21484375, 0, 
218, 1023429889, 0.4198670983314514, -0.45859819650650024, -0.5051761865615845, -0.5985003113746643, 9.52553653717041, 2.1003401279449463, 0.6535402536392212, 1.293326735496521, -1.257402777671814, 0.3145812153816223, -2.035400390625, 0.482666015625, -0.216796875, 0, 
219, 1023438222, 0.4198690950870514, -0.4585977792739868, -0.5051760077476501, -0.5984992980957031, 9.515071868896484, 2.1202547550201416, 0.6852492094039917, 1.1328022480010986, -1.3392658233642578, 0.4005937874317169, -2.037109375, 0.484619140625, -0.212890625, 0, 
220, 1023446555, 0.419871985912323, -0.4585918188095093, -0.5051825046539307, -0.5984963178634644, 9.509819030761719, 2.0967888832092285, 0.6648650169372559, 1.242943525314331, -1.3421858549118042, 0.35028746724128723, -2.03466796875, 0.4794921875, -0.21728515625, 0, 
221, 1023454888, 0.41987287998199463, -0.45858317613601685, -0.5051993727684021, -0.5984880924224854, 9.49227237701416, 2.1124439239501953, 0.6639434099197388, 1.2041891813278198, -1.4591147899627686, 0.2568979561328888, -2.03662109375, 0.484375, -0.215576171875, 0, 
222, 1023463221, 0.4198664724826813, -0.45858198404312134, -0.5052129626274109, -0.5984819531440735, 9.495853424072266, 2.1198575496673584, 0.6578919887542725, 1.2386404275894165, -1.509344458580017, 0.2806936204433441, -2.0322265625, 0.481201171875, -0.216796875, 0, 
223, 1023471554, 0.4198670983314514, -0.45858094096183777, -0.505223274230957, -0.5984736680984497, 9.50346851348877, 2.1299426555633545, 0.6565300822257996, 1.242508053779602, -1.4534797668457031, 0.35953420400619507, -2.035400390625, 0.47998046875, -0.215576171875, 0, 
224, 1023479887, 0.4198707342147827, -0.4585762023925781, -0.5052287578582764, -0.5984700918197632, 9.537203788757324, 2.0911033153533936, 0.6603507995605469, 1.2363606691360474, -1.3453108072280884, 0.3735707998275757, -2.035888671875, 0.482666015625, -0.21240234375, 0, 
225, 1023488220, 0.419874370098114, -0.4585667848587036, -0.5052379369735718, -0.5984671711921692, 9.522759437561035, 2.1461997032165527, 0.6390392780303955, 1.3226038217544556, -1.3118586540222168, 0.3076653778553009, -2.0302734375, 0.484375, -0.213623046875, 0, 
226, 1023496553, 0.4198733866214752, -0.4585677981376648, -0.5052431225776672, -0.5984627604484558, 9.530482292175293, 2.136091709136963, 0.6361265182495117, 1.1769100427627563, -1.4285314083099365, 0.38389328122138977, -2.0341796875, 0.4814453125, -0.21484375, 0, 
227, 1023504886, 0.41988056898117065, -0.45857539772987366, -0.5052482485771179, -0.5984475612640381, 9.494482040405273, 2.123225688934326, 0.677423894405365, 1.229957103729248, -1.4956152439117432, 0.5445202589035034, -2.0341796875, 0.47998046875, -0.216796875, 0, 
228, 1023513219, 0.41988155245780945, -0.45857998728752136, -0.5052539706230164, -0.5984384417533875, 9.499459266662598, 2.136833667755127, 0.6488995552062988, 1.2066227197647095, -1.4772498607635498, 0.4486205577850342, -2.032958984375, 0.4794921875, -0.215576171875, 0, 
229, 1023521552, 0.41986310482025146, -0.45860013365745544, -0.5052524209022522, -0.5984371900558472, 9.473740577697754, 2.1133713722229004, 0.6952324509620667, 1.070226788520813, -1.598661184310913, 0.39928746223449707, -2.03662109375, 0.47998046875, -0.218017578125, 0, 
230, 1023529885, 0.4198541045188904, -0.45860716700553894, -0.5052505731582642, -0.5984396934509277, 9.522716522216797, 2.108022451400757, 0.6743738651275635, 0.9872622489929199, -1.4520453214645386, 0.36381176114082336, -2.0390625, 0.482666015625, -0.218505859375, 0, 
231, 1023538218, 0.4198540449142456, -0.45860785245895386, -0.5052627325057983, -0.5984289050102234, 9.533561706542969, 2.0917747020721436, 0.6323598623275757, 1.3030344247817993, -1.4892884492874146, 0.3708813190460205, -2.035400390625, 0.478759765625, -0.21728515625, 0, 
232, 1023546551, 0.4198588728904724, -0.4585999548435211, -0.5052587985992432, -0.5984349250793457, 9.510041236877441, 2.140409469604492, 0.625802218914032, 1.1176388263702393, -1.1962871551513672, 0.366987943649292, -2.039794921875, 0.480712890625, -0.213623046875, 0, 
233, 1023554884, 0.4198617935180664, -0.45859724283218384, -0.5052580237388611, -0.5984356999397278, 9.50041675567627, 2.144390821456909, 0.6762540340423584, 1.124067783355713, -1.3014079332351685, 0.3846873939037323, -2.03662109375, 0.478271484375, -0.212158203125, 0, 
234, 1023563217, 0.41985997557640076, -0.4586102366447449, -0.5052523612976074, -0.5984317660331726, 9.540375709533691, 2.1538338661193848, 0.6603822112083435, 1.010187029838562, -1.4676958322525024, 0.5262316465377808, -2.0341796875, 0.482666015625, -0.215576171875, 0, 
235, 1023571550, 0.41985270380973816, -0.458637535572052, -0.5052329897880554, -0.5984323024749756, 9.528785705566406, 2.1326122283935547, 0.6513027548789978, 1.0124666690826416, -1.4510207176208496, 0.6484115123748779, -2.03662109375, 0.478759765625, -0.214111328125, 0, 
236, 1023579883, 0.4198482036590576, -0.45866844058036804, -0.5052217841148376, -0.5984212756156921, 9.523332595825195, 2.155677318572998, 0.6539834141731262, 0.8928225636482239, -1.6454840898513794, 0.7024831771850586, -2.0341796875, 0.482666015625, -0.21240234375, 0, 
237, 1023588216, 0.419842392206192, -0.4587083160877228, -0.50519859790802, -0.5984143614768982, 9.510764122009277, 2.133627414703369, 0.6353999376296997, 0.8530692458152771, -1.594793438911438, 0.8064512610435486, -2.0341796875, 0.478759765625, -0.213623046875, 0, 
238, 1023596549, 0.41983485221862793, -0.45874375104904175, -0.5051885843276978, -0.5984009504318237, 9.521255493164062, 2.1269187927246094, 0.6578679084777832, 0.8745084404945374, -1.726988673210144, 0.7171858549118042, -2.03466796875, 0.48583984375, -0.213623046875, 0, 
239, 1023604882, 0.4198387861251831, -0.45877090096473694, -0.5051761865615845, -0.5983877778053284, 9.515069007873535, 2.1241559982299805, 0.6296171545982361, 0.9459720253944397, -1.563774585723877, 0.7529944181442261, -2.03466796875, 0.4794921875, -0.216064453125, 0, 
240, 1023613215, 0.41984596848487854, -0.45879065990448, -0.5051671862602234, -0.5983752012252808, 9.510025024414062, 2.1121649742126465, 0.6444258093833923, 1.0606470108032227, -1.4958199262619019, 0.7171601057052612, -2.0390625, 0.484619140625, -0.2109375, 0, 
241, 1023621548, 0.41985028982162476, -0.45880234241485596, -0.5051576495170593, -0.5983712077140808, 9.505252838134766, 2.1110689640045166, 0.6323266625404358, 1.0139522552490234, -1.3878048658370972, 0.5810973048210144, -2.035400390625, 0.483154296875, -0.214111328125, 0, 
242, 1023629881, 0.4198566675186157, -0.45880696177482605, -0.5051476359367371, -0.598371684551239, 9.501921653747559, 2.124197483062744, 0.6397327184677124, 1.0451247692108154, -1.2894974946975708, 0.5370408296585083, -2.03466796875, 0.480712890625, -0.213623046875, 0, 
243, 1023638214, 0.41985565423965454, -0.4588240385055542, -0.5051358938217163, -0.5983691215515137, 9.516142845153809, 2.099889039993286, 0.6697606444358826, 0.9305012226104736, -1.4471275806427002, 0.5790227055549622, -2.035888671875, 0.4814453125, -0.2109375, 0, 
244, 1023646547, 0.4198484420776367, -0.4588419198989868, -0.5051219463348389, -0.5983723402023315, 9.501633644104004, 2.112405300140381, 0.6595295667648315, 0.8299139738082886, -1.4518147706985474, 0.5270256996154785, -2.03466796875, 0.478759765625, -0.214111328125, 0, 
245, 1023654880, 0.4198368489742279, -0.45886287093162537, -0.5051083564758301, -0.5983759760856628, 9.4703369140625, 2.1182925701141357, 0.669045090675354, 1.1146674156188965, -1.42737877368927, 0.517497181892395, -2.035888671875, 0.483154296875, -0.216796875, 0, 
246, 1023663213, 0.4198307991027832, -0.45887312293052673, -0.5051041841506958, -0.5983759164810181, 9.481411933898926, 2.1299519538879395, 0.6805040240287781, 0.9838811755180359, -1.4581414461135864, 0.4400653541088104, -2.037841796875, 0.48583984375, -0.214111328125, 0, 
247, 1023671546, 0.4198375940322876, -0.45887431502342224, -0.5051056146621704, -0.5983688831329346, 9.508648872375488, 2.110269069671631, 0.6822295188903809, 1.1352100372314453, -1.384218692779541, 0.4700595438480377, -2.03662109375, 0.48193359375, -0.212890625, 0, 
248, 1023679879, 0.41983187198638916, -0.45887839794158936, -0.5051121115684509, -0.5983642935752869, 9.502958297729492, 2.0790319442749023, 0.693137526512146, 1.1408708095550537, -1.4942834377288818, 0.35845842957496643, -2.031005859375, 0.48388671875, -0.215576171875, 0, 
249, 1023688212, 0.41983532905578613, -0.4588671028614044, -0.505126416683197, -0.5983585119247437, 9.496969223022461, 2.0850749015808105, 0.6447097659111023, 1.249475121498108, -1.3772517442703247, 0.2667338252067566, -2.037841796875, 0.48388671875, -0.214111328125, 0, 
250, 1023696545, 0.4198351800441742, -0.4588533639907837, -0.5051355361938477, -0.5983614921569824, 9.496969223022461, 2.125623941421509, 0.6712924242019653, 1.2497824430465698, -1.279046893119812, 0.22024399042129517, -2.037109375, 0.48388671875, -0.215576171875, 0, 
251, 1023704878, 0.4198310077190399, -0.4588390588760376, -0.505146324634552, -0.5983662009239197, 9.489876747131348, 2.105700731277466, 0.6545514464378357, 1.222042441368103, -1.2935190200805664, 0.15157224237918854, -2.037841796875, 0.48583984375, -0.214111328125, 0, 
252, 1023713211, 0.4198293089866638, -0.45881742238998413, -0.5051482915878296, -0.5983824133872986, 9.509683609008789, 2.1263184547424316, 0.655021607875824, 1.1342368125915527, -1.0992605686187744, 0.12093761563301086, -2.0322265625, 0.47998046875, -0.21240234375, 0, 
253, 1023721544, 0.41981276869773865, -0.45879659056663513, -0.5051536560058594, -0.5984053611755371, 9.469877243041992, 2.131110906600952, 0.65313321352005, 1.1421514749526978, -1.1510781049728394, -0.05811869353055954, -2.0361328125, 0.478759765625, -0.213623046875, 0, 
254, 1023729877, 0.41980114579200745, -0.4587820768356323, -0.505160391330719, -0.5984189510345459, 9.50643539428711, 2.1116552352905273, 0.6971375346183777, 1.0872089862823486, -1.270235538482666, 0.07370495796203613, -2.040283203125, 0.480224609375, -0.216064453125, 0, 
255, 1023738210, 0.419805109500885, -0.4587501287460327, -0.5051965117454529, -0.5984102487564087, 9.510100364685059, 2.1184589862823486, 0.6382376551628113, 1.4819756746292114, -1.3679282665252686, 0.0009605337982065976, -2.03662109375, 0.4814453125, -0.21240234375, 0, 
256, 1023746543, 0.41980186104774475, -0.45871785283088684, -0.5052204132080078, -0.5984170436859131, 9.52854061126709, 2.1292669773101807, 0.6583443880081177, 1.432181477546692, -1.208479642868042, -0.0501270554959774, -2.037353515625, 0.480224609375, -0.21484375, 0, 
257, 1023754876, 0.4197959303855896, -0.4587021768093109, -0.5052347183227539, -0.5984211564064026, 9.511007308959961, 2.146092653274536, 0.6211284399032593, 1.2425849437713623, -1.3205161094665527, 0.10764381289482117, -2.0341796875, 0.480712890625, -0.216064453125, 0, 
258, 1023763209, 0.4197993874549866, -0.4586716592311859, -0.5052515268325806, -0.598427951335907, 9.552896499633789, 2.1312646865844727, 0.6535735726356506, 1.4066184759140015, -1.1364779472351074, 0.06348488479852676, -2.032958984375, 0.482666015625, -0.211181640625, 0, 
259, 1023771542, 0.41979753971099854, -0.4586401581764221, -0.505263090133667, -0.5984436273574829, 9.534753799438477, 2.1414425373077393, 0.6413436532020569, 1.3318250179290771, -1.0572789907455444, -0.013088875450193882, -2.033447265625, 0.480712890625, -0.21728515625, 0, 
260, 1023779875, 0.4198017716407776, -0.4586105942726135, -0.5052812695503235, -0.5984480381011963, 9.517943382263184, 2.1436779499053955, 0.6617340445518494, 1.4321048259735107, -1.1602994203567505, 0.08126116544008255, -2.035888671875, 0.4814453125, -0.215576171875, 0, 
261, 1023788208, 0.41981029510498047, -0.45858484506607056, -0.5052982568740845, -0.5984472036361694, 9.509438514709473, 2.163464069366455, 0.6537526845932007, 1.266790509223938, -1.2264608144760132, 0.1554912030696869, -2.035400390625, 0.483154296875, -0.21728515625, 0, 
262, 1023796541, 0.41980990767478943, -0.4585808515548706, -0.5052996873855591, -0.5984493494033813, 9.541461944580078, 2.1464076042175293, 0.6478695273399353, 1.13428795337677, -1.320695400238037, 0.3384536802768707, -2.032958984375, 0.480712890625, -0.215576171875, 0, 
263, 1023804874, 0.4198228716850281, -0.45857882499694824, -0.5053043961524963, -0.5984378457069397, 9.552061080932617, 2.1728785037994385, 0.6604735851287842, 1.0921012163162231, -1.3964624404907227, 0.4941113591194153, -2.033447265625, 0.4814453125, -0.21240234375, 0, 
264, 1023813207, 0.4198205769062042, -0.4585908353328705, -0.5053038001060486, -0.5984307527542114, 9.547499656677246, 2.1429460048675537, 0.6444597244262695, 1.0763741731643677, -1.5115729570388794, 0.5008223652839661, -2.03466796875, 0.4814453125, -0.211669921875, 0, 
265, 1023821540, 0.4198216497898102, -0.45861852169036865, -0.5052948594093323, -0.5984163284301758, 9.549436569213867, 2.1670632362365723, 0.6493377089500427, 0.9838300347328186, -1.6120319366455078, 0.7221293449401855, -2.033935546875, 0.48828125, -0.21435546875, 0, 
266, 1023829873, 0.4198233485221863, -0.4586537778377533, -0.5052770972251892, -0.5984031558036804, 9.524770736694336, 2.1105763912200928, 0.6317545771598816, 0.8678998947143555, -1.6139273643493652, 0.8373933434486389, -2.035888671875, 0.48193359375, -0.21875, 0, 
267, 1023838206, 0.4198218584060669, -0.45869627594947815, -0.5052527785301208, -0.598392128944397, 9.506524085998535, 2.1127514839172363, 0.6291052103042603, 0.8669779300689697, -1.6103413105010986, 0.8915163278579712, -2.032958984375, 0.4794921875, -0.213623046875, 0, 
268, 1023846539, 0.4198226034641266, -0.4587417542934418, -0.5052277445793152, -0.5983777642250061, 9.512079238891602, 2.1338491439819336, 0.6527961492538452, 0.7521236538887024, -1.6704580783843994, 0.9522989392280579, -2.03662109375, 0.48193359375, -0.214111328125, 0, 
269, 1023854872, 0.41982752084732056, -0.45879125595092773, -0.5052052736282349, -0.5983555316925049, 9.495463371276855, 2.1325395107269287, 0.646607518196106, 0.8447446227073669, -1.7318551540374756, 1.0370819568634033, -2.0341796875, 0.4814453125, -0.211669921875, 0, 
270, 1023863205, 0.4198334217071533, -0.45883187651634216, -0.5051777362823486, -0.5983434915542603, 9.480989456176758, 2.0958731174468994, 0.6385791301727295, 0.7762009501457214, -1.5662336349487305, 0.9654133319854736, -2.0390625, 0.482666015625, -0.21484375, 0, 
271, 1023871538, 0.4198375642299652, -0.45886731147766113, -0.5051615834236145, -0.5983269810676575, 9.510760307312012, 2.086225748062134, 0.6423156261444092, 0.9402600526809692, -1.6194086074829102, 0.8593191504478455, -2.037841796875, 0.482666015625, -0.21240234375, 0, 
272, 1023879871, 0.41984695196151733, -0.45888984203338623, -0.5051496028900146, -0.5983132123947144, 9.510190963745117, 2.119061231613159, 0.6353963613510132, 1.0423840284347534, -1.4921315908432007, 0.7791977524757385, -2.0341796875, 0.4814453125, -0.213623046875, 0, 
273, 1023888204, 0.41985243558883667, -0.458915114402771, -0.5051344037055969, -0.5983030200004578, 9.498554229736328, 2.091858148574829, 0.6579022407531738, 0.9111366868019104, -1.5050156116485596, 0.7548642754554749, -2.037841796875, 0.48193359375, -0.212890625, 0, 
274, 1023896537, 0.4198676347732544, -0.4589386582374573, -0.5051152110099792, -0.5982904434204102, 9.466470718383789, 2.1205294132232666, 0.6749653220176697, 1.005141019821167, -1.4124457836151123, 0.8729971051216125, -2.037841796875, 0.486328125, -0.21435546875, 0, 
275, 1023904870, 0.4198760986328125, -0.45895838737487793, -0.5050995945930481, -0.5982825756072998, 9.521878242492676, 2.118350028991699, 0.6474929451942444, 0.9517865777015686, -1.4208984375, 0.7305051684379578, -2.0322265625, 0.485595703125, -0.21484375, 0, 
276, 1023913203, 0.419884592294693, -0.4589751362800598, -0.5050830245018005, -0.5982776284217834, 9.538890838623047, 2.1284828186035156, 0.6047295331954956, 0.9714839458465576, -1.3693625926971436, 0.708297610282898, -2.03466796875, 0.483154296875, -0.21484375, 0, 
277, 1023921536, 0.4198886752128601, -0.45899301767349243, -0.5050607919692993, -0.5982798933982849, 9.529582977294922, 2.1353394985198975, 0.6357097625732422, 0.9274530410766602, -1.3039438724517822, 0.6731804609298706, -2.03515625, 0.485107421875, -0.217529296875, 0, 
278, 1023929869, 0.4198979437351227, -0.45900917053222656, -0.5050396919250488, -0.598278820514679, 9.511507034301758, 2.1288232803344727, 0.6308317184448242, 0.9151837825775146, -1.3100143671035767, 0.7189019918441772, -2.035400390625, 0.4814453125, -0.20849609375, 0, 
279, 1023938202, 0.4199121594429016, -0.459026038646698, -0.5050256252288818, -0.5982677340507507, 9.510327339172363, 2.1243505477905273, 0.6746119260787964, 0.9793218374252319, -1.3966928720474243, 0.7620618939399719, -2.037109375, 0.486328125, -0.215576171875, 0, 
280, 1023946535, 0.4199312627315521, -0.4590509235858917, -0.5050057768821716, -0.5982520580291748, 9.52572250366211, 2.1163229942321777, 0.6596079468727112, 1.0391311645507812, -1.4131373167037964, 0.9377243518829346, -2.037109375, 0.484375, -0.214111328125, 0, 
281, 1023954868, 0.4199419915676117, -0.4590761959552765, -0.5049948692321777, -0.598234236240387, 9.478525161743164, 2.108036994934082, 0.6712136268615723, 1.0581368207931519, -1.5361626148223877, 0.8139051795005798, -2.03466796875, 0.48828125, -0.21435546875, 0, 
282, 1023963201, 0.4199468195438385, -0.45911288261413574, -0.5049901604652405, -0.598206639289856, 9.485440254211426, 2.1192636489868164, 0.6864702105522156, 1.085774540901184, -1.7700203657150269, 0.8759939670562744, -2.0302734375, 0.483154296875, -0.21484375, 0, 
283, 1023971534, 0.4199526906013489, -0.4591473639011383, -0.5049892663955688, -0.5981769561767578, 9.509695053100586, 2.087416648864746, 0.6016680598258972, 1.0871065855026245, -1.7895641326904297, 0.8405184149742126, -2.033447265625, 0.485107421875, -0.21240234375, 0, 
284, 1023979867, 0.41995522379875183, -0.45917844772338867, -0.5049869418144226, -0.5981532335281372, 9.507706642150879, 2.124250650405884, 0.6236790418624878, 1.0988378524780273, -1.7302926778793335, 0.7792489528656006, -2.037109375, 0.487548828125, -0.212890625, 0, 
285, 1023988200, 0.41995614767074585, -0.4592108726501465, -0.504982054233551, -0.5981318950653076, 9.496907234191895, 2.092257022857666, 0.6396481990814209, 1.012056827545166, -1.7221729755401611, 0.7656990885734558, -2.037841796875, 0.484375, -0.21728515625, 0, 
286, 1023996533, 0.41996607184410095, -0.459227055311203, -0.5049718022346497, -0.5981212258338928, 9.522741317749023, 2.1219749450683594, 0.6413772106170654, 1.0755032300949097, -1.4295048713684082, 0.7131642699241638, -2.03271484375, 0.485595703125, -0.21435546875, 0, 
287, 1024004866, 0.41997379064559937, -0.4592422842979431, -0.5049582719802856, -0.5981153845787048, 9.514323234558105, 2.1070621013641357, 0.6690090298652649, 1.0703035593032837, -1.3627796173095703, 0.6717460751533508, -2.03857421875, 0.48193359375, -0.21484375, 0, 
288, 1024013199, 0.4199812412261963, -0.4592565596103668, -0.5049450397491455, -0.5981103777885437, 9.478236198425293, 2.120595932006836, 0.6633573174476624, 1.007266879081726, -1.3778408765792847, 0.6634983420372009, -2.033935546875, 0.486328125, -0.213623046875, 0, 
289, 1024021532, 0.419987291097641, -0.45927000045776367, -0.5049286484718323, -0.5981096029281616, 9.49850082397461, 2.1169538497924805, 0.6407164335250854, 1.0317542552947998, -1.308093547821045, 0.638729453086853, -2.0283203125, 0.485595703125, -0.211181640625, 0, 
290, 1024029865, 0.41999462246894836, -0.459272176027298, -0.5049172639846802, -0.5981122255325317, 9.481170654296875, 2.076873779296875, 0.6699285507202148, 1.0376454591751099, -1.2409584522247314, 0.5231578946113586, -2.033447265625, 0.482666015625, -0.21240234375, 0, 
291, 1024038198, 0.4199998676776886, -0.4592658281326294, -0.5049027800559998, -0.598125696182251, 9.493939399719238, 2.0981147289276123, 0.6385128498077393, 1.0819835662841797, -1.0685232877731323, 0.40284785628318787, -2.0390625, 0.487060546875, -0.21044921875, 0, 
292, 1024046531, 0.42001068592071533, -0.459245890378952, -0.504892110824585, -0.5981424450874329, 9.508618354797363, 2.088508367538452, 0.6573177576065063, 1.096455693244934, -0.9493147730827332, 0.3114562928676605, -2.035400390625, 0.483154296875, -0.209228515625, 0, 
293, 1024054864, 0.42002081871032715, -0.4592248201370239, -0.5048863887786865, -0.5981562733650208, 9.497108459472656, 2.1167192459106445, 0.6721597909927368, 1.2478358745574951, -0.9645806550979614, 0.2793872654438019, -2.033447265625, 0.478759765625, -0.21240234375, 0, 
294, 1024063197, 0.4200238585472107, -0.459194540977478, -0.5048882365226746, -0.5981758832931519, 9.519296646118164, 2.1270408630371094, 0.675643265247345, 1.191253900527954, -0.9739812612533569, 0.08310538530349731, -2.03173828125, 0.4794921875, -0.212890625, 0, 
295, 1024071530, 0.4200100898742676, -0.45919036865234375, -0.5048871040344238, -0.5981898903846741, 9.523516654968262, 2.1077356338500977, 0.6749590039253235, 1.1421515941619873, -1.2715418338775635, 0.17815983295440674, -2.03857421875, 0.48193359375, -0.211669921875, 0, 
296, 1024079863, 0.4200163781642914, -0.45917052030563354, -0.5048972964286804, -0.5981919169425964, 9.521307945251465, 2.117029905319214, 0.6574767231941223, 1.3393299579620361, -1.194033145904541, 0.22800514101982117, -2.0322265625, 0.483154296875, -0.216064453125, 0, 
297, 1024088196, 0.4200160503387451, -0.4591689705848694, -0.50490403175354, -0.5981878042221069, 9.536981582641602, 2.097994089126587, 0.6311459541320801, 1.1842358112335205, -1.4104222059249878, 0.3477516770362854, -2.035888671875, 0.485107421875, -0.21435546875, 0, 
298, 1024096529, 0.42001962661743164, -0.4591591954231262, -0.5049111843109131, -0.5981867909431458, 9.519131660461426, 2.100829839706421, 0.6610240340232849, 1.261027216911316, -1.2987953424453735, 0.3136334717273712, -2.03857421875, 0.483154296875, -0.214111328125, 0, 
299, 1024104862, 0.42002177238464355, -0.45915836095809937, -0.5049316883087158, -0.5981684923171997, 9.496021270751953, 2.127838134765625, 0.647368848323822, 1.455797791481018, -1.5569355487823486, 0.3706507682800293, -2.037841796875, 0.486328125, -0.21484375, 0, 
300, 1024113195, 0.4200345277786255, -0.45914873480796814, -0.5049502849578857, -0.5981512069702148, 9.493581771850586, 2.102476119995117, 0.6542056202888489, 1.5255197286605835, -1.4036856889724731, 0.41132619976997375, -2.037841796875, 0.487548828125, -0.216796875, 0, 
301, 1024121528, 0.42004522681236267, -0.4591400623321533, -0.5049732327461243, -0.598131000995636, 9.49290943145752, 2.1115972995758057, 0.6817384958267212, 1.5487518310546875, -1.4671833515167236, 0.37961575388908386, -2.040283203125, 0.489013671875, -0.212890625, 0, 
302, 1024129861, 0.4200460910797119, -0.45913630723953247, -0.5049954056739807, -0.5981144905090332, 9.51569938659668, 2.1206281185150146, 0.6313427090644836, 1.4407366514205933, -1.5516846179962158, 0.32728588581085205, -2.041015625, 0.486328125, -0.211669921875, 0, 
303, 1024138194, 0.4200475215911865, -0.4591321647167206, -0.5050066709518433, -0.5981072187423706, 9.515968322753906, 2.1128809452056885, 0.6600418090820312, 1.3772900104522705, -1.3983834981918335, 0.34034910798072815, -2.031494140625, 0.483154296875, -0.21435546875, 0, 
304, 1024146527, 0.4200512170791626, -0.4591224789619446, -0.5050196051597595, -0.5981010794639587, 9.530145645141602, 2.1300854682922363, 0.6564054489135742, 1.3441965579986572, -1.3637274503707886, 0.30904853343963623, -2.038330078125, 0.486328125, -0.212890625, 0, 
305, 1024154860, 0.42006123065948486, -0.45911121368408203, -0.5050220489501953, -0.5981006622314453, 9.51789665222168, 2.1100919246673584, 0.6559456586837769, 1.265791416168213, -1.2043812274932861, 0.3712655007839203, -2.038330078125, 0.485107421875, -0.21484375, 0, 
306, 1024163193, 0.42007121443748474, -0.4590957760810852, -0.505021870136261, -0.5981056094169617, 9.5140962600708, 2.1164073944091797, 0.662559986114502, 1.2318271398544312, -1.1271544694900513, 0.3393758237361908, -2.03662109375, 0.48583984375, -0.211181640625, 0, 
307, 1024171526, 0.4200810194015503, -0.4590856730937958, -0.505021333694458, -0.5981070399284363, 9.485075950622559, 2.1298325061798096, 0.689135730266571, 1.2314939498901367, -1.1834032535552979, 0.3871976137161255, -2.035400390625, 0.482666015625, -0.21240234375, 0, 
308, 1024179859, 0.4200890064239502, -0.4590829908847809, -0.5050145387649536, -0.5981093049049377, 9.514246940612793, 2.122612237930298, 0.6609610915184021, 1.1116193532943726, -1.2253848314285278, 0.46857398748397827, -2.037109375, 0.48388671875, -0.214111328125, 0, 
309, 1024188192, 0.42009156942367554, -0.45908352732658386, -0.5050128102302551, -0.5981083512306213, 9.49802017211914, 2.122006893157959, 0.6875585317611694, 1.1163322925567627, -1.3319144248962402, 0.4202399253845215, -2.035888671875, 0.48876953125, -0.21630859375, 0, 
310, 1024196525, 0.4200965166091919, -0.4590756297111511, -0.5050109028816223, -0.5981125831604004, 9.51853084564209, 2.103921413421631, 0.6640887260437012, 1.147863507270813, -1.219032645225525, 0.3666549623012543, -2.035400390625, 0.482666015625, -0.21044921875, 0, 
311, 1024204858, 0.420114666223526, -0.4590569734573364, -0.5050258040428162, -0.5981017351150513, 9.499441146850586, 2.107170820236206, 0.6448364853858948, 1.2954270839691162, -1.2791491746902466, 0.3529513478279114, -2.0390625, 0.485107421875, -0.214111328125, 0, 
312, 1024213191, 0.4201175272464752, -0.45904719829559326, -0.5050305128097534, -0.5981031656265259, 9.506917953491211, 2.1091997623443604, 0.6490815281867981, 1.219481110572815, -1.2743338346481323, 0.30869001150131226, -2.037841796875, 0.48193359375, -0.213623046875, 0, 
313, 1024221524, 0.4201190769672394, -0.45903486013412476, -0.5050370693206787, -0.5981060266494751, 9.502007484436035, 2.1106956005096436, 0.6674318909645081, 1.2246294021606445, -1.2569160461425781, 0.2484196424484253, -2.03271484375, 0.483154296875, -0.216064453125, 0, 
314, 1024229857, 0.42011845111846924, -0.45901888608932495, -0.5050432682037354, -0.598113477230072, 9.528897285461426, 2.113927125930786, 0.6492214798927307, 1.2043684720993042, -1.2182384729385376, 0.1930672824382782, -2.031494140625, 0.481201171875, -0.21435546875, 0, 
315, 1024238190, 0.4201115369796753, -0.4590167999267578, -0.505050778388977, -0.5981136560440063, 9.53201675415039, 2.1190316677093506, 0.6472558379173279, 1.2667903900146484, -1.394951343536377, 0.270089328289032, -2.03857421875, 0.48193359375, -0.21533203125, 0, 
316, 1024246523, 0.42010658979415894, -0.4590212404727936, -0.5050561428070068, -0.5981091260910034, 9.490525245666504, 2.1096508502960205, 0.6560322642326355, 1.1363115310668945, -1.486983060836792, 0.3741343021392822, -2.03271484375, 0.484375, -0.21484375, 0, 
317, 1024254856, 0.4201098084449768, -0.4590153694152832, -0.505057156085968, -0.5981103777885437, 9.51344108581543, 2.1130919456481934, 0.6520935297012329, 1.105420708656311, -1.2903169393539429, 0.3472137451171875, -2.03466796875, 0.4814453125, -0.213623046875, 0, 
318, 1024263189, 0.42010965943336487, -0.4590091109275818, -0.5050550103187561, -0.5981172323226929, 9.506999969482422, 2.1147313117980957, 0.6695110201835632, 1.086799144744873, -1.2507686614990234, 0.32236793637275696, -2.03662109375, 0.482666015625, -0.216064453125, 0, 
319, 1024271522, 0.42011386156082153, -0.45900169014930725, -0.5050659775733948, -0.5981106758117676, 9.497559547424316, 2.1079559326171875, 0.6828010082244873, 1.1917662620544434, -1.3932605981826782, 0.322393536567688, -2.03076171875, 0.487548828125, -0.213134765625, 0, 
320, 1024279855, 0.42010363936424255, -0.4590035676956177, -0.5050745010375977, -0.598109245300293, 9.518719673156738, 2.1160385608673096, 0.6571500301361084, 1.119867205619812, -1.5000977516174316, 0.2752377688884735, -2.035400390625, 0.483154296875, -0.213623046875, 0, 
321, 1024288188, 0.4201122522354126, -0.4589923322200775, -0.5050976276397705, -0.5980921983718872, 9.50033950805664, 2.1253421306610107, 0.6489372253417969, 1.2596696615219116, -1.5023260116577148, 0.30666646361351013, -2.033935546875, 0.48876953125, -0.21435546875, 0, 
322, 1024296521, 0.42011839151382446, -0.45897793769836426, -0.5051044225692749, -0.5980932712554932, 9.497221946716309, 2.1172800064086914, 0.6354662179946899, 1.2854118347167969, -1.2268961668014526, 0.29252734780311584, -2.0341796875, 0.48388671875, -0.213623046875, 0, 
323, 1024304854, 0.4201114773750305, -0.4589734673500061, -0.5051040649414062, -0.5981018543243408, 9.494983673095703, 2.0883407592773438, 0.7082247734069824, 1.0360575914382935, -1.304763674736023, 0.24631932377815247, -2.035888671875, 0.48193359375, -0.214111328125, 0, 
324, 1024313187, 0.4201090335845947, -0.4589615762233734, -0.505117654800415, -0.5981011986732483, 9.512946128845215, 2.117201805114746, 0.6826169490814209, 1.286513328552246, -1.357938528060913, 0.20620739459991455, -2.0341796875, 0.4794921875, -0.21484375, 0, 
325, 1024321520, 0.420102596282959, -0.4589538276195526, -0.5051231980323792, -0.598107099533081, 9.520294189453125, 2.118720293045044, 0.62716144323349, 1.1473511457443237, -1.3205673694610596, 0.20794914662837982, -2.04052734375, 0.47900390625, -0.212158203125, 0, 
326, 1024329853, 0.4201110601425171, -0.45892176032066345, -0.5051324367523193, -0.5981179475784302, 9.546305656433105, 2.1084470748901367, 0.6479950547218323, 1.3566962480545044, -1.0197283029556274, 0.11648073047399521, -2.033447265625, 0.48388671875, -0.21484375, 0, 
327, 1024338186, 0.42011258006095886, -0.4589013159275055, -0.505145251750946, -0.5981216430664062, 9.513623237609863, 2.147787094116211, 0.6317397356033325, 1.2743465900421143, -1.2310200929641724, 0.1461932361125946, -2.03515625, 0.486328125, -0.213623046875, 0, 
328, 1024346519, 0.42010968923568726, -0.45888787508010864, -0.5051558613777161, -0.5981251001358032, 9.51264762878418, 2.1193342208862305, 0.6355859637260437, 1.239075779914856, -1.3060954809188843, 0.1875346153974533, -2.032958984375, 0.4814453125, -0.212890625, 0, 
329, 1024354852, 0.42012137174606323, -0.45887213945388794, -0.5051677227020264, -0.598118782043457, 9.517313957214355, 2.1426734924316406, 0.6503103375434875, 1.2705299854278564, -1.279789686203003, 0.3175012469291687, -2.0302734375, 0.48193359375, -0.216064453125, 0, 
330, 1024363185, 0.42012155055999756, -0.45887643098831177, -0.5051745772361755, -0.5981095433235168, 9.521371841430664, 2.1414873600006104, 0.6524602770805359, 1.2125649452209473, -1.4875209331512451, 0.43330317735671997, -2.032958984375, 0.4814453125, -0.21240234375, 0, 
331, 1024371518, 0.4201229214668274, -0.45888710021972656, -0.5051732063293457, -0.5981015563011169, 9.519662857055664, 2.1296615600585938, 0.669363796710968, 1.219685673713684, -1.447281002998352, 0.52961266040802, -2.039794921875, 0.480712890625, -0.21044921875, 0, 
332, 1024379851, 0.42012864351272583, -0.45889708399772644, -0.5051766037940979, -0.5980870723724365, 9.529991149902344, 2.131714105606079, 0.6687445640563965, 1.2230666875839233, -1.5085501670837402, 0.5710565447807312, -2.03515625, 0.487548828125, -0.218017578125, 0, 
333, 1024388184, 0.4201280474662781, -0.4589100480079651, -0.5051720142364502, -0.5980813503265381, 9.502264022827148, 2.1234288215637207, 0.6389071941375732, 1.1644103527069092, -1.4426193237304688, 0.5367847084999084, -2.03662109375, 0.485107421875, -0.21923828125, 0, 
334, 1024396517, 0.4201284348964691, -0.4589131474494934, -0.5051783323287964, -0.5980733633041382, 9.496702194213867, 2.106285810470581, 0.6575174927711487, 1.2086718082427979, -1.4657232761383057, 0.422468364238739, -2.03466796875, 0.48193359375, -0.21240234375, 0, 
335, 1024404850, 0.4201381206512451, -0.45890694856643677, -0.5051884055137634, -0.5980629920959473, 9.507530212402344, 2.107781171798706, 0.6295307278633118, 1.1963768005371094, -1.392338514328003, 0.4008755683898926, -2.033935546875, 0.485107421875, -0.21240234375, 0, 
336, 1024413183, 0.4201509356498718, -0.4588875472545624, -0.5052005052566528, -0.5980587005615234, 9.524024963378906, 2.1215827465057373, 0.6546777486801147, 1.4383801221847534, -1.2036128044128418, 0.3113282024860382, -2.035888671875, 0.480712890625, -0.21728515625, 0, 
337, 1024421516, 0.4201541841030121, -0.45888128876686096, -0.5052022933959961, -0.5980597138404846, 9.492359161376953, 2.1178948879241943, 0.7226155400276184, 1.1950961351394653, -1.2772794961929321, 0.34672707319259644, -2.037109375, 0.484619140625, -0.213623046875, 0, 
338, 1024429849, 0.4201520085334778, -0.4588753581047058, -0.5052117109298706, -0.5980578064918518, 9.509476661682129, 2.1063010692596436, 0.6766418218612671, 1.226960301399231, -1.388880729675293, 0.28425395488739014, -2.038330078125, 0.483154296875, -0.216064453125, 0, 
339, 1024438182, 0.42015060782432556, -0.45886683464050293, -0.505215048789978, -0.5980623960494995, 9.530941009521484, 2.130302667617798, 0.6392915844917297, 1.1622331142425537, -1.2767159938812256, 0.2622513473033905, -2.0390625, 0.48876953125, -0.21484375, 0, 
340, 1024446515, 0.4201515316963196, -0.45885342359542847, -0.5052206516265869, -0.5980673432350159, 9.511894226074219, 2.124793529510498, 0.6660158038139343, 1.2098498344421387, -1.2396007776260376, 0.24301503598690033, -2.037841796875, 0.487060546875, -0.212890625, 0, 
341, 1024454848, 0.4201602339744568, -0.45883649587631226, -0.5052403211593628, -0.5980576276779175, 9.531867027282715, 2.1231462955474854, 0.6287037134170532, 1.201089859008789, -1.3927996158599854, 0.24596069753170013, -2.035888671875, 0.485595703125, -0.21875, 0, 
342, 1024463181, 0.42015427350997925, -0.4588342010974884, -0.5052454471588135, -0.5980592370033264, 9.545526504516602, 2.116307497024536, 0.6421230435371399, 1.1230177879333496, -1.397948145866394, 0.2838953733444214, -2.03662109375, 0.487060546875, -0.215576171875, 0, 
343, 1024471514, 0.42015206813812256, -0.45882874727249146, -0.5052471160888672, -0.598063588142395, 9.521940231323242, 2.12080717086792, 0.630594789981842, 1.087695837020874, -1.3098351955413818, 0.28804489970207214, -2.033447265625, 0.485107421875, -0.215576171875, 0, 
344, 1024479847, 0.4201537072658539, -0.4588143825531006, -0.5052440166473389, -0.5980760455131531, 9.49996280670166, 2.1136293411254883, 0.6787261366844177, 1.098530650138855, -1.130279302597046, 0.25182631611824036, -2.038330078125, 0.485107421875, -0.213623046875, 0, 
345, 1024488180, 0.4201574921607971, -0.45880311727523804, -0.5052436590194702, -0.5980824828147888, 9.514766693115234, 2.1098639965057373, 0.6935628056526184, 1.1987589597702026, -1.1796122789382935, 0.3040025234222412, -2.037353515625, 0.4794921875, -0.207275390625, 0, 
346, 1024496513, 0.4201633334159851, -0.4587908387184143, -0.5052493214607239, -0.598082959651947, 9.517895698547363, 2.1394479274749756, 0.6528812050819397, 1.2675331830978394, -1.2434686422348022, 0.31578508019447327, -2.03662109375, 0.483154296875, -0.216064453125, 0, 
347, 1024504846, 0.42015260457992554, -0.4587939977645874, -0.5052545666694641, -0.5980835556983948, 9.517416000366211, 2.1333136558532715, 0.6542053818702698, 1.1815718412399292, -1.4516098499298096, 0.2852529287338257, -2.03466796875, 0.486328125, -0.216796875, 0, 
348, 1024513179, 0.4201359450817108, -0.45880964398384094, -0.5052597522735596, -0.5980788469314575, 9.51203727722168, 2.1459319591522217, 0.6387913227081299, 0.9953819513320923, -1.6602634191513062, 0.3578692674636841, -2.0390625, 0.483154296875, -0.218017578125, 0, 
349, 1024521512, 0.4201313555240631, -0.45881515741348267, -0.5052623748779297, -0.5980755090713501, 9.51644229888916, 2.1035618782043457, 0.6443695425987244, 0.9974825382232666, -1.4853183031082153, 0.376875102519989, -2.039794921875, 0.48193359375, -0.212890625, 0, 
350, 1024529845, 0.42013266682624817, -0.45881137251853943, -0.5052573680877686, -0.5980818271636963, 9.523552894592285, 2.1261730194091797, 0.6282475590705872, 1.061569333076477, -1.2472084760665894, 0.3715985417366028, -2.037353515625, 0.478759765625, -0.21728515625, 0, 
351, 1024538178, 0.4201386570930481, -0.45880746841430664, -0.5052569508552551, -0.5980810523033142, 9.49968433380127, 2.124006748199463, 0.6609711050987244, 1.1048059463500977, -1.2945690155029297, 0.4039492607116699, -2.03466796875, 0.484375, -0.21240234375, 0, 
352, 1024546511, 0.42013993859291077, -0.45880764722824097, -0.5052476525306702, -0.5980878472328186, 9.502288818359375, 2.1332356929779053, 0.6586123108863831, 1.0003254413604736, -1.2523822784423828, 0.42249396443367004, -2.03466796875, 0.485107421875, -0.211181640625, 0, 
353, 1024554844, 0.4201379418373108, -0.45880603790283203, -0.5052422285079956, -0.5980949997901917, 9.527114868164062, 2.1431849002838135, 0.6607224345207214, 1.0300379991531372, -1.271413803100586, 0.3465989828109741, -2.03955078125, 0.486328125, -0.213623046875, 0, 
354, 1024563177, 0.4201449453830719, -0.4588032364845276, -0.5052392482757568, -0.5980947613716125, 9.521369934082031, 2.1157240867614746, 0.6684998869895935, 1.153780460357666, -1.2680329084396362, 0.45049041509628296, -2.03662109375, 0.485595703125, -0.216796875, 0, 
355, 1024571510, 0.4201471209526062, -0.4588068723678589, -0.5052363872528076, -0.5980929136276245, 9.527532577514648, 2.1274330615997314, 0.6515130400657654, 1.1594922542572021, -1.3442094326019287, 0.4558693468570709, -2.03662109375, 0.483154296875, -0.214111328125, 0, 
356, 1024579843, 0.42014279961586, -0.4588131904602051, -0.5052354335784912, -0.5980919003486633, 9.50291633605957, 2.1406567096710205, 0.6442317962646484, 1.052348017692566, -1.439955472946167, 0.41270938515663147, -2.035888671875, 0.48388671875, -0.209716796875, 0, 
357, 1024588176, 0.42013996839523315, -0.4588145613670349, -0.5052396059036255, -0.5980892777442932, 9.52593994140625, 2.116640329360962, 0.6895132064819336, 1.1499894857406616, -1.4188748598098755, 0.3565117120742798, -2.037841796875, 0.48828125, -0.217529296875, 0, 
358, 1024596509, 0.4201394021511078, -0.4588184952735901, -0.505239725112915, -0.5980865359306335, 9.500364303588867, 2.1281192302703857, 0.6646617650985718, 1.1095703840255737, -1.4100892543792725, 0.42912811040878296, -2.03271484375, 0.484375, -0.21435546875, 0, 
359, 1024604842, 0.4201388657093048, -0.45882701873779297, -0.5052412748336792, -0.5980790853500366, 9.519116401672363, 2.137826442718506, 0.6736143827438354, 1.1463779211044312, -1.4750468730926514, 0.4698546826839447, -2.038330078125, 0.484375, -0.216064453125, 0, 
360, 1024613175, 0.4201413094997406, -0.45883429050445557, -0.5052467584609985, -0.5980672240257263, 9.503265380859375, 2.111300230026245, 0.6331111788749695, 1.216279149055481, -1.5055278539657593, 0.49649348855018616, -2.035888671875, 0.487548828125, -0.212890625, 0, 
361, 1024621508, 0.4201355576515198, -0.4588516354560852, -0.5052518844604492, -0.5980535745620728, 9.485893249511719, 2.122077226638794, 0.6423909068107605, 1.20242178440094, -1.6293470859527588, 0.505740225315094, -2.035888671875, 0.48193359375, -0.216796875, 0, 
362, 1024629841, 0.4201367199420929, -0.458863765001297, -0.5052483081817627, -0.5980464816093445, 9.525635719299316, 2.1245508193969727, 0.6306091547012329, 1.073659062385559, -1.4713839292526245, 0.5493100881576538, -2.035888671875, 0.485107421875, -0.213623046875, 0, 
363, 1024638174, 0.42013809084892273, -0.4588766098022461, -0.5052406191825867, -0.5980422496795654, 9.510536193847656, 2.106877565383911, 0.6438028216362, 1.0843145847320557, -1.4137519598007202, 0.5594020485877991, -2.037841796875, 0.482666015625, -0.21240234375, 0, 
364, 1024646507, 0.4201420843601227, -0.4588768482208252, -0.5052391290664673, -0.5980404615402222, 9.499190330505371, 2.1007559299468994, 0.668293297290802, 1.1396667957305908, -1.3316583633422852, 0.44521379470825195, -2.035888671875, 0.48583984375, -0.211669921875, 0, 
365, 1024654840, 0.4201414883136749, -0.4588780999183655, -0.5052419900894165, -0.5980374813079834, 9.496047973632812, 2.1081037521362305, 0.6477480530738831, 1.1550098657608032, -1.3984348773956299, 0.38527652621269226, -2.037109375, 0.486328125, -0.216064453125, 0, 
366, 1024663173, 0.420138955116272, -0.4588779807090759, -0.505246639251709, -0.5980353951454163, 9.509442329406738, 2.136035919189453, 0.6292509436607361, 1.1545231342315674, -1.412778615951538, 0.35208043456077576, -2.0390625, 0.483154296875, -0.214111328125, 0, 
367, 1024671506, 0.42013803124427795, -0.4588810205459595, -0.5052435398101807, -0.5980363488197327, 9.513038635253906, 2.1199488639831543, 0.6849222183227539, 1.1698917150497437, -1.3329390287399292, 0.4159623384475708, -2.03271484375, 0.485595703125, -0.21240234375, 0, 
368, 1024679839, 0.4201434850692749, -0.45888662338256836, -0.5052434802055359, -0.598028302192688, 9.526488304138184, 2.138596773147583, 0.6302255392074585, 1.1747584342956543, -1.4158780574798584, 0.5230042338371277, -2.039794921875, 0.482666015625, -0.213623046875, 0, 
369, 1024688172, 0.4201483726501465, -0.45888733863830566, -0.5052503347396851, -0.5980184078216553, 9.535558700561523, 2.109274387359619, 0.6312330365180969, 1.1840310096740723, -1.4416204690933228, 0.4332263767719269, -2.03662109375, 0.486328125, -0.21435546875, 0, 
370, 1024696505, 0.42015427350997925, -0.45889344811439514, -0.5052513480186462, -0.5980086326599121, 9.521514892578125, 2.110607147216797, 0.6398706436157227, 1.1940970420837402, -1.432424783706665, 0.5323278307914734, -2.033935546875, 0.485595703125, -0.21435546875, 0, 
371, 1024704838, 0.4201681315898895, -0.45888927578926086, -0.5052556395530701, -0.5979986190795898, 9.521574020385742, 2.11873197555542, 0.6779414415359497, 1.2500386238098145, -1.3248707056045532, 0.4914218783378601, -2.03662109375, 0.483154296875, -0.215576171875, 0, 
372, 1024713171, 0.4201779067516327, -0.45888787508010864, -0.505255401134491, -0.5979930758476257, 9.520907402038574, 2.1288256645202637, 0.6272550225257874, 1.222452163696289, -1.3104498386383057, 0.49544331431388855, -2.03857421875, 0.48193359375, -0.21484375, 0, 
373, 1024721504, 0.4201921820640564, -0.458884596824646, -0.5052554607391357, -0.5979853868484497, 9.510688781738281, 2.1230976581573486, 0.6652055978775024, 1.2339016199111938, -1.281761884689331, 0.5165238380432129, -2.037841796875, 0.48388671875, -0.212890625, 0, 
374, 1024729837, 0.4202063977718353, -0.4588819742202759, -0.5052539706230164, -0.5979786515235901, 9.501955032348633, 2.104749917984009, 0.663316547870636, 1.255853295326233, -1.2688010931015015, 0.5372970700263977, -2.033447265625, 0.484375, -0.218017578125, 0, 
375, 1024738170, 0.42020711302757263, -0.4588918387889862, -0.5052510499954224, -0.597973108291626, 9.513324737548828, 2.137924909591675, 0.6650563478469849, 1.1629759073257446, -1.4255601167678833, 0.5125279426574707, -2.040283203125, 0.487060546875, -0.21484375, 0, 
376, 1024746503, 0.42020973563194275, -0.4588961899280548, -0.5052449703216553, -0.5979730486869812, 9.483567237854004, 2.127852439880371, 0.6534378528594971, 1.058213710784912, -1.338907241821289, 0.4814579486846924, -2.035888671875, 0.47998046875, -0.21484375, 0, 
377, 1024754836, 0.4202005863189697, -0.45891305804252625, -0.5052343606948853, -0.5979753732681274, 9.503347396850586, 2.1193253993988037, 0.6407666802406311, 0.9686406850814819, -1.4504059553146362, 0.4846341013908386, -2.033447265625, 0.485107421875, -0.215576171875, 0, 
378, 1024763169, 0.4202004671096802, -0.45892006158828735, -0.5052269101142883, -0.5979763269424438, 9.522661209106445, 2.1053202152252197, 0.627429187297821, 1.0077537298202515, -1.3655972480773926, 0.4804333746433258, -2.0341796875, 0.483154296875, -0.216064453125, 0, 
379, 1024771502, 0.42020383477211, -0.4589099884033203, -0.5052281022071838, -0.5979809761047363, 9.535826683044434, 2.098078966140747, 0.6321539282798767, 1.0260164737701416, -1.2543290853500366, 0.2950887382030487, -2.02978515625, 0.482421875, -0.21435546875, 0, 
380, 1024779835, 0.42020851373672485, -0.4588938057422638, -0.5052244067192078, -0.5979933142662048, 9.495348930358887, 2.1107327938079834, 0.6457157135009766, 1.1221210956573486, -1.0901161432266235, 0.2679632902145386, -2.037841796875, 0.48583984375, -0.215576171875, 0, 
381, 1024788168, 0.4202147424221039, -0.45888185501098633, -0.5052184462547302, -0.598003089427948, 9.503868103027344, 2.1160831451416016, 0.6720453500747681, 1.0129534006118774, -1.13458251953125, 0.32528796792030334, -2.035888671875, 0.4814453125, -0.209228515625, 0, 
382, 1024796501, 0.42021599411964417, -0.4588729739189148, -0.5052094459533691, -0.598016619682312, 9.525469779968262, 2.094388723373413, 0.6263386607170105, 1.0068570375442505, -1.136631727218628, 0.31883320212364197, -2.035888671875, 0.48388671875, -0.216796875, 0, 
383, 1024804834, 0.420212060213089, -0.45886749029159546, -0.5052029490470886, -0.5980291962623596, 9.495677947998047, 2.1399521827697754, 0.6521032452583313, 0.9655158519744873, -1.2183154821395874, 0.27838829159736633, -2.037109375, 0.485107421875, -0.214111328125, 0, 
384, 1024813167, 0.4202120900154114, -0.4588664174079895, -0.5051907300949097, -0.5980402231216431, 9.518688201904297, 2.1329562664031982, 0.6605435609817505, 0.9453829526901245, -1.2067633867263794, 0.39728957414627075, -2.035400390625, 0.482666015625, -0.212890625, 0, 
385, 1024821500, 0.4202093780040741, -0.45886778831481934, -0.5051875710487366, -0.5980435609817505, 9.510992050170898, 2.1098155975341797, 0.646564245223999, 1.064873456954956, -1.3355261087417603, 0.37049710750579834, -2.033447265625, 0.483154296875, -0.213623046875, 0, 
386, 1024829833, 0.42020586133003235, -0.45887306332588196, -0.505181610584259, -0.5980470180511475, 9.48206901550293, 2.129007577896118, 0.675244927406311, 0.9901566505432129, -1.367339015007019, 0.4158598780632019, -2.0322265625, 0.47998046875, -0.21484375, 0, 
387, 1024838166, 0.4201981723308563, -0.45888808369636536, -0.5051878690719604, -0.5980357527732849, 9.526865005493164, 2.0953266620635986, 0.5998458862304688, 1.0884895324707031, -1.6392340660095215, 0.4475446939468384, -2.037353515625, 0.48193359375, -0.2109375, 0, 
388, 1024846499, 0.42020073533058167, -0.4588874578475952, -0.505190372467041, -0.5980322957038879, 9.537728309631348, 2.178208589553833, 0.6033687591552734, 1.1816742420196533, -1.369797945022583, 0.4116847813129425, -2.03271484375, 0.485107421875, -0.215576171875, 0, 
389, 1024854832, 0.42020708322525024, -0.45889711380004883, -0.505190908908844, -0.5980198383331299, 9.539021492004395, 2.145505905151367, 0.6252248883247375, 1.04353666305542, -1.4988937377929688, 0.5590434670448303, -2.03466796875, 0.47998046875, -0.218017578125, 0, 
390, 1024863165, 0.4202042818069458, -0.4589120149612427, -0.5051918625831604, -0.5980097055435181, 9.544384002685547, 2.130831480026245, 0.6481235027313232, 1.090410828590393, -1.5679752826690674, 0.5266157984733582, -2.035400390625, 0.482666015625, -0.214111328125, 0, 
391, 1024871498, 0.4202018678188324, -0.45893922448158264, -0.5051717758178711, -0.5980075001716614, 9.531625747680664, 2.129676580429077, 0.6045072078704834, 0.9475090503692627, -1.4533005952835083, 0.6967200636863708, -2.0390625, 0.483154296875, -0.21533203125, 0, 
392, 1024879831, 0.42020687460899353, -0.4589594602584839, -0.5051580667495728, -0.5979999899864197, 9.490884780883789, 2.107128620147705, 0.6326562762260437, 0.9689738750457764, -1.454837441444397, 0.703584611415863, -2.033447265625, 0.48388671875, -0.21435546875, 0, 
393, 1024888164, 0.42020857334136963, -0.45897769927978516, -0.5051449537277222, -0.5979959964752197, 9.496102333068848, 2.116300582885742, 0.6735334396362305, 1.0126714706420898, -1.4219485521316528, 0.6332735419273376, -2.033447265625, 0.483154296875, -0.21435546875, 0, 
394, 1024896497, 0.4202147126197815, -0.45899319648742676, -0.505130410194397, -0.597991943359375, 9.501908302307129, 2.1192538738250732, 0.6471544504165649, 0.9736610651016235, -1.3822208642959595, 0.6642923355102539, -2.03466796875, 0.4814453125, -0.215576171875, 0, 
395, 1024904830, 0.42022645473480225, -0.4589994549751282, -0.5051197409629822, -0.5979878902435303, 9.51202392578125, 2.109961748123169, 0.6479803323745728, 1.1226848363876343, -1.2772027254104614, 0.6147801280021667, -2.037353515625, 0.4794921875, -0.214111328125, 0, 
396, 1024913163, 0.4202374815940857, -0.45900383591651917, -0.5051096677780151, -0.5979853868484497, 9.503127098083496, 2.10807466506958, 0.6468989849090576, 1.095046877861023, -1.2728737592697144, 0.5898061394691467, -2.038330078125, 0.48388671875, -0.21728515625, 0, 
397, 1024921496, 0.42025279998779297, -0.45900779962539673, -0.5051078200340271, -0.5979730486869812, 9.521008491516113, 2.114262342453003, 0.6529035568237305, 1.0197410583496094, -1.3968466520309448, 0.6014350652694702, -2.03662109375, 0.484375, -0.218017578125, 0, 
398, 1024929829, 0.42026180028915405, -0.45902395248413086, -0.5050986409187317, -0.5979622006416321, 9.523783683776855, 2.0997254848480225, 0.6199462413787842, 1.0792430639266968, -1.4416203498840332, 0.6980006694793701, -2.033935546875, 0.484375, -0.21484375, 0, 
399, 1024938162, 0.42027971148490906, -0.45902949571609497, -0.5050951838493347, -0.5979481935501099, 9.509821891784668, 2.120706796646118, 0.6338576078414917, 1.1825963258743286, -1.3586045503616333, 0.6644203662872314, -2.0302734375, 0.482421875, -0.215576171875, 0, 
400, 1024946495, 0.42028993368148804, -0.45904088020324707, -0.505086362361908, -0.5979397296905518, 9.526615142822266, 2.1277151107788086, 0.649571418762207, 1.1006308794021606, -1.3805303573608398, 0.6590926647186279, -2.0322265625, 0.482666015625, -0.216796875, 0, 
401, 1024954828, 0.4203064739704132, -0.4590493440628052, -0.5050788521766663, -0.597927987575531, 9.537330627441406, 2.1147961616516113, 0.6483758091926575, 1.1443287134170532, -1.3464890718460083, 0.6886002421379089, -2.035400390625, 0.483154296875, -0.21484375, 0, 
402, 1024963161, 0.4203280210494995, -0.45906150341033936, -0.5050662755966187, -0.5979141592979431, 9.509688377380371, 2.106328248977661, 0.6911159157752991, 1.1737596988677979, -1.319338083267212, 0.8113180994987488, -2.038330078125, 0.487548828125, -0.211669921875, 0, 
403, 1024971494, 0.4203360974788666, -0.45907413959503174, -0.505062460899353, -0.5979019403457642, 9.481536865234375, 2.0883426666259766, 0.682615339756012, 1.2454279661178589, -1.4327064752578735, 0.6371924877166748, -2.03466796875, 0.483154296875, -0.211181640625, 0, 
404, 1024979827, 0.42034897208213806, -0.45908260345458984, -0.5050636529922485, -0.5978853702545166, 9.476144790649414, 2.0773890018463135, 0.6765806078910828, 1.2737829685211182, -1.4468711614608765, 0.6428532600402832, -2.037109375, 0.48828125, -0.213623046875, 0, 
405, 1024988160, 0.42034754157066345, -0.45909377932548523, -0.5050651431083679, -0.5978763699531555, 9.478901863098145, 2.0869879722595215, 0.6989797949790955, 1.1098519563674927, -1.5187703371047974, 0.4896032214164734, -2.037109375, 0.48828125, -0.215576171875, 0, 
406, 1024996493, 0.4203411936759949, -0.45910486578941345, -0.5050731897354126, -0.5978655219078064, 9.519084930419922, 2.124577522277832, 0.649375855922699, 1.1541132926940918, -1.605884313583374, 0.42700210213661194, -2.03662109375, 0.48388671875, -0.216064453125, 0, 
407, 1025004826, 0.42033299803733826, -0.4591115117073059, -0.505072295665741, -0.5978670120239258, 9.547088623046875, 2.1279170513153076, 0.6202874183654785, 1.0656930208206177, -1.4345252513885498, 0.3637861907482147, -2.037841796875, 0.48193359375, -0.21484375, 0, 
408, 1025013159, 0.42033594846725464, -0.4591180384159088, -0.5050730109214783, -0.5978593826293945, 9.5435209274292, 2.1158928871154785, 0.6259127259254456, 1.154779314994812, -1.4396991729736328, 0.5006685853004456, -2.035400390625, 0.482666015625, -0.211669921875, 0, 
409, 1025021492, 0.4203391671180725, -0.45911771059036255, -0.5050742030143738, -0.597856342792511, 9.545598030090332, 2.105106830596924, 0.594670295715332, 1.206135869026184, -1.3430566787719727, 0.4168076515197754, -2.033447265625, 0.486328125, -0.21435546875, 0, 
410, 1025029825, 0.420354962348938, -0.4591090679168701, -0.5050684809684753, -0.5978566408157349, 9.54611587524414, 2.121408700942993, 0.6269692778587341, 1.2168171405792236, -1.1400127410888672, 0.4966472387313843, -2.035888671875, 0.4814453125, -0.21240234375, 0, 
411, 1025038158, 0.4203852117061615, -0.45909905433654785, -0.5050585269927979, -0.5978515148162842, 9.52840805053711, 2.126716136932373, 0.6365108489990234, 1.3333362340927124, -1.0274384021759033, 0.6534576416015625, -2.03662109375, 0.4814453125, -0.218017578125, 0, 
412, 1025046491, 0.420427143573761, -0.4590963125228882, -0.5050488710403442, -0.597832202911377, 9.489248275756836, 2.144155740737915, 0.6347557306289673, 1.45205819606781, -1.1086353063583374, 0.8886731266975403, -2.03466796875, 0.485107421875, -0.213623046875, 0, 
413, 1025054824, 0.42045801877975464, -0.45911484956741333, -0.5050340890884399, -0.5978087782859802, 9.503344535827637, 2.1243062019348145, 0.6603735685348511, 1.221043348312378, -1.356632113456726, 0.9902846813201904, -2.03662109375, 0.487060546875, -0.213623046875, 0, 
414, 1025063157, 0.42049503326416016, -0.4591246545314789, -0.5050179958343506, -0.5977888703346252, 9.518948554992676, 2.1030516624450684, 0.6216277480125427, 1.2980140447616577, -1.2110154628753662, 0.9806280732154846, -2.037109375, 0.48388671875, -0.211669921875, 0, 
415, 1025071490, 0.42054104804992676, -0.4591177701950073, -0.5050069093704224, -0.5977712273597717, 9.513566017150879, 2.1035513877868652, 0.6458547115325928, 1.443118929862976, -1.0290776491165161, 0.8809632658958435, -2.03466796875, 0.485595703125, -0.218017578125, 0, 
416, 1025079823, 0.42057549953460693, -0.4591175615787506, -0.5049983859062195, -0.5977543592453003, 9.488381385803223, 2.0791473388671875, 0.7187590599060059, 1.3824386596679688, -1.1725683212280273, 0.8251240849494934, -2.033935546875, 0.484375, -0.215576171875, 0, 
417, 1025088156, 0.4206085503101349, -0.4591068923473358, -0.5049912929534912, -0.5977452993392944, 9.484698295593262, 2.0699198246002197, 0.6720651984214783, 1.3729612827301025, -1.0534878969192505, 0.6735647320747375, -2.031494140625, 0.487548828125, -0.213134765625, 0, 
418, 1025096489, 0.42062586545944214, -0.4590880274772644, -0.5049915909767151, -0.5977473258972168, 9.480340003967285, 2.136803150177002, 0.7418283224105835, 1.3220402002334595, -1.0676268339157104, 0.3899894952774048, -2.03076171875, 0.486328125, -0.215576171875, 0, 
419, 1025104822, 0.42063844203948975, -0.4591168165206909, -0.504980742931366, -0.5977256298065186, 9.542974472045898, 2.11740779876709, 0.5872629284858704, 1.0631572008132935, -1.5806031227111816, 0.8756097555160522, -2.035888671875, 0.48583984375, -0.213623046875, 0, 
420, 1025113155, 0.4206564128398895, -0.45913058519363403, -0.5049746036529541, -0.5977075099945068, 9.522923469543457, 2.098849296569824, 0.6711319088935852, 1.2251672744750977, -1.4221792221069336, 0.7768669724464417, -2.037841796875, 0.486328125, -0.211181640625, 0, 
421, 1025121488, 0.4206588566303253, -0.4591563940048218, -0.504965603351593, -0.5976935625076294, 9.51872444152832, 2.122035026550293, 0.65254807472229, 1.036057472229004, -1.575608491897583, 0.7201826572418213, -2.035888671875, 0.4814453125, -0.215576171875, 0, 
422, 1025129821, 0.4206678569316864, -0.45917433500289917, -0.5049671530723572, -0.5976721048355103, 9.515162467956543, 2.09891676902771, 0.6553740501403809, 1.2297266721725464, -1.5852137804031372, 0.7061461210250854, -2.038330078125, 0.48388671875, -0.212890625, 0, 
423, 1025138154, 0.42068979144096375, -0.45918065309524536, -0.5049648284912109, -0.597653865814209, 9.510035514831543, 2.126328706741333, 0.6509956121444702, 1.2442498207092285, -1.3696699142456055, 0.7188506722450256, -2.037109375, 0.48388671875, -0.21240234375, 0, 
424, 1025146487, 0.42070889472961426, -0.4591854512691498, -0.5049628615379333, -0.5976383090019226, 9.529364585876465, 2.0888991355895996, 0.6660212874412537, 1.3008060455322266, -1.348999261856079, 0.683836042881012, -2.033447265625, 0.48876953125, -0.213623046875, 0, 
425, 1025154820, 0.4207203686237335, -0.45918747782707214, -0.5049622654914856, -0.597629189491272, 9.49090576171875, 2.071197748184204, 0.6454933285713196, 1.1638723611831665, -1.3559919595718384, 0.5415233373641968, -2.037841796875, 0.48828125, -0.21044921875, 0, 
426, 1025163153, 0.42073071002960205, -0.45919495820999146, -0.5049604177474976, -0.5976176857948303, 9.49404239654541, 2.0906336307525635, 0.6625646948814392, 1.2037538290023804, -1.4082707166671753, 0.6076080799102783, -2.033447265625, 0.486328125, -0.21435546875, 0, 
427, 1025171486, 0.42073073983192444, -0.45921096205711365, -0.5049537420272827, -0.5976110696792603, 9.50149917602539, 2.107456922531128, 0.6441203951835632, 1.2920459508895874, -1.4235877990722656, 0.592546820640564, -2.0302734375, 0.49072265625, -0.217529296875, 0, 
428, 1025179819, 0.4207366406917572, -0.45920997858047485, -0.5049553513526917, -0.5976063013076782, 9.52773380279541, 2.096688985824585, 0.6261683106422424, 1.2049319744110107, -1.3451058864593506, 0.44941455125808716, -2.03466796875, 0.485107421875, -0.216064453125, 0, 
429, 1025188152, 0.42074766755104065, -0.45920318365097046, -0.5049577951431274, -0.597601592540741, 9.500133514404297, 2.1026268005371094, 0.6611887216567993, 1.2534711360931396, -1.2662652730941772, 0.4346863627433777, -2.03466796875, 0.486328125, -0.211669921875, 0, 
430, 1025196485, 0.4207492768764496, -0.4591996669769287, -0.5049715638160706, -0.5975915193557739, 9.486144065856934, 2.0810394287109375, 0.7027129530906677, 1.3304673433303833, -1.4601393938064575, 0.351721853017807, -2.040283203125, 0.49072265625, -0.211181640625, 0, 
431, 1025204818, 0.42074376344680786, -0.4592027962207794, -0.504984974861145, -0.5975816249847412, 9.525046348571777, 2.0981974601745605, 0.653298020362854, 1.2808781862258911, -1.5439492464065552, 0.3337150812149048, -2.0322265625, 0.483154296875, -0.213623046875, 0, 
432, 1025213151, 0.42074689269065857, -0.45920905470848083, -0.5049918293952942, -0.5975688695907593, 9.530625343322754, 2.099270820617676, 0.6684287786483765, 1.2440706491470337, -1.5054510831832886, 0.49106332659721375, -2.03515625, 0.489501953125, -0.213623046875, 0, 
433, 1025221484, 0.4207523465156555, -0.45921534299850464, -0.5050063133239746, -0.5975480079650879, 9.532888412475586, 2.1194007396698, 0.6408793926239014, 1.4052354097366333, -1.5732263326644897, 0.5000539422035217, -2.031005859375, 0.482666015625, -0.211669921875, 0, 
434, 1025229817, 0.4207630157470703, -0.45922112464904785, -0.5050182342529297, -0.597525954246521, 9.528559684753418, 2.099682569503784, 0.6495521068572998, 1.4008554220199585, -1.5367262363433838, 0.571056604385376, -2.035400390625, 0.48388671875, -0.21435546875, 0, 
435, 1025238150, 0.4207780063152313, -0.45922496914863586, -0.5050302147865295, -0.5975023508071899, 9.518319129943848, 2.1168463230133057, 0.643979012966156, 1.350779414176941, -1.5172336101531982, 0.5852724313735962, -2.035400390625, 0.485107421875, -0.21240234375, 0, 
436, 1025246483, 0.420786052942276, -0.45923733711242676, -0.5050436854362488, -0.5974758267402649, 9.505362510681152, 2.1154592037200928, 0.6425521969795227, 1.3905329704284668, -1.6462270021438599, 0.6114502549171448, -2.037109375, 0.487548828125, -0.211669921875, 0, 
437, 1025254816, 0.42079460620880127, -0.4592517614364624, -0.5050512552261353, -0.5974524021148682, 9.530350685119629, 2.104018211364746, 0.6111325621604919, 1.386946678161621, -1.5834462642669678, 0.6450304388999939, -2.0302734375, 0.485107421875, -0.21435546875, 0, 
438, 1025263149, 0.42081478238105774, -0.45925867557525635, -0.5050575733184814, -0.5974276065826416, 9.565779685974121, 2.1302530765533447, 0.6206138134002686, 1.4286466836929321, -1.4670296907424927, 0.7088611125946045, -2.037841796875, 0.48388671875, -0.214111328125, 0, 
439, 1025271482, 0.4208596348762512, -0.4592423439025879, -0.5050622820854187, -0.5974043011665344, 9.562570571899414, 2.120633363723755, 0.5763556957244873, 1.7289221286773682, -1.0694454908370972, 0.7440294027328491, -2.03271484375, 0.487548828125, -0.215576171875, 0, 
440, 1025279815, 0.42089924216270447, -0.45924144983291626, -0.5050605535507202, -0.5973785519599915, 9.517440795898438, 2.099231481552124, 0.7219464778900146, 1.537046194076538, -1.2271010875701904, 0.8707430958747864, -2.033935546875, 0.48583984375, -0.212890625, 0, 
441, 1025288148, 0.4209446907043457, -0.45923060178756714, -0.5050705671310425, -0.5973465442657471, 9.5011625289917, 2.1092529296875, 0.6567686796188354, 1.677514672279358, -1.2243859767913818, 0.7952579259872437, -2.035888671875, 0.487548828125, -0.21240234375, 0, 
442, 1025296481, 0.42096394300460815, -0.45923376083374023, -0.5050647258758545, -0.5973354578018188, 9.491307258605957, 2.074923515319824, 0.6450898051261902, 1.2479383945465088, -1.2838881015777588, 0.6715156435966492, -2.035888671875, 0.486328125, -0.21484375, 0, 
443, 1025304814, 0.42098262906074524, -0.45923665165901184, -0.5050645470619202, -0.5973201394081116, 9.4988374710083, 2.0984365940093994, 0.693891167640686, 1.2846177816390991, -1.3478978872299194, 0.6428020000457764, -2.03271484375, 0.485595703125, -0.21240234375, 0, 
