PacketCounter,SampleTimeFine,Quat_W,Quat_X,Quat_Y,Quat_Z,Acc_X,Acc_Y,Acc_Z,Gyr_X,Gyr_Y,Gyr_Z,Mag_X,Mag_Y,Mag_Z,Status,
0, 1006730557, 0.4157103896141052, -0.4615623652935028, -0.4999474287033081, -0.6034930348396301, 0, 0, 0, 0, 0, 0, -2.0390625, 0.480712890625, -0.216064453125, 0, 
1, 1006738890, 0.4157024323940277, -0.46159231662750244, -0.499947190284729, -0.6034759283065796, 9.485727310180664, 2.136482000350952, 0.7315669059753418, 1.0005816221237183, -1.7315478324890137, 0.6765615344047546, -2.0341796875, 0.47900390625, -0.207763671875, 0, 
2, 1006747223, 0.4156939387321472, -0.4616185426712036, -0.4999459385871887, -0.6034627556800842, 9.48746109008789, 2.126859426498413, 0.7096900343894958, 0.9926413297653198, -1.709238052368164, 0.5853237509727478, -2.0390625, 0.4794921875, -0.212890625, 0, 
3, 1006755556, 0.415680468082428, -0.4616471529006958, -0.49993860721588135, -0.6034561395645142, 9.519878387451172, 2.1325089931488037, 0.6845895648002625, 0.8369578719139099, -1.6516571044921875, 0.6063017249107361, -2.0322265625, 0.47998046875, -0.213623046875, 0, 
4, 1006763889, 0.41566839814186096, -0.4616662561893463, -0.499936044216156, -0.6034520268440247, 9.506194114685059, 2.104689121246338, 0.7190786004066467, 0.9383648037910461, -1.6099315881729126, 0.4628876745700836, -2.031005859375, 0.478271484375, -0.212890625, 0, 
5, 1006772222, 0.41565757989883423, -0.46168801188468933, -0.49994173645973206, -0.6034379601478577, 9.49715805053711, 2.116316795349121, 0.7263843417167664, 1.0580343008041382, -1.6959184408187866, 0.5401913523674011, -2.03662109375, 0.48193359375, -0.2109375, 0, 
6, 1006780555, 0.41564786434173584, -0.46169477701187134, -0.4999483823776245, -0.6034339666366577, 9.510746955871582, 2.1278557777404785, 0.6917357444763184, 1.0992220640182495, -1.5428478717803955, 0.33870983123779297, -2.03662109375, 0.478271484375, -0.209716796875, 0, 
7, 1006788888, 0.415638267993927, -0.4616941213607788, -0.4999571442604065, -0.6034338474273682, 9.50646686553955, 2.126605987548828, 0.6853017807006836, 1.1217625141143799, -1.43275785446167, 0.2987772524356842, -2.0361328125, 0.480224609375, -0.21044921875, 0, 
8, 1006797221, 0.41563546657562256, -0.46168506145477295, -0.49996262788772583, -0.603438138961792, 9.495708465576172, 2.124628782272339, 0.6866832375526428, 1.1669973134994507, -1.3050708770751953, 0.2471645325422287, -2.02978515625, 0.478271484375, -0.211181640625, 0, 
9, 1006805554, 0.415632963180542, -0.4616696238517761, -0.49997326731681824, -0.6034428477287292, 9.48092269897461, 2.1273789405822754, 0.6858617663383484, 1.2332102060317993, -1.2406511306762695, 0.21373797953128815, -2.0390625, 0.47900390625, -0.211669921875, 0, 
10, 1006813887, 0.41563114523887634, -0.4616495966911316, -0.4999788701534271, -0.6034548878669739, 9.498117446899414, 2.125903606414795, 0.6780537366867065, 1.182955026626587, -1.158659815788269, 0.1366647481918335, -2.04052734375, 0.47705078125, -0.21484375, 0, 
11, 1006822220, 0.41562047600746155, -0.4616263806819916, -0.49999165534973145, -0.6034693717956543, 9.495434761047363, 2.139615535736084, 0.7180810570716858, 1.1775503158569336, -1.182916522026062, 0.024525631219148636, -2.03466796875, 0.4814453125, -0.215576171875, 0, 
12, 1006830553, 0.4156116247177124, -0.46160829067230225, -0.49999767541885376, -0.6034842133522034, 9.515892028808594, 2.144437074661255, 0.7178951501846313, 1.111363172531128, -1.2065327167510986, 0.07047756016254425, -2.03662109375, 0.483154296875, -0.21240234375, 0, 
13, 1006838886, 0.41560816764831543, -0.46158668398857117, -0.5000062584877014, -0.6034960746765137, 9.504612922668457, 2.146760940551758, 0.7363136410713196, 1.1968379020690918, -1.1402688026428223, 0.13789422810077667, -2.037841796875, 0.47705078125, -0.209716796875, 0, 
14, 1006847219, 0.4156014025211334, -0.46157246828079224, -0.5000171065330505, -0.6035026907920837, 9.480365753173828, 2.1305696964263916, 0.7228043675422668, 1.2001678943634033, -1.3047124147415161, 0.13036365807056427, -2.035400390625, 0.47998046875, -0.214111328125, 0, 
15, 1006855552, 0.41558486223220825, -0.4615603983402252, -0.5000334978103638, -0.6035097241401672, 9.502188682556152, 2.150449514389038, 0.7215899229049683, 1.159543514251709, -1.3850897550582886, 0.07214249670505524, -2.041015625, 0.4833984375, -0.214111328125, 0, 
16, 1006863885, 0.4155709445476532, -0.46154913306236267, -0.5000432133674622, -0.6035199165344238, 9.523473739624023, 2.123107433319092, 0.694260835647583, 1.1019628047943115, -1.349024772644043, 0.08008289337158203, -2.0361328125, 0.478759765625, -0.214111328125, 0, 
17, 1006872218, 0.4155595898628235, -0.46153074502944946, -0.5000595450401306, -0.6035281419754028, 9.514680862426758, 2.145705461502075, 0.6852585077285767, 1.2180720567703247, -1.2876019477844238, 0.0626908391714096, -2.04052734375, 0.47705078125, -0.21337890625, 0, 
18, 1006880551, 0.41555488109588623, -0.46150726079940796, -0.5000724196434021, -0.6035388112068176, 9.512017250061035, 2.1327500343322754, 0.7083040475845337, 1.2533941268920898, -1.1995657682418823, 0.04829563945531845, -2.0322265625, 0.478271484375, -0.21484375, 0, 
19, 1006888884, 0.41554707288742065, -0.461480975151062, -0.5000892877578735, -0.603550136089325, 9.50184440612793, 2.131512403488159, 0.7220050096511841, 1.2692493200302124, -1.1820200681686401, 0.018378213047981262, -2.037109375, 0.482666015625, -0.211669921875, 0, 
20, 1006897217, 0.41554519534111023, -0.46145176887512207, -0.5001068711280823, -0.6035592555999756, 9.517799377441406, 2.1446714401245117, 0.7285734415054321, 1.354493498802185, -1.1693922281265259, 0.010796400718390942, -2.035400390625, 0.475830078125, -0.212890625, 0, 
21, 1006905550, 0.4155358672142029, -0.46141988039016724, -0.5001276731491089, -0.6035729646682739, 9.502628326416016, 2.12862491607666, 0.7163819670677185, 1.3077988624572754, -1.1530760526657104, -0.07187354564666748, -2.037353515625, 0.4814453125, -0.212890625, 0, 
22, 1006913883, 0.4155239760875702, -0.46139127016067505, -0.5001465678215027, -0.6035873293876648, 9.487115859985352, 2.134667158126831, 0.7097307443618774, 1.2621798515319824, -1.2178287506103516, -0.10555625706911087, -2.037353515625, 0.4775390625, -0.212158203125, 0, 
23, 1006922216, 0.41551923751831055, -0.4613546133041382, -0.5001729130744934, -0.6035966873168945, 9.51318359375, 2.1281368732452393, 0.7306566834449768, 1.439916968345642, -1.1409093141555786, -0.07761113345623016, -2.037841796875, 0.478271484375, -0.211669921875, 0, 
24, 1006930549, 0.41550737619400024, -0.4613255262374878, -0.5001868605613708, -0.6036154627799988, 9.51571273803711, 2.1576054096221924, 0.7135677337646484, 1.194583773612976, -1.1583524942398071, -0.10273869335651398, -2.039306640625, 0.47900390625, -0.208984375, 0, 
25, 1006938882, 0.4155009388923645, -0.4612855911254883, -0.5002070665359497, -0.6036336421966553, 9.509490013122559, 2.139702081680298, 0.6863842606544495, 1.3361793756484985, -1.0347381830215454, -0.1253816932439804, -2.0322265625, 0.4794921875, -0.214111328125, 0, 
26, 1006947215, 0.4154893755912781, -0.4612557888031006, -0.5002167820930481, -0.6036562323570251, 9.504547119140625, 2.1609597206115723, 0.7377156019210815, 1.1376434564590454, -1.1004899740219116, -0.10051026195287704, -2.03857421875, 0.477783203125, -0.210205078125, 0, 
27, 1006955548, 0.41547343134880066, -0.46123334765434265, -0.5002366304397583, -0.6036680340766907, 9.514517784118652, 2.1516189575195312, 0.7445725798606873, 1.2172012329101562, -1.2842977046966553, -0.043288055807352066, -2.035400390625, 0.4794921875, -0.211669921875, 0, 
28, 1006963881, 0.41545766592025757, -0.4612262547016144, -0.5002480149269104, -0.6036748290061951, 9.51463794708252, 2.142305612564087, 0.7068402171134949, 1.104831576347351, -1.4281728267669678, 0.10021568834781647, -2.03662109375, 0.4794921875, -0.212890625, 0, 
29, 1006972214, 0.4154408276081085, -0.46121323108673096, -0.5002621412277222, -0.6036847233772278, 9.498842239379883, 2.146578788757324, 0.7195618748664856, 1.1227105855941772, -1.3474112749099731, 0.059207309037446976, -2.0361328125, 0.47900390625, -0.21044921875, 0, 
30, 1006980547, 0.4154275357723236, -0.46120017766952515, -0.5002725124359131, -0.6036952137947083, 9.509848594665527, 2.1270248889923096, 0.6938396692276001, 1.1209940910339355, -1.3329390287399292, 0.06625121831893921, -2.037353515625, 0.475830078125, -0.212158203125, 0, 
31, 1006988880, 0.41540610790252686, -0.46118223667144775, -0.5002846121788025, -0.6037137508392334, 9.511536598205566, 2.1349310874938965, 0.6950060725212097, 1.045688271522522, -1.271798014640808, -0.04884634539484978, -2.03662109375, 0.47705078125, -0.207275390625, 0, 
32, 1006997213, 0.41539227962493896, -0.46116456389427185, -0.5002962946891785, -0.6037271022796631, 9.521541595458984, 2.143075942993164, 0.7076752185821533, 1.1351075172424316, -1.2864749431610107, 0.004623368848115206, -2.035400390625, 0.476318359375, -0.21044921875, 0, 
33, 1007005546, 0.4153735935688019, -0.46115216612815857, -0.5003061890602112, -0.6037412285804749, 9.509449005126953, 2.1618900299072266, 0.7049628496170044, 1.042486548423767, -1.3151628971099854, 0.05098513141274452, -2.03662109375, 0.475830078125, -0.2109375, 0, 
34, 1007013879, 0.4153543710708618, -0.4611399173736572, -0.500321090221405, -0.6037514209747314, 9.507275581359863, 2.162931442260742, 0.70027095079422, 1.118868112564087, -1.408936619758606, -0.004738633055239916, -2.04052734375, 0.47509765625, -0.212890625, 0, 
35, 1007022212, 0.4153335988521576, -0.4611271619796753, -0.500338077545166, -0.6037613749504089, 9.509770393371582, 2.1653268337249756, 0.7066977620124817, 1.1176644563674927, -1.3927229642868042, 0.009746217168867588, -2.037353515625, 0.476318359375, -0.208984375, 0, 
36, 1007030545, 0.41532522439956665, -0.461110383272171, -0.5003490447998047, -0.603770911693573, 9.510499954223633, 2.123692035675049, 0.7094734907150269, 1.1838772296905518, -1.2766647338867188, 0.083412766456604, -2.033447265625, 0.478271484375, -0.2109375, 0, 
37, 1007038878, 0.4153152108192444, -0.4610919654369354, -0.5003563761711121, -0.6037857532501221, 9.492366790771484, 2.1619036197662354, 0.6757862567901611, 1.1093653440475464, -1.1871684789657593, 0.09091772139072418, -2.041015625, 0.478271484375, -0.212158203125, 0, 
38, 1007047211, 0.4153059720993042, -0.46107184886932373, -0.5003677606582642, -0.6037980318069458, 9.52271556854248, 2.1448802947998047, 0.6750639081001282, 1.1815205812454224, -1.2401643991470337, 0.0349506214261055, -2.032958984375, 0.47705078125, -0.20654296875, 0, 
39, 1007055544, 0.4152960181236267, -0.4610518217086792, -0.5003776550292969, -0.6038119792938232, 9.511049270629883, 2.166245698928833, 0.7197262048721313, 1.1445848941802979, -1.1917022466659546, 0.07114353030920029, -2.037841796875, 0.4775390625, -0.214111328125, 0, 
40, 1007063877, 0.41528835892677307, -0.4610290825366974, -0.5003818273544312, -0.6038311719894409, 9.512144088745117, 2.153012990951538, 0.7198120355606079, 1.0998111963272095, -1.1225181818008423, 0.03587273880839348, -2.037841796875, 0.480224609375, -0.211669921875, 0, 
41, 1007072210, 0.4152785837650299, -0.4609997868537903, -0.5003916621208191, -0.6038521528244019, 9.495220184326172, 2.1640210151672363, 0.693918764591217, 1.1493234634399414, -1.0698809623718262, -0.031838495284318924, -2.03857421875, 0.4794921875, -0.2109375, 0, 
42, 1007080543, 0.41526591777801514, -0.46098023653030396, -0.5003966093063354, -0.6038716435432434, 9.504861831665039, 2.150144577026367, 0.723903477191925, 1.0549862384796143, -1.1858110427856445, 0.008516733534634113, -2.035400390625, 0.478759765625, -0.21484375, 0, 
43, 1007088876, 0.41524994373321533, -0.4609593152999878, -0.5004087686538696, -0.6038885712623596, 9.5086030960083, 2.1734414100646973, 0.6845056414604187, 1.110799789428711, -1.220415711402893, -0.01585521176457405, -2.0361328125, 0.4794921875, -0.212890625, 0, 
44, 1007097209, 0.41523703932762146, -0.4609399437904358, -0.5004197955131531, -0.6039031147956848, 9.504578590393066, 2.150214672088623, 0.7307758331298828, 1.1362859010696411, -1.25612211227417, -0.001024569384753704, -2.037109375, 0.483154296875, -0.21484375, 0, 
45, 1007105542, 0.41521772742271423, -0.4609254002571106, -0.5004385709762573, -0.6039119362831116, 9.488789558410645, 2.145784378051758, 0.7408311367034912, 1.165639877319336, -1.3863447904586792, 0.003470728639513254, -2.0341796875, 0.47705078125, -0.21044921875, 0, 
46, 1007113875, 0.4152029752731323, -0.46091240644454956, -0.5004546642303467, -0.603918731212616, 9.474813461303711, 2.1439335346221924, 0.737555980682373, 1.1839540004730225, -1.3983577489852905, 0.0385109968483448, -2.034912109375, 0.476318359375, -0.216064453125, 0, 
47, 1007122208, 0.41518402099609375, -0.4609016180038452, -0.5004754066467285, -0.6039227247238159, 9.49765682220459, 2.156931161880493, 0.7253196239471436, 1.1926628351211548, -1.4575011730194092, 0.04675878584384918, -2.0380859375, 0.473876953125, -0.211669921875, 0, 
48, 1007130541, 0.415169358253479, -0.46089205145835876, -0.5004937052726746, -0.6039249897003174, 9.525858879089355, 2.159655809402466, 0.7272953391075134, 1.2142555713653564, -1.467106580734253, 0.07472953200340271, -2.037353515625, 0.47314453125, -0.214111328125, 0, 
49, 1007138874, 0.4151562750339508, -0.4608709216117859, -0.5005089044570923, -0.6039373874664307, 9.524839401245117, 2.1398963928222656, 0.6765429377555847, 1.1844921112060547, -1.2452874183654785, 0.012410097755491734, -2.03662109375, 0.47705078125, -0.21044921875, 0, 
50, 1007147207, 0.41514649987220764, -0.46085017919540405, -0.5005202293395996, -0.6039504408836365, 9.511396408081055, 2.1701157093048096, 0.6839881539344788, 1.1779857873916626, -1.233991265296936, 0.0202480535954237, -2.037841796875, 0.478271484375, -0.213623046875, 0, 
51, 1007155540, 0.4151325225830078, -0.46083009243011475, -0.5005316138267517, -0.6039661169052124, 9.495285034179688, 2.1527912616729736, 0.6967584490776062, 1.1178693771362305, -1.218443512916565, 0.01876242645084858, -2.041015625, 0.47509765625, -0.214111328125, 0, 
52, 1007163873, 0.41512370109558105, -0.46080905199050903, -0.5005415081977844, -0.6039800047874451, 9.492914199829102, 2.1491990089416504, 0.7036359310150146, 1.1675608158111572, -1.210631251335144, 0.03072427213191986, -2.0341796875, 0.474365234375, -0.212890625, 0, 
53, 1007172206, 0.41511061787605286, -0.46078673005104065, -0.5005504488945007, -0.6039984822273254, 9.4920015335083, 2.159386157989502, 0.7203914523124695, 1.0976595878601074, -1.1622971296310425, 0.00674935057759285, -2.0361328125, 0.47509765625, -0.21337890625, 0, 
54, 1007180539, 0.4151054918766022, -0.4607684314250946, -0.500555157661438, -0.604012131690979, 9.487738609313965, 2.1448585987091064, 0.7046909332275391, 1.1330329179763794, -1.1801501512527466, 0.11645511537790298, -2.03662109375, 0.476318359375, -0.21044921875, 0, 
55, 1007188872, 0.41509389877319336, -0.46075356006622314, -0.5005583763122559, -0.6040287613868713, 9.51461124420166, 2.1500372886657715, 0.7140039205551147, 1.0290645360946655, -1.1927011013031006, 0.11773581057786942, -2.034423828125, 0.470703125, -0.210205078125, 0, 
56, 1007197205, 0.4150881767272949, -0.46072885394096375, -0.5005549788475037, -0.6040543913841248, 9.497788429260254, 2.161059617996216, 0.7129595875740051, 1.0162062644958496, -1.0076384544372559, 0.04967880621552467, -2.04052734375, 0.47265625, -0.210205078125, 0, 
57, 1007205538, 0.41507259011268616, -0.46071478724479675, -0.5005618929862976, -0.6040701270103455, 9.48596477508545, 2.1751866340637207, 0.7288460731506348, 1.0387213230133057, -1.2543035745620728, 0.07260355353355408, -2.037353515625, 0.475830078125, -0.212158203125, 0, 
58, 1007213871, 0.41506099700927734, -0.46070122718811035, -0.5005713701248169, -0.6040804982185364, 9.49890422821045, 2.1466777324676514, 0.7115842700004578, 1.1276538372039795, -1.3120379447937012, 0.08223449438810349, -2.039794921875, 0.475830078125, -0.211669921875, 0, 
59, 1007222204, 0.4150439500808716, -0.46068140864372253, -0.5005844831466675, -0.604096531867981, 9.52447509765625, 2.1637492179870605, 0.7402548789978027, 1.1077260971069336, -1.2490781545639038, -0.02100367285311222, -2.035400390625, 0.47705078125, -0.212890625, 0, 
60, 1007230537, 0.41503262519836426, -0.46067067980766296, -0.5005863904953003, -0.6041110157966614, 9.512993812561035, 2.1715455055236816, 0.7058711051940918, 1.021047592163086, -1.2642419338226318, 0.12905733287334442, -2.0361328125, 0.475830078125, -0.216552734375, 0, 
61, 1007238870, 0.41501981019973755, -0.46065518260002136, -0.5005912780761719, -0.6041274666786194, 9.519819259643555, 2.1703298091888428, 0.7126448750495911, 1.0425121784210205, -1.207147479057312, 0.09255702793598175, -2.034912109375, 0.47509765625, -0.21484375, 0, 
62, 1007247203, 0.41501137614250183, -0.46064484119415283, -0.5005908608436584, -0.6041415929794312, 9.498675346374512, 2.160895347595215, 0.718259871006012, 1.0217134952545166, -1.2368857860565186, 0.17270399630069733, -2.0361328125, 0.47509765625, -0.21337890625, 0, 
63, 1007255536, 0.41500118374824524, -0.4606294333934784, -0.5006008148193359, -0.6041519641876221, 9.496087074279785, 2.16139817237854, 0.7244319915771484, 1.1398205757141113, -1.2583504915237427, 0.11722352355718613, -2.036865234375, 0.471435546875, -0.212890625, 0, 
64, 1007263869, 0.4149898886680603, -0.4606151580810547, -0.5006119608879089, -0.6041614413261414, 9.491739273071289, 2.166278123855591, 0.7404054403305054, 1.1526020765304565, -1.318006157875061, 0.07560040801763535, -2.0380859375, 0.474609375, -0.209716796875, 0, 
65, 1007272202, 0.414969801902771, -0.4606028199195862, -0.5006255507469177, -0.6041733026504517, 9.508441925048828, 2.156661033630371, 0.7130928039550781, 1.0822142362594604, -1.3612172603607178, 0.025447741150856018, -2.03662109375, 0.474609375, -0.21337890625, 0, 
66, 1007280535, 0.4149567484855652, -0.4605923295021057, -0.5006355047225952, -0.6041818261146545, 9.510156631469727, 2.161553144454956, 0.6887842416763306, 1.1173570156097412, -1.362011432647705, 0.09829463064670563, -2.0341796875, 0.47509765625, -0.21728515625, 0, 
67, 1007288868, 0.41495147347450256, -0.46057891845703125, -0.5006466507911682, -0.6041865944862366, 9.500458717346191, 2.187877893447876, 0.7092134952545166, 1.2118476629257202, -1.2799433469772339, 0.1986255645751953, -2.037353515625, 0.47314453125, -0.21533203125, 0, 
68, 1007297201, 0.41493919491767883, -0.4605794847011566, -0.5006504058837891, -0.6041914820671082, 9.495144844055176, 2.1706490516662598, 0.6934149861335754, 1.032983660697937, -1.4354474544525146, 0.24178555607795715, -2.0380859375, 0.471435546875, -0.212890625, 0, 
69, 1007305534, 0.41492384672164917, -0.4605807662010193, -0.5006539225578308, -0.6041980981826782, 9.499824523925781, 2.1708879470825195, 0.6873840093612671, 0.9867499470710754, -1.4177734851837158, 0.2504943907260895, -2.039794921875, 0.473388671875, -0.21337890625, 0, 
70, 1007313867, 0.4149116277694702, -0.4605809152126312, -0.5006608963012695, -0.6042006015777588, 9.48031997680664, 2.164806604385376, 0.7326847910881042, 1.0781415700912476, -1.4655696153640747, 0.23330725729465485, -2.041259765625, 0.47021484375, -0.214599609375, 0, 
71, 1007322200, 0.4148900508880615, -0.4605916142463684, -0.5006685853004456, -0.6042009592056274, 9.482539176940918, 2.1592140197753906, 0.7292972207069397, 0.9750953316688538, -1.6013250350952148, 0.2738289535045624, -2.035400390625, 0.478759765625, -0.213623046875, 0, 
72, 1007330533, 0.41487395763397217, -0.4605993330478668, -0.5006722807884216, -0.6042030453681946, 9.487298011779785, 2.162890672683716, 0.7117317914962769, 0.9864681959152222, -1.5381089448928833, 0.27516090869903564, -2.0341796875, 0.47314453125, -0.212158203125, 0, 
73, 1007338866, 0.4148659110069275, -0.4605928659439087, -0.5006777048110962, -0.6042090058326721, 9.513805389404297, 2.174616813659668, 0.7106805443763733, 1.0958666801452637, -1.321643352508545, 0.2513909637928009, -2.037353515625, 0.476318359375, -0.211669921875, 0, 
74, 1007347199, 0.4148569107055664, -0.4605939984321594, -0.5006791949272156, -0.6042131185531616, 9.508465766906738, 2.1715028285980225, 0.7123464941978455, 1.0379784107208252, -1.4107296466827393, 0.29211753606796265, -2.037353515625, 0.47265625, -0.212158203125, 0, 
75, 1007355532, 0.4148462116718292, -0.4605969190597534, -0.5006818175315857, -0.6042159795761108, 9.494994163513184, 2.168092966079712, 0.7158790826797485, 1.0245821475982666, -1.417030692100525, 0.32631251215934753, -2.034912109375, 0.475830078125, -0.212890625, 0, 
76, 1007363865, 0.4148333966732025, -0.4605978727340698, -0.5006827712059021, -0.6042232513427734, 9.499391555786133, 2.162797451019287, 0.7507112622261047, 0.9869804978370667, -1.412368893623352, 0.24542278051376343, -2.0380859375, 0.474609375, -0.212890625, 0, 
77, 1007372198, 0.4148223102092743, -0.46059584617614746, -0.5006850361824036, -0.6042305827140808, 9.511080741882324, 2.1583688259124756, 0.7271190881729126, 1.0208169221878052, -1.3510996103286743, 0.2678608298301697, -2.035400390625, 0.47314453125, -0.21728515625, 0, 
78, 1007380531, 0.4148041605949402, -0.46059563755989075, -0.5006844401359558, -0.6042436957359314, 9.484912872314453, 2.1737775802612305, 0.7074376344680786, 0.9070640802383423, -1.3934143781661987, 0.1676323562860489, -2.037841796875, 0.478759765625, -0.214111328125, 0, 
79, 1007388864, 0.4147847294807434, -0.4605969786643982, -0.5006853342056274, -0.6042552590370178, 9.499409675598145, 2.156806707382202, 0.7251583933830261, 0.9048100113868713, -1.401124119758606, 0.2070014327764511, -2.036865234375, 0.474609375, -0.210205078125, 0, 
80, 1007397197, 0.41476553678512573, -0.46059826016426086, -0.5006886720657349, -0.6042647957801819, 9.522890090942383, 2.190037727355957, 0.7217336893081665, 0.9494300484657288, -1.4589101076126099, 0.16550637781620026, -2.034912109375, 0.471923828125, -0.21484375, 0, 
81, 1007405530, 0.4147564470767975, -0.4606006145477295, -0.5006842017173767, -0.6042728424072266, 9.532916069030762, 2.1665961742401123, 0.7224013805389404, 0.9419507384300232, -1.3296605348587036, 0.3517986834049225, -2.0380859375, 0.47314453125, -0.21533203125, 0, 
82, 1007413863, 0.41475075483322144, -0.46060094237327576, -0.5006856918334961, -0.6042752861976624, 9.501858711242676, 2.1947720050811768, 0.6903618574142456, 1.0744787454605103, -1.392056941986084, 0.3242121636867523, -2.03369140625, 0.47314453125, -0.21533203125, 0, 
83, 1007422196, 0.4147460162639618, -0.4605986177921295, -0.5006856322288513, -0.6042803525924683, 9.4906644821167, 2.147911310195923, 0.724651575088501, 1.0519639253616333, -1.3056601285934448, 0.3455744981765747, -2.0361328125, 0.476318359375, -0.2109375, 0, 
84, 1007430529, 0.4147489070892334, -0.46059733629226685, -0.5006847977638245, -0.6042800545692444, 9.48661994934082, 2.1688473224639893, 0.7111390829086304, 1.1385655403137207, -1.3231544494628906, 0.41245320439338684, -2.0380859375, 0.471435546875, -0.2177734375, 0, 
85, 1007438862, 0.4147474467754364, -0.46059781312942505, -0.5006850361824036, -0.6042805314064026, 9.46745777130127, 2.1620352268218994, 0.7110853791236877, 1.091461181640625, -1.3355774879455566, 0.416628360748291, -2.039794921875, 0.477783203125, -0.208984375, 0, 
86, 1007447195, 0.4147445559501648, -0.46060171723365784, -0.5006828308105469, -0.6042813062667847, 9.485875129699707, 2.1670618057250977, 0.7250440716743469, 1.0525016784667969, -1.391595721244812, 0.40397489070892334, -2.0361328125, 0.4775390625, -0.212158203125, 0, 
87, 1007455528, 0.4147339165210724, -0.4606058597564697, -0.5006892681121826, -0.6042801141738892, 9.4867525100708, 2.1559433937072754, 0.698589563369751, 1.0773475170135498, -1.4758665561676025, 0.3352006673812866, -2.03564453125, 0.47265625, -0.210205078125, 0, 
88, 1007463861, 0.41472965478897095, -0.4606042504310608, -0.5006971955299377, -0.6042776107788086, 9.504931449890137, 2.1653401851654053, 0.7290852665901184, 1.180598497390747, -1.433705449104309, 0.309253454208374, -2.0361328125, 0.47509765625, -0.2109375, 0, 
89, 1007472194, 0.4147244095802307, -0.4606034755706787, -0.5007013082504272, -0.6042785048484802, 9.493475914001465, 2.156558036804199, 0.7314637303352356, 1.103371500968933, -1.372000813484192, 0.34770041704177856, -2.032958984375, 0.47509765625, -0.213623046875, 0, 
90, 1007480527, 0.41471612453460693, -0.4605995714664459, -0.5007049441337585, -0.6042841076850891, 9.49826431274414, 2.1566200256347656, 0.7428223490715027, 1.077731728553772, -1.3661607503890991, 0.24129889905452728, -2.037841796875, 0.475830078125, -0.21484375, 0, 
91, 1007488860, 0.41470885276794434, -0.4605987071990967, -0.5007043480873108, -0.6042903065681458, 9.48550033569336, 2.1601145267486572, 0.7281264066696167, 1.0177175998687744, -1.3262027502059937, 0.33012911677360535, -2.0341796875, 0.474365234375, -0.212890625, 0, 
92, 1007497193, 0.41470566391944885, -0.4605944752693176, -0.5007053017616272, -0.6042948961257935, 9.49091911315918, 2.1663808822631836, 0.7312846183776855, 1.097377896308899, -1.3197990655899048, 0.302977979183197, -2.0341796875, 0.4755859375, -0.216064453125, 0, 
93, 1007505526, 0.41468945145606995, -0.46058177947998047, -0.5007148385047913, -0.6043078899383545, 9.494114875793457, 2.140918493270874, 0.697686493396759, 1.0677677392959595, -1.3042513132095337, 0.07250109314918518, -2.034912109375, 0.47265625, -0.210205078125, 0, 
94, 1007513859, 0.4146808385848999, -0.46057045459747314, -0.5007174611091614, -0.604320228099823, 9.497594833374023, 2.159364700317383, 0.715949535369873, 1.062977910041809, -1.2579149007797241, 0.1541336327791214, -2.03369140625, 0.474609375, -0.21044921875, 0, 
95, 1007522192, 0.4146668612957001, -0.46056100726127625, -0.5007256269454956, -0.6043301820755005, 9.511277198791504, 2.1858367919921875, 0.7292934060096741, 1.073274850845337, -1.3278931379318237, 0.13661351799964905, -2.035400390625, 0.480224609375, -0.2109375, 0, 
96, 1007530525, 0.4146604537963867, -0.46054959297180176, -0.5007375478744507, -0.6043334603309631, 9.477886199951172, 2.1692912578582764, 0.7158457040786743, 1.215997338294983, -1.3523802757263184, 0.16645410656929016, -2.034912109375, 0.471435546875, -0.21484375, 0, 
97, 1007538858, 0.41464704275131226, -0.460540771484375, -0.5007510185241699, -0.6043381690979004, 9.50137710571289, 2.1908977031707764, 0.7106515765190125, 1.1523205041885376, -1.3911347389221191, 0.14370869100093842, -2.03369140625, 0.47265625, -0.2109375, 0, 
98, 1007547191, 0.41464337706565857, -0.4605346918106079, -0.5007528066635132, -0.604343831539154, 9.503817558288574, 2.1631758213043213, 0.702061116695404, 1.1038581132888794, -1.3059417009353638, 0.275314599275589, -2.039306640625, 0.47314453125, -0.216064453125, 0, 
99, 1007555524, 0.4146353602409363, -0.46052810549736023, -0.5007581114768982, -0.6043500304222107, 9.497740745544434, 2.158834457397461, 0.7190166711807251, 1.0920501947402954, -1.314702033996582, 0.24744635820388794, -2.0341796875, 0.47705078125, -0.212890625, 0, 
100, 1007563857, 0.41462773084640503, -0.4605187177658081, -0.5007654428482056, -0.6043563485145569, 9.481039047241211, 2.1451027393341064, 0.7520570158958435, 1.1397181749343872, -1.3331184387207031, 0.18084929883480072, -2.0380859375, 0.473388671875, -0.209716796875, 0, 
101, 1007572190, 0.4146260619163513, -0.4605048894882202, -0.5007776618003845, -0.6043580174446106, 9.505026817321777, 2.1846399307250977, 0.7226976156234741, 1.2603098154067993, -1.2808140516281128, 0.23089951276779175, -2.032958984375, 0.47314453125, -0.2109375, 0, 
102, 1007580523, 0.41462987661361694, -0.4604923725128174, -0.5007776618003845, -0.6043649315834045, 9.486910820007324, 2.159834623336792, 0.7180748581886292, 1.1636674404144287, -1.1823272705078125, 0.29880285263061523, -2.034912109375, 0.4775390625, -0.212890625, 0, 
103, 1007588856, 0.4146209955215454, -0.4604809880256653, -0.5007879137992859, -0.6043713092803955, 9.455605506896973, 2.1371357440948486, 0.7308656573295593, 1.1585958003997803, -1.3110644817352295, 0.17344678938388824, -2.039794921875, 0.476318359375, -0.211669921875, 0, 
104, 1007597189, 0.4146153926849365, -0.46045777201652527, -0.500809907913208, -0.6043745875358582, 9.490312576293945, 2.1881675720214844, 0.6733944416046143, 1.3744982481002808, -1.3069919347763062, 0.02631862461566925, -2.037353515625, 0.475830078125, -0.21337890625, 0, 
105, 1007605522, 0.4146093428134918, -0.46043550968170166, -0.5008244514465332, -0.6043834686279297, 9.496946334838867, 2.1416678428649902, 0.7398853302001953, 1.255340814590454, -1.2098884582519531, 0.08154291659593582, -2.041015625, 0.474609375, -0.212158203125, 0, 
106, 1007613855, 0.4146069288253784, -0.4604145884513855, -0.5008351802825928, -0.6043922305107117, 9.499363899230957, 2.166685104370117, 0.6866207122802734, 1.2482202053070068, -1.2044838666915894, 0.11002595722675323, -2.0361328125, 0.47314453125, -0.218017578125, 0, 
107, 1007622188, 0.4145984649658203, -0.46039772033691406, -0.5008493065834045, -0.6043990850448608, 9.505971908569336, 2.1741583347320557, 0.7266349196434021, 1.2223752737045288, -1.2797127962112427, 0.10938558727502823, -2.041015625, 0.476318359375, -0.21142578125, 0, 
108, 1007630521, 0.4145997166633606, -0.4603699743747711, -0.500864565372467, -0.6044067740440369, 9.498207092285156, 2.152456045150757, 0.7116133570671082, 1.3569525480270386, -1.1560986042022705, 0.07227056473493576, -2.039306640625, 0.473876953125, -0.214599609375, 0, 
109, 1007638854, 0.4145925045013428, -0.460341215133667, -0.5008876919746399, -0.6044143438339233, 9.48809814453125, 2.1626272201538086, 0.7194260954856873, 1.366967797279358, -1.2212612628936768, -0.020875602960586548, -2.03466796875, 0.478759765625, -0.214111328125, 0, 
110, 1007647187, 0.414592444896698, -0.4603126049041748, -0.5009055137634277, -0.6044213771820068, 9.495360374450684, 2.1597647666931152, 0.6875064373016357, 1.3798772096633911, -1.175411581993103, 0.039894167333841324, -2.039306640625, 0.469482421875, -0.218994140625, 0, 
111, 1007655520, 0.4145863354206085, -0.46028122305870056, -0.5009316802024841, -0.6044279336929321, 9.50780963897705, 2.177473783493042, 0.7258161902427673, 1.4169666767120361, -1.2143452167510986, -0.043800339102745056, -2.0341796875, 0.4775390625, -0.216796875, 0, 
112, 1007663853, 0.41459107398986816, -0.4602416753768921, -0.5009547472000122, -0.6044356822967529, 9.487151145935059, 2.1795239448547363, 0.7300188541412354, 1.5092546939849854, -1.0768736600875854, -0.031607966870069504, -2.04248046875, 0.47265625, -0.210205078125, 0, 
113, 1007672186, 0.4145875871181488, -0.460218220949173, -0.5009779930114746, -0.6044365763664246, 9.484694480895996, 2.182116746902466, 0.726047933101654, 1.4081553220748901, -1.2826584577560425, 0.08228572458028793, -2.0341796875, 0.47509765625, -0.212158203125, 0, 
114, 1007680519, 0.4145876169204712, -0.46019357442855835, -0.501000165939331, -0.604436993598938, 9.514552116394043, 2.187917470932007, 0.7048442363739014, 1.4380728006362915, -1.2746156454086304, 0.08039028197526932, -2.039306640625, 0.473388671875, -0.21337890625, 0, 
115, 1007688852, 0.41458743810653687, -0.4601670503616333, -0.5010237693786621, -0.6044378280639648, 9.507622718811035, 2.2038323879241943, 0.7141916751861572, 1.4480879306793213, -1.235169768333435, 0.0837201252579689, -2.036865234375, 0.471435546875, -0.212890625, 0, 
116, 1007697185, 0.4145887494087219, -0.4601561427116394, -0.5010370016098022, -0.6044343113899231, 9.50809097290039, 2.189774513244629, 0.7195866107940674, 1.3212974071502686, -1.3550186157226562, 0.26488959789276123, -2.039794921875, 0.473876953125, -0.21533203125, 0, 
117, 1007705518, 0.41458606719970703, -0.460143506526947, -0.501051127910614, -0.6044339537620544, 9.503605842590332, 2.184359073638916, 0.6794136762619019, 1.280468463897705, -1.3218482732772827, 0.2286711037158966, -2.039306640625, 0.475830078125, -0.21337890625, 0, 
118, 1007713851, 0.41458797454833984, -0.4601326882839203, -0.501059889793396, -0.604433536529541, 9.51125431060791, 2.1922643184661865, 0.7311840057373047, 1.2656378746032715, -1.3059163093566895, 0.27997642755508423, -2.0361328125, 0.471923828125, -0.212890625, 0, 
119, 1007722184, 0.4145909547805786, -0.4601292908191681, -0.5010755658149719, -0.6044211983680725, 9.487711906433105, 2.184847593307495, 0.6973450183868408, 1.3627413511276245, -1.4456928968429565, 0.3975200951099396, -2.039794921875, 0.475830078125, -0.211669921875, 0, 
120, 1007730517, 0.41459670662879944, -0.46012967824935913, -0.5010756254196167, -0.6044169068336487, 9.49548625946045, 2.1949119567871094, 0.7093734741210938, 1.1795227527618408, -1.3463865518569946, 0.4673444926738739, -2.035400390625, 0.474365234375, -0.216064453125, 0, 
121, 1007738850, 0.41460055112838745, -0.4601271450519562, -0.5010777711868286, -0.6044144034385681, 9.492506980895996, 2.157980442047119, 0.7178123593330383, 1.1839795112609863, -1.307043194770813, 0.43873342871665955, -2.04052734375, 0.474609375, -0.214599609375, 0, 
122, 1007747183, 0.4145978093147278, -0.46012935042381287, -0.5010768175125122, -0.604415237903595, 9.478774070739746, 2.1825790405273438, 0.7613574862480164, 1.0721991062164307, -1.3825539350509644, 0.3846617639064789, -2.0341796875, 0.471923828125, -0.214111328125, 0, 
123, 1007755516, 0.41459548473358154, -0.4601340889930725, -0.5010806322097778, -0.6044101119041443, 9.491722106933594, 2.1781234741210938, 0.6990105509757996, 1.1333658695220947, -1.437342643737793, 0.44490644335746765, -2.032958984375, 0.47314453125, -0.212890625, 0, 
124, 1007763849, 0.41460204124450684, -0.46013519167900085, -0.5010766983032227, -0.6044079661369324, 9.479738235473633, 2.1507270336151123, 0.7185215950012207, 1.134441614151001, -1.3112694025039673, 0.49042296409606934, -2.0361328125, 0.4775390625, -0.216064453125, 0, 
125, 1007772182, 0.41460078954696655, -0.4601409435272217, -0.5010764002799988, -0.604404866695404, 9.492064476013184, 2.165177583694458, 0.7233687043190002, 1.0828801393508911, -1.4006887674331665, 0.4738505184650421, -2.039306640625, 0.470703125, -0.21337890625, 0, 
126, 1007780515, 0.4145994186401367, -0.4601454734802246, -0.5010792016983032, -0.6043999791145325, 9.48127555847168, 2.171445608139038, 0.7205356955528259, 1.1379507780075073, -1.4504059553146362, 0.42259642481803894, -2.0322265625, 0.47705078125, -0.214111328125, 0, 
127, 1007788848, 0.4145979881286621, -0.4601505994796753, -0.5010802745819092, -0.6043962836265564, 9.499918937683105, 2.171738624572754, 0.6796784996986389, 1.1027312278747559, -1.4078863859176636, 0.4617093801498413, -2.037841796875, 0.4775390625, -0.211669921875, 0, 
128, 1007797181, 0.4145972728729248, -0.4601556360721588, -0.5010707974433899, -0.6044007539749146, 9.494878768920898, 2.148775100708008, 0.7221778631210327, 0.9729952216148376, -1.3210028409957886, 0.45484477281570435, -2.0361328125, 0.47314453125, -0.218017578125, 0, 
129, 1007805514, 0.41459548473358154, -0.4601607620716095, -0.5010738372802734, -0.6043956279754639, 9.493575096130371, 2.1814677715301514, 0.7277182936668396, 1.1272697448730469, -1.431707501411438, 0.4554082453250885, -2.03857421875, 0.474609375, -0.212890625, 0, 
130, 1007813847, 0.414597749710083, -0.4601644277572632, -0.5010685324668884, -0.6043956875801086, 9.484590530395508, 2.1820878982543945, 0.7540000677108765, 1.0659490823745728, -1.3402135372161865, 0.46834346652030945, -2.036865234375, 0.470703125, -0.21337890625, 0, 
131, 1007822180, 0.41459769010543823, -0.4601702094078064, -0.5010719299316406, -0.6043882966041565, 9.503207206726074, 2.1924538612365723, 0.6966907382011414, 1.1508346796035767, -1.4420045614242554, 0.4852745532989502, -2.0380859375, 0.474609375, -0.21337890625, 0, 
132, 1007830513, 0.4146011471748352, -0.46017348766326904, -0.5010697245597839, -0.6043851971626282, 9.497591018676758, 2.1984875202178955, 0.7042202353477478, 1.1235299110412598, -1.3669804334640503, 0.47454211115837097, -2.034912109375, 0.475830078125, -0.214111328125, 0, 
133, 1007838846, 0.41460174322128296, -0.46018069982528687, -0.5010672807693481, -0.6043814420700073, 9.498129844665527, 2.1607344150543213, 0.7068833112716675, 1.0724297761917114, -1.3930047750473022, 0.5145260095596313, -2.039306640625, 0.473876953125, -0.21728515625, 0, 
134, 1007847179, 0.41460883617401123, -0.46018415689468384, -0.501064658164978, -0.6043761968612671, 9.488654136657715, 2.177891254425049, 0.7544969916343689, 1.1547281742095947, -1.3551466464996338, 0.5218259692192078, -2.03369140625, 0.47265625, -0.212890625, 0, 
135, 1007855512, 0.4146159589290619, -0.46019217371940613, -0.5010602474212646, -0.6043687462806702, 9.491111755371094, 2.1820149421691895, 0.7041930556297302, 1.123478889465332, -1.3663400411605835, 0.6069676876068115, -2.039306640625, 0.473388671875, -0.21337890625, 0, 
136, 1007863845, 0.41461890935897827, -0.46019667387008667, -0.5010563135147095, -0.6043665409088135, 9.481337547302246, 2.1626646518707275, 0.7120124697685242, 1.0914095640182495, -1.3655717372894287, 0.48591482639312744, -2.03662109375, 0.47314453125, -0.216552734375, 0, 
137, 1007872178, 0.41462278366088867, -0.460203617811203, -0.5010533928871155, -0.6043609976768494, 9.519075393676758, 2.1538617610931396, 0.7395479083061218, 1.1082128286361694, -1.3759711980819702, 0.5534852147102356, -2.03857421875, 0.474609375, -0.212890625, 0, 
138, 1007880511, 0.4146302342414856, -0.46021074056625366, -0.5010508298873901, -0.604352593421936, 9.476959228515625, 2.1670353412628174, 0.7114123106002808, 1.1595178842544556, -1.40255868434906, 0.5659592747688293, -2.037841796875, 0.476318359375, -0.212890625, 0, 
139, 1007888844, 0.41462427377700806, -0.4602190852165222, -0.50105220079422, -0.6043493151664734, 9.501622200012207, 2.169921636581421, 0.7012550234794617, 1.0573683977127075, -1.4677468538284302, 0.4416278302669525, -2.035400390625, 0.475830078125, -0.213623046875, 0, 
140, 1007897177, 0.41462770104408264, -0.4602339267730713, -0.5010524392127991, -0.6043354272842407, 9.500221252441406, 2.1890881061553955, 0.7172786593437195, 1.150424838066101, -1.5439236164093018, 0.5988223552703857, -2.032958984375, 0.478271484375, -0.216064453125, 0, 
141, 1007905510, 0.41462892293930054, -0.46024343371391296, -0.501052975654602, -0.6043268442153931, 9.504528999328613, 2.184919834136963, 0.6974557638168335, 1.1253228187561035, -1.4565790891647339, 0.5446738004684448, -2.0361328125, 0.474365234375, -0.21484375, 0, 
142, 1007913843, 0.41463592648506165, -0.4602501392364502, -0.5010496973991394, -0.60431969165802, 9.504950523376465, 2.1808972358703613, 0.7064694166183472, 1.143970251083374, -1.389418601989746, 0.5579420924186707, -2.036865234375, 0.471923828125, -0.212890625, 0, 
143, 1007922176, 0.414645791053772, -0.46026384830474854, -0.5010406374931335, -0.6043099761009216, 9.502243995666504, 2.180926561355591, 0.6971388459205627, 1.0859283208847046, -1.3849873542785645, 0.7122678160667419, -2.04052734375, 0.471435546875, -0.21533203125, 0, 
144, 1007930509, 0.4146544337272644, -0.4602799713611603, -0.5010363459587097, -0.6042953729629517, 9.499585151672363, 2.16818904876709, 0.7061784267425537, 1.1437397003173828, -1.497715711593628, 0.6856546998023987, -2.034912109375, 0.471923828125, -0.21728515625, 0, 
145, 1007938842, 0.4146633744239807, -0.46029239892959595, -0.5010294914245605, -0.6042853593826294, 9.504624366760254, 2.1660804748535156, 0.6991767287254333, 1.1060866117477417, -1.3926715850830078, 0.6816588044166565, -2.037353515625, 0.474365234375, -0.216552734375, 0, 
146, 1007947175, 0.4146791994571686, -0.46030092239379883, -0.5010260343551636, -0.604270875453949, 9.488256454467773, 2.157578945159912, 0.7293412685394287, 1.238640308380127, -1.390315055847168, 0.6865511536598206, -2.03564453125, 0.470703125, -0.216064453125, 0, 
147, 1007955508, 0.41468343138694763, -0.4603120684623718, -0.501029908657074, -0.604256272315979, 9.486063003540039, 2.1826894283294678, 0.7278038859367371, 1.1984515190124512, -1.5068596601486206, 0.5933665037155151, -2.034912109375, 0.474609375, -0.211669921875, 0, 
148, 1007963841, 0.41468656063079834, -0.4603300988674164, -0.5010199546813965, -0.6042487621307373, 9.508477210998535, 2.183380365371704, 0.7163213491439819, 1.0026307106018066, -1.4755847454071045, 0.6474381685256958, -2.036865234375, 0.47265625, -0.21533203125, 0, 
149, 1007972174, 0.41468703746795654, -0.46035149693489075, -0.5010133981704712, -0.6042374968528748, 9.516101837158203, 2.166658401489258, 0.7198659777641296, 1.0136706829071045, -1.5352916717529297, 0.6782008409500122, -2.03662109375, 0.47509765625, -0.216552734375, 0, 
150, 1007980507, 0.41469284892082214, -0.46037575602531433, -0.5010049343109131, -0.6042219996452332, 9.480393409729004, 2.1668527126312256, 0.7119938731193542, 1.0522199869155884, -1.5686157941818237, 0.7488706111907959, -2.03857421875, 0.474609375, -0.211669921875, 0, 
151, 1007988840, 0.4146956205368042, -0.46040084958076477, -0.5009993314743042, -0.6042056679725647, 9.480270385742188, 2.171417474746704, 0.719355583190918, 1.046815276145935, -1.5871604681015015, 0.7466933727264404, -2.03662109375, 0.474609375, -0.212158203125, 0, 
152, 1007997173, 0.4146944582462311, -0.46042686700820923, -0.5009931921958923, -0.6041917204856873, 9.501768112182617, 2.17087721824646, 0.7057715058326721, 1.0058326721191406, -1.6332918405532837, 0.6795328855514526, -2.034912109375, 0.476318359375, -0.208984375, 0, 
153, 1008005506, 0.41469818353652954, -0.4604596793651581, -0.5009892582893372, -0.6041674017906189, 9.50455379486084, 2.175727367401123, 0.7309202551841736, 1.0812665224075317, -1.706497311592102, 0.8433871865272522, -2.03857421875, 0.471435546875, -0.2109375, 0, 
154, 1008013839, 0.41470688581466675, -0.4604858160018921, -0.5009821653366089, -0.6041474342346191, 9.512333869934082, 2.177577495574951, 0.7201087474822998, 1.1013736724853516, -1.5999932289123535, 0.8026604652404785, -2.0322265625, 0.473876953125, -0.21728515625, 0, 
155, 1008022172, 0.41471385955810547, -0.460511177778244, -0.5009763240814209, -0.6041281819343567, 9.505858421325684, 2.151515483856201, 0.737966775894165, 1.0909231901168823, -1.5782467126846313, 0.8019945025444031, -2.0361328125, 0.476318359375, -0.21044921875, 0, 
156, 1008030505, 0.41472145915031433, -0.4605330228805542, -0.5009609460830688, -0.604119062423706, 9.481256484985352, 2.1497817039489746, 0.706842303276062, 0.9757614731788635, -1.455656886100769, 0.7546594142913818, -2.03369140625, 0.473876953125, -0.212890625, 0, 
157, 1008038838, 0.41472455859184265, -0.46055030822753906, -0.5009583830833435, -0.6041058301925659, 9.471975326538086, 2.1702756881713867, 0.7429693937301636, 1.097941279411316, -1.5193850994110107, 0.658068060874939, -2.03662109375, 0.473876953125, -0.21728515625, 0, 
158, 1008047171, 0.4147275388240814, -0.4605621099472046, -0.5009551048278809, -0.6040975451469421, 9.480902671813965, 2.1620140075683594, 0.7505164742469788, 1.0991196632385254, -1.4692580699920654, 0.5660362243652344, -2.032958984375, 0.47705078125, -0.216064453125, 0, 
159, 1008055504, 0.41473108530044556, -0.46056461334228516, -0.5009526014328003, -0.6040952801704407, 9.505744934082031, 2.1636579036712646, 0.6993023157119751, 1.1125671863555908, -1.3238205909729004, 0.49649354815483093, -2.02978515625, 0.478271484375, -0.209716796875, 0, 
160, 1008063837, 0.41473639011383057, -0.46056240797042847, -0.5009494423866272, -0.6040958166122437, 9.495149612426758, 2.161576271057129, 0.7011799216270447, 1.1319570541381836, -1.2804043292999268, 0.437734454870224, -2.037841796875, 0.475830078125, -0.216064453125, 0, 
161, 1008072170, 0.41474446654319763, -0.4605579078197479, -0.500948429107666, -0.6040946841239929, 9.50435733795166, 2.167983293533325, 0.6960266828536987, 1.1840565204620361, -1.237013816833496, 0.4699571430683136, -2.0380859375, 0.47265625, -0.214599609375, 0, 
162, 1008080503, 0.414753794670105, -0.4605601727962494, -0.5009461045265198, -0.6040884256362915, 9.514638900756836, 2.1722252368927, 0.7043977975845337, 1.185286045074463, -1.336345911026001, 0.5347356200218201, -2.039794921875, 0.475830078125, -0.211669921875, 0, 
163, 1008088836, 0.4147561192512512, -0.46056196093559265, -0.5009400248527527, -0.6040906310081482, 9.512176513671875, 2.160796642303467, 0.7109493017196655, 1.0473018884658813, -1.2791235446929932, 0.4793831706047058, -2.0361328125, 0.475830078125, -0.214111328125, 0, 
164, 1008097169, 0.41476064920425415, -0.46055740118026733, -0.5009342432022095, -0.6040957570075989, 9.506242752075195, 2.166952610015869, 0.7014092206954956, 1.0884641408920288, -1.2215684652328491, 0.4044615626335144, -2.03369140625, 0.470703125, -0.212158203125, 0, 
165, 1008105502, 0.4147653579711914, -0.46055492758750916, -0.5009320974349976, -0.6040961146354675, 9.517461776733398, 2.169705867767334, 0.6832002401351929, 1.1300615072250366, -1.2600152492523193, 0.45399948954582214, -2.037353515625, 0.476318359375, -0.212890625, 0, 
166, 1008113835, 0.414764940738678, -0.4605599343776703, -0.5009207725524902, -0.6041019558906555, 9.513323783874512, 2.184828758239746, 0.714540421962738, 0.9514278769493103, -1.2991539239883423, 0.46145322918891907, -2.0361328125, 0.470703125, -0.214599609375, 0, 
167, 1008122168, 0.41476330161094666, -0.4605729281902313, -0.5009186863899231, -0.6040949821472168, 9.48175048828125, 2.16644549369812, 0.7586519122123718, 1.0562413930892944, -1.481527328491211, 0.5504114627838135, -2.03857421875, 0.47314453125, -0.214111328125, 0, 
168, 1008130501, 0.41476303339004517, -0.46059221029281616, -0.5009132623672485, -0.6040849685668945, 9.498345375061035, 2.18276309967041, 0.7298371195793152, 1.0281425714492798, -1.5499173402786255, 0.6131407022476196, -2.039794921875, 0.475830078125, -0.214111328125, 0, 
169, 1008138834, 0.4147626757621765, -0.4606156051158905, -0.5009028911590576, -0.6040760278701782, 9.506900787353516, 2.1671042442321777, 0.7050135731697083, 0.9469966888427734, -1.5240981578826904, 0.6957466006278992, -2.033447265625, 0.478759765625, -0.209716796875, 0, 
170, 1008147167, 0.4147663712501526, -0.46064072847366333, -0.5008882284164429, -0.6040665507316589, 9.479514122009277, 2.1492443084716797, 0.7166531085968018, 0.9390818476676941, -1.515286922454834, 0.7431073784828186, -2.0361328125, 0.47705078125, -0.213623046875, 0, 
171, 1008155500, 0.41477030515670776, -0.4606618583202362, -0.500882625579834, -0.6040523052215576, 9.490152359008789, 2.15376877784729, 0.7019128799438477, 1.0648220777511597, -1.5366491079330444, 0.7146243453025818, -2.03857421875, 0.478271484375, -0.212890625, 0, 
172, 1008163833, 0.4147707521915436, -0.4606795608997345, -0.5008777379989624, -0.604042649269104, 9.528837203979492, 2.167081117630005, 0.7382081747055054, 1.0425633192062378, -1.533139944076538, 0.6045598983764648, -2.032958984375, 0.476318359375, -0.212890625, 0, 
173, 1008172166, 0.414773166179657, -0.4606987535953522, -0.5008717179298401, -0.6040310859680176, 9.505821228027344, 2.1469192504882812, 0.7173071503639221, 1.0456117391586304, -1.5108815431594849, 0.6764336228370667, -2.0380859375, 0.473876953125, -0.214111328125, 0, 
174, 1008180499, 0.41478514671325684, -0.46070998907089233, -0.5008648633956909, -0.6040198802947998, 9.498071670532227, 2.1408965587615967, 0.710314154624939, 1.1479402780532837, -1.3985371589660645, 0.6748966574668884, -2.035400390625, 0.47705078125, -0.21044921875, 0, 
175, 1008188832, 0.4147959053516388, -0.4607180953025818, -0.5008603930473328, -0.6040101051330566, 9.502739906311035, 2.143256664276123, 0.7026878595352173, 1.1603119373321533, -1.359270453453064, 0.6499739289283752, -2.039794921875, 0.473388671875, -0.212158203125, 0, 
176, 1008197165, 0.4148101806640625, -0.4607238173484802, -0.5008586049079895, -0.603997528553009, 9.513243675231934, 2.1512413024902344, 0.7069879770278931, 1.245812177658081, -1.3762016296386719, 0.6337601542472839, -2.0361328125, 0.4775390625, -0.212158203125, 0, 
177, 1008205498, 0.4148224890232086, -0.4607212543487549, -0.5008580088615417, -0.6039915084838867, 9.495542526245117, 2.1709868907928467, 0.676956057548523, 1.241944670677185, -1.2564806938171387, 0.5412672162055969, -2.04052734375, 0.475830078125, -0.21728515625, 0, 
178, 1008213831, 0.41484400629997253, -0.46071702241897583, -0.5008586645126343, -0.6039795279502869, 9.498405456542969, 2.164034366607666, 0.7110648155212402, 1.3652516603469849, -1.2533302307128906, 0.6060969233512878, -2.035400390625, 0.474365234375, -0.216064453125, 0, 
179, 1008222164, 0.4148627519607544, -0.460714727640152, -0.5008487105369568, -0.6039766073226929, 9.521186828613281, 2.15905499458313, 0.6898691058158875, 1.1771405935287476, -1.1425997018814087, 0.6383963227272034, -2.035400390625, 0.47314453125, -0.21337890625, 0, 
180, 1008230497, 0.41487544775009155, -0.46071356534957886, -0.5008415579795837, -0.6039746403694153, 9.506546020507812, 2.152697801589966, 0.7169930934906006, 1.1572128534317017, -1.2303284406661987, 0.5444689393043518, -2.042236328125, 0.475830078125, -0.212158203125, 0, 
181, 1008238830, 0.41489377617836, -0.4607154130935669, -0.5008311867713928, -0.6039692759513855, 9.493414878845215, 2.1667277812957764, 0.6965634822845459, 1.1672533750534058, -1.1940585374832153, 0.681146502494812, -2.032958984375, 0.474365234375, -0.211669921875, 0, 
182, 1008247163, 0.4149104356765747, -0.46072250604629517, -0.5008242130279541, -0.6039581894874573, 9.495989799499512, 2.170619487762451, 0.6941244602203369, 1.1992456912994385, -1.3307876586914062, 0.686576783657074, -2.03662109375, 0.480224609375, -0.21484375, 0, 
183, 1008255496, 0.4149211049079895, -0.4607391953468323, -0.5008165240287781, -0.6039445400238037, 9.499822616577148, 2.162400484085083, 0.7217859029769897, 1.1131818294525146, -1.4368304014205933, 0.7489473223686218, -2.032470703125, 0.47314453125, -0.213623046875, 0, 
184, 1008263829, 0.41493523120880127, -0.46074965596199036, -0.5008046627044678, -0.6039367914199829, 9.501792907714844, 2.1682703495025635, 0.7227804064750671, 1.1013481616973877, -1.3271503448486328, 0.7001779675483704, -2.032958984375, 0.475830078125, -0.213623046875, 0, 
185, 1008272162, 0.41494035720825195, -0.4607677459716797, -0.5007945895195007, -0.6039275527000427, 9.494945526123047, 2.1446454524993896, 0.7320803999900818, 1.0177943706512451, -1.445693016052246, 0.7026112675666809, -2.032470703125, 0.47509765625, -0.2109375, 0, 
186, 1008280495, 0.41493967175483704, -0.46079373359680176, -0.5007845163345337, -0.6039165258407593, 9.489838600158691, 2.159945011138916, 0.7197869420051575, 0.9571656584739685, -1.5903624296188354, 0.6922887563705444, -2.037353515625, 0.47314453125, -0.21484375, 0, 
187, 1008288828, 0.4149456322193146, -0.4608187675476074, -0.5007745027542114, -0.6039016842842102, 9.49891185760498, 2.158154010772705, 0.7219848036766052, 1.0234038829803467, -1.53116774559021, 0.787650465965271, -2.033447265625, 0.476318359375, -0.213623046875, 0, 
188, 1008297161, 0.41494953632354736, -0.460843026638031, -0.5007640719413757, -0.6038890480995178, 9.47595500946045, 2.1682891845703125, 0.6883749961853027, 1.0032711029052734, -1.5520175695419312, 0.7293269038200378, -2.03857421875, 0.473876953125, -0.212890625, 0, 
189, 1008305494, 0.4149489104747772, -0.46086397767066956, -0.5007574558258057, -0.6038789749145508, 9.516583442687988, 2.158904790878296, 0.6950857043266296, 0.9978153109550476, -1.5339852571487427, 0.657478928565979, -2.03857421875, 0.475830078125, -0.214111328125, 0, 
190, 1008313827, 0.41496190428733826, -0.46088212728500366, -0.5007437467575073, -0.6038677096366882, 9.504857063293457, 2.1512253284454346, 0.6683831810951233, 1.0591614246368408, -1.4105503559112549, 0.7760729193687439, -2.037841796875, 0.47705078125, -0.21484375, 0, 
191, 1008322160, 0.41497543454170227, -0.4608960747718811, -0.5007355213165283, -0.6038545966148376, 9.514370918273926, 2.141124725341797, 0.6624838709831238, 1.1357735395431519, -1.389162302017212, 0.7534042596817017, -2.03857421875, 0.4794921875, -0.21484375, 0, 
192, 1008330493, 0.41499418020248413, -0.46090400218963623, -0.5007162690162659, -0.6038515567779541, 9.510354042053223, 2.157681941986084, 0.725739061832428, 1.050734281539917, -1.2018966674804688, 0.740801990032196, -2.0341796875, 0.480712890625, -0.211669921875, 0, 
193, 1008338826, 0.41500648856163025, -0.4609053134918213, -0.5007018446922302, -0.6038540601730347, 9.492344856262207, 2.1486997604370117, 0.7083531618118286, 1.0423842668533325, -1.1571999788284302, 0.6058663129806519, -2.033447265625, 0.478271484375, -0.214111328125, 0, 
194, 1008347159, 0.4150197505950928, -0.4609118402004242, -0.500690758228302, -0.6038492321968079, 9.494646072387695, 2.1623597145080566, 0.6903486847877502, 1.1052157878875732, -1.2870128154754639, 0.6450304388999939, -2.035400390625, 0.4755859375, -0.21923828125, 0, 
195, 1008355492, 0.41503214836120605, -0.460921049118042, -0.5006846785545349, -0.6038388013839722, 9.50157356262207, 2.143460273742676, 0.7118241786956787, 1.1558037996292114, -1.3526619672775269, 0.6839385032653809, -2.037841796875, 0.478271484375, -0.2109375, 0, 
196, 1008363825, 0.41504770517349243, -0.46092596650123596, -0.5006677508354187, -0.6038384437561035, 9.483074188232422, 2.1449344158172607, 0.7551454901695251, 1.0482242107391357, -1.193725824356079, 0.6639850735664368, -2.03369140625, 0.473876953125, -0.214111328125, 0, 
197, 1008372158, 0.4150599241256714, -0.46092724800109863, -0.5006630420684814, -0.6038329005241394, 9.490730285644531, 2.142557144165039, 0.7155992984771729, 1.175552487373352, -1.2648565769195557, 0.5891658067703247, -2.0361328125, 0.4775390625, -0.2109375, 0, 
198, 1008380491, 0.41507530212402344, -0.4609344005584717, -0.5006500482559204, -0.6038275957107544, 9.485727310180664, 2.1557424068450928, 0.7254982590675354, 1.102526307106018, -1.2697744369506836, 0.680992841720581, -2.037841796875, 0.478271484375, -0.214111328125, 0, 
199, 1008388824, 0.41508734226226807, -0.46094170212745667, -0.5006370544433594, -0.6038244962692261, 9.498638153076172, 2.1483051776885986, 0.7326845526695251, 1.0552167892456055, -1.2521774768829346, 0.6683394312858582, -2.03173828125, 0.480224609375, -0.207275390625, 0, 
200, 1008397157, 0.4150926470756531, -0.46095702052116394, -0.5006271004676819, -0.6038174629211426, 9.511360168457031, 2.150878429412842, 0.7231288552284241, 1.0280914306640625, -1.4348328113555908, 0.6447999477386475, -2.0341796875, 0.475830078125, -0.213623046875, 0, 
201, 1008405490, 0.4151013195514679, -0.4609633982181549, -0.5006213188171387, -0.6038113236427307, 9.503427505493164, 2.156405448913574, 0.6872311234474182, 1.123939871788025, -1.331837773323059, 0.6043294668197632, -2.039306640625, 0.47509765625, -0.2109375, 0, 
202, 1008413823, 0.4151097238063812, -0.46096301078796387, -0.5006091594696045, -0.603816032409668, 9.508453369140625, 2.141883134841919, 0.7105848789215088, 1.0379271507263184, -1.1957236528396606, 0.5097616314888, -2.04052734375, 0.4775390625, -0.21484375, 0, 
203, 1008422156, 0.41512101888656616, -0.46095970273017883, -0.500603973865509, -0.6038151383399963, 9.5092191696167, 2.1374995708465576, 0.71816086769104, 1.1609524488449097, -1.1993865966796875, 0.5250790119171143, -2.0390625, 0.47900390625, -0.21044921875, 0, 
204, 1008430489, 0.4151338040828705, -0.4609546661376953, -0.500596821308136, -0.603816032409668, 9.507964134216309, 2.1369833946228027, 0.7505466938018799, 1.1610804796218872, -1.1795867681503296, 0.5038704872131348, -2.0341796875, 0.478759765625, -0.209716796875, 0, 
205, 1008438822, 0.4151429831981659, -0.4609540104866028, -0.5005874633789062, -0.6038179993629456, 9.505882263183594, 2.1541271209716797, 0.7006996870040894, 1.0802162885665894, -1.1959285736083984, 0.5364260673522949, -2.0361328125, 0.4794921875, -0.209716796875, 0, 
206, 1008447155, 0.4151540696620941, -0.46095383167266846, -0.500577449798584, -0.6038188338279724, 9.487509727478027, 2.1552553176879883, 0.7110474705696106, 1.0997858047485352, -1.2165225744247437, 0.540524423122406, -2.039306640625, 0.477783203125, -0.211669921875, 0, 
207, 1008455488, 0.4151644706726074, -0.46095770597457886, -0.5005717277526855, -0.6038134098052979, 9.514079093933105, 2.1563165187835693, 0.6961672902107239, 1.1433554887771606, -1.2911624908447266, 0.5975929498672485, -2.03662109375, 0.4775390625, -0.2109375, 0, 
208, 1008463821, 0.4151729643344879, -0.4609680473804474, -0.5005642771720886, -0.6038058400154114, 9.511526107788086, 2.150395631790161, 0.6999568939208984, 1.100784420967102, -1.3885220289230347, 0.6239755749702454, -2.037353515625, 0.475830078125, -0.21337890625, 0, 
209, 1008472154, 0.4151783585548401, -0.4609791040420532, -0.5005576610565186, -0.6037991642951965, 9.50334358215332, 2.1468818187713623, 0.7272907495498657, 1.0739407539367676, -1.3892393112182617, 0.6176488995552063, -2.035400390625, 0.478759765625, -0.216064453125, 0, 
210, 1008480487, 0.4151838719844818, -0.46098965406417847, -0.500555694103241, -0.6037889719009399, 9.510562896728516, 2.1561851501464844, 0.7145631313323975, 1.1447898149490356, -1.459678292274475, 0.582147479057312, -2.0341796875, 0.47314453125, -0.216552734375, 0, 
211, 1008488820, 0.41518712043762207, -0.46100789308547974, -0.5005501508712769, -0.6037776470184326, 9.480664253234863, 2.1649677753448486, 0.717267632484436, 1.0595457553863525, -1.5002771615982056, 0.668441891670227, -2.03857421875, 0.476318359375, -0.21337890625, 0, 
212, 1008497153, 0.4151911735534668, -0.4610251784324646, -0.5005437135696411, -0.6037670373916626, 9.503011703491211, 2.1611673831939697, 0.7194141149520874, 1.0630546808242798, -1.501967430114746, 0.6459781527519226, -2.04052734375, 0.47705078125, -0.21484375, 0, 
213, 1008505486, 0.4151904881000519, -0.46104133129119873, -0.5005465149879456, -0.6037525534629822, 9.509697914123535, 2.1327834129333496, 0.7173424363136292, 1.1350563764572144, -1.5776575803756714, 0.585964024066925, -2.03857421875, 0.478271484375, -0.21044921875, 0, 
214, 1008513819, 0.4151902198791504, -0.4610556364059448, -0.5005499124526978, -0.6037390232086182, 9.503423690795898, 2.127154588699341, 0.7191150188446045, 1.1549843549728394, -1.5826524496078491, 0.5441873073577881, -2.037353515625, 0.47705078125, -0.212890625, 0, 
215, 1008522152, 0.41518333554267883, -0.4610718786716461, -0.5005588531494141, -0.60372394323349, 9.510051727294922, 2.1375253200531006, 0.6992657780647278, 1.1513983011245728, -1.6590083837509155, 0.4995928108692169, -2.033447265625, 0.47998046875, -0.21484375, 0, 
216, 1008530485, 0.41518041491508484, -0.46108371019363403, -0.5005691051483154, -0.6037083864212036, 9.517492294311523, 2.133978843688965, 0.7273502945899963, 1.22378408908844, -1.6321903467178345, 0.4722112715244293, -2.037841796875, 0.480224609375, -0.213623046875, 0, 
217, 1008538818, 0.4151904284954071, -0.4610912799835205, -0.5005800724029541, -0.603686511516571, 9.503860473632812, 2.139272451400757, 0.7165471911430359, 1.369273066520691, -1.5262755155563354, 0.6070189476013184, -2.039306640625, 0.473876953125, -0.216552734375, 0, 
218, 1008547151, 0.41518887877464294, -0.46109068393707275, -0.5005888342857361, -0.6036807894706726, 9.510599136352539, 2.1550886631011963, 0.6803421378135681, 1.222042441368103, -1.448024034500122, 0.35197800397872925, -2.032958984375, 0.476318359375, -0.2109375, 0, 
219, 1008555484, 0.4151909053325653, -0.4610951840877533, -0.5005967020988464, -0.6036695241928101, 9.50152587890625, 2.1370246410369873, 0.7264238595962524, 1.2377697229385376, -1.4709231853485107, 0.4785892367362976, -2.03466796875, 0.4794921875, -0.2109375, 0, 
220, 1008563817, 0.41520482301712036, -0.46108734607696533, -0.500603199005127, -0.603660523891449, 9.504257202148438, 2.142237901687622, 0.7212388515472412, 1.36491858959198, -1.2886266708374023, 0.46334871649742126, -2.037841796875, 0.476318359375, -0.211669921875, 0, 
221, 1008572150, 0.41520366072654724, -0.4610835313796997, -0.5006077885627747, -0.6036604046821594, 9.481573104858398, 2.152261972427368, 0.7507084608078003, 1.1638723611831665, -1.3346552848815918, 0.3503642976284027, -2.0361328125, 0.47705078125, -0.214111328125, 0, 
222, 1008580483, 0.415208101272583, -0.46108075976371765, -0.5006142258644104, -0.603654146194458, 9.503010749816895, 2.1412947177886963, 0.720825731754303, 1.2565703392028809, -1.3795057535171509, 0.40512752532958984, -2.035400390625, 0.482666015625, -0.214111328125, 0, 
223, 1008588816, 0.4152066111564636, -0.46107158064842224, -0.5006220936775208, -0.6036557555198669, 9.4943265914917, 2.1528422832489014, 0.7075490951538086, 1.2077752351760864, -1.2985649108886719, 0.2788749635219574, -2.037353515625, 0.4775390625, -0.212158203125, 0, 
224, 1008597149, 0.41520828008651733, -0.46107447147369385, -0.500625729560852, -0.6036494374275208, 9.495733261108398, 2.144181728363037, 0.701667845249176, 1.1841076612472534, -1.4305293560028076, 0.4398092031478882, -2.040283203125, 0.4814453125, -0.20849609375, 0, 
225, 1008605482, 0.4152083992958069, -0.46107229590415955, -0.5006259679794312, -0.6036508083343506, 9.487479209899902, 2.137495279312134, 0.7099665403366089, 1.1106460094451904, -1.3061466217041016, 0.39288392663002014, -2.03662109375, 0.478271484375, -0.212890625, 0, 
226, 1008613815, 0.4152047038078308, -0.46107494831085205, -0.5006310343742371, -0.6036471128463745, 9.483898162841797, 2.1581521034240723, 0.7361657023429871, 1.1443032026290894, -1.455656886100769, 0.3673977851867676, -2.037353515625, 0.47705078125, -0.21337890625, 0, 
227, 1008622148, 0.4152056872844696, -0.4610757827758789, -0.5006356239318848, -0.6036419868469238, 9.503856658935547, 2.1515793800354004, 0.7266770601272583, 1.1865154504776, -1.3896490335464478, 0.4301014244556427, -2.037841796875, 0.47900390625, -0.212890625, 0, 
228, 1008630481, 0.41520392894744873, -0.46107017993927, -0.5006451606750488, -0.6036396026611328, 9.515953063964844, 2.1596577167510986, 0.6832945942878723, 1.2335174083709717, -1.390852928161621, 0.2902989387512207, -2.037353515625, 0.47705078125, -0.2109375, 0, 
229, 1008638814, 0.41520965099334717, -0.46106472611427307, -0.5006431937217712, -0.6036414504051208, 9.493785858154297, 2.147113800048828, 0.6692861318588257, 1.1499638557434082, -1.2239762544631958, 0.42794981598854065, -2.035888671875, 0.480224609375, -0.213623046875, 0, 
230, 1008647147, 0.41521021723747253, -0.4610571563243866, -0.5006442070007324, -0.6036459803581238, 9.511862754821777, 2.1441903114318848, 0.6959599852561951, 1.140332818031311, -1.2664958238601685, 0.3117124140262604, -2.037353515625, 0.47705078125, -0.212890625, 0, 
231, 1008655480, 0.41520389914512634, -0.4610476493835449, -0.5006524920463562, -0.6036508679389954, 9.516176223754883, 2.155025005340576, 0.7065085172653198, 1.1583141088485718, -1.3141125440597534, 0.21624816954135895, -2.0361328125, 0.476318359375, -0.2109375, 0, 
232, 1008663813, 0.4151994585990906, -0.46104565262794495, -0.5006535649299622, -0.6036545634269714, 9.501022338867188, 2.1545794010162354, 0.7131317853927612, 1.0811127424240112, -1.3514580726623535, 0.31388962268829346, -2.03857421875, 0.4775390625, -0.214111328125, 0, 
233, 1008672146, 0.4152013659477234, -0.4610418677330017, -0.5006531476974487, -0.6036562323570251, 9.517860412597656, 2.134242057800293, 0.6842164993286133, 1.1298822164535522, -1.2745387554168701, 0.39667484164237976, -2.034912109375, 0.4775390625, -0.214111328125, 0, 
234, 1008680479, 0.41520559787750244, -0.4610386788845062, -0.5006447434425354, -0.6036627888679504, 9.532121658325195, 2.154071569442749, 0.7159066200256348, 1.0456372499465942, -1.2115532159805298, 0.4214182496070862, -2.03662109375, 0.478271484375, -0.2109375, 0, 
235, 1008688812, 0.4152049422264099, -0.4610375761985779, -0.500640332698822, -0.6036677360534668, 9.512636184692383, 2.1534297466278076, 0.6918954253196716, 1.0439977645874023, -1.2687242031097412, 0.3998253643512726, -2.0322265625, 0.475830078125, -0.21044921875, 0, 
236, 1008697145, 0.41521117091178894, -0.4610358774662018, -0.5006319284439087, -0.603671669960022, 9.498120307922363, 2.135847568511963, 0.7180573344230652, 1.0675116777420044, -1.2255128622055054, 0.46237537264823914, -2.039306640625, 0.476318359375, -0.21337890625, 0, 
237, 1008705478, 0.41520482301712036, -0.46103283762931824, -0.500630795955658, -0.603679358959198, 9.499249458312988, 2.1463801860809326, 0.6881264448165894, 1.02939772605896, -1.295491337776184, 0.3048478364944458, -2.037841796875, 0.47900390625, -0.212158203125, 0, 
238, 1008713811, 0.41519811749458313, -0.4610338807106018, -0.500637412071228, -0.6036776900291443, 9.506400108337402, 2.14762020111084, 0.716070294380188, 1.1336219310760498, -1.4590892791748047, 0.31063663959503174, -2.037353515625, 0.47900390625, -0.212158203125, 0, 
239, 1008722144, 0.41518938541412354, -0.461038738489151, -0.5006411075592041, -0.6036770939826965, 9.490478515625, 2.144537925720215, 0.6968922019004822, 1.0611850023269653, -1.4574244022369385, 0.3557176887989044, -2.0361328125, 0.47314453125, -0.21484375, 0, 
240, 1008730477, 0.41518473625183105, -0.4610390365123749, -0.5006499290466309, -0.6036726832389832, 9.500621795654297, 2.15474009513855, 0.7146161794662476, 1.1895891427993774, -1.4688994884490967, 0.3226240575313568, -2.035400390625, 0.4794921875, -0.211669921875, 0, 
241, 1008738810, 0.41517356038093567, -0.46104657649993896, -0.5006522536277771, -0.6036725044250488, 9.502728462219238, 2.1386542320251465, 0.6848189830780029, 1.0141574144363403, -1.4862405061721802, 0.36068686842918396, -2.035400390625, 0.47265625, -0.214111328125, 0, 
242, 1008747143, 0.4151632785797119, -0.46105867624282837, -0.5006512999534607, -0.6036711931228638, 9.4822416305542, 2.1457505226135254, 0.721754252910614, 0.983138382434845, -1.5295028686523438, 0.4023612141609192, -2.034912109375, 0.476318359375, -0.212158203125, 0, 
243, 1008755476, 0.41515713930130005, -0.46106359362602234, -0.5006565451622009, -0.6036673188209534, 9.49821662902832, 2.134195327758789, 0.7396697402000427, 1.1133354902267456, -1.4696935415267944, 0.3850971758365631, -2.033447265625, 0.4794921875, -0.21240234375, 0, 
244, 1008763809, 0.41515493392944336, -0.46106430888175964, -0.5006581544876099, -0.6036670207977295, 9.488382339477539, 2.13435959815979, 0.6752241253852844, 1.113617181777954, -1.3886244297027588, 0.369907945394516, -2.04052734375, 0.476318359375, -0.21337890625, 0, 
245, 1008772142, 0.41514259576797485, -0.46107152104377747, -0.5006564855575562, -0.6036713123321533, 9.508557319641113, 2.140432119369507, 0.7001579403877258, 0.9449474215507507, -1.4398529529571533, 0.34634286165237427, -2.032958984375, 0.47314453125, -0.213623046875, 0, 
246, 1008780475, 0.4151366651058197, -0.46106794476509094, -0.5006608963012695, -0.6036745309829712, 9.50123119354248, 2.1499335765838623, 0.6876782774925232, 1.114206314086914, -1.3725900650024414, 0.27180543541908264, -2.0380859375, 0.474609375, -0.210205078125, 0, 
247, 1008788808, 0.4151163697242737, -0.4610735774040222, -0.5006636381149292, -0.6036818027496338, 9.511181831359863, 2.1631247997283936, 0.7165845632553101, 0.9210750460624695, -1.4873672723770142, 0.22493135929107666, -2.03857421875, 0.476318359375, -0.2109375, 0, 
248, 1008797141, 0.4151027202606201, -0.4610719680786133, -0.5006698369979858, -0.6036872863769531, 9.52605152130127, 2.1467649936676025, 0.7364331483840942, 1.053218960762024, -1.4385977983474731, 0.19657643139362335, -2.035400390625, 0.478271484375, -0.214111328125, 0, 
249, 1008805474, 0.4150950312614441, -0.461066871881485, -0.5006668567657471, -0.6036989688873291, 9.518115043640137, 2.1452300548553467, 0.7148407697677612, 0.985648512840271, -1.2506407499313354, 0.26658016443252563, -2.035400390625, 0.48193359375, -0.211669921875, 0, 
250, 1008813807, 0.41509222984313965, -0.46106213331222534, -0.5006594061851501, -0.6037106513977051, 9.515798568725586, 2.156667947769165, 0.6908716559410095, 0.9832406640052795, -1.2193654775619507, 0.31650227308273315, -2.035400390625, 0.476318359375, -0.207763671875, 0, 
251, 1008822140, 0.4150901734828949, -0.4610530138015747, -0.5006549954414368, -0.6037228107452393, 9.505176544189453, 2.148313522338867, 0.6987040042877197, 1.0245821475982666, -1.1683933734893799, 0.2907343804836273, -2.032958984375, 0.473876953125, -0.20849609375, 0, 
252, 1008830473, 0.4150890111923218, -0.46104204654693604, -0.5006572008132935, -0.6037300825119019, 9.50851058959961, 2.162031412124634, 0.7044582962989807, 1.1403329372406006, -1.2408047914505005, 0.25098109245300293, -2.035400390625, 0.4775390625, -0.21484375, 0, 
253, 1008838806, 0.4150850772857666, -0.4610392451286316, -0.5006639361381531, -0.6037294864654541, 9.512417793273926, 2.164281129837036, 0.7024933695793152, 1.1605168581008911, -1.37699556350708, 0.32254722714424133, -2.0361328125, 0.475830078125, -0.212158203125, 0, 
254, 1008847139, 0.415088415145874, -0.4610404372215271, -0.5006635785102844, -0.6037265062332153, 9.495816230773926, 2.156653642654419, 0.7286677956581116, 1.1477609872817993, -1.3597573041915894, 0.44680190086364746, -2.0361328125, 0.4775390625, -0.211669921875, 0, 
255, 1008855472, 0.41508013010025024, -0.46104133129119873, -0.5006712079048157, -0.603725016117096, 9.490242958068848, 2.1661505699157715, 0.7119616270065308, 1.1273976564407349, -1.4506877660751343, 0.3098425567150116, -2.0361328125, 0.47900390625, -0.208984375, 0, 
256, 1008863805, 0.4150824546813965, -0.46104446053504944, -0.5006743669509888, -0.6037184000015259, 9.498659133911133, 2.131338357925415, 0.6985837817192078, 1.1854907274246216, -1.426840901374817, 0.45054158568382263, -2.0380859375, 0.47509765625, -0.210205078125, 0, 
257, 1008872138, 0.4150797724723816, -0.4610532522201538, -0.5006741285324097, -0.6037136912345886, 9.513893127441406, 2.161898374557495, 0.690183699131012, 1.07137930393219, -1.4514305591583252, 0.4789733588695526, -2.037841796875, 0.4794921875, -0.213623046875, 0, 
258, 1008880471, 0.415077269077301, -0.46106117963790894, -0.5006784200668335, -0.603705883026123, 9.513731956481934, 2.1607251167297363, 0.6804104447364807, 1.1450202465057373, -1.5137243270874023, 0.44303658604621887, -2.03857421875, 0.47705078125, -0.211669921875, 0, 
259, 1008888804, 0.4150765538215637, -0.4610691964626312, -0.5006800889968872, -0.6036987900733948, 9.492178916931152, 2.1523942947387695, 0.6928679943084717, 1.1223005056381226, -1.4562972784042358, 0.4911656975746155, -2.02978515625, 0.47509765625, -0.212890625, 0, 
260, 1008897137, 0.415073961019516, -0.4610840082168579, -0.5006781816482544, -0.6036908030509949, 9.499115943908691, 2.1474218368530273, 0.6932079195976257, 1.053910493850708, -1.5371102094650269, 0.5297663807868958, -2.037841796875, 0.47705078125, -0.21337890625, 0, 
261, 1008905470, 0.4150736331939697, -0.4610931873321533, -0.5006798505783081, -0.6036829352378845, 9.500758171081543, 2.129018545150757, 0.7169405817985535, 1.1242215633392334, -1.4710255861282349, 0.5080711245536804, -2.03857421875, 0.4775390625, -0.21533203125, 0, 
262, 1008913803, 0.4150734841823578, -0.46109843254089355, -0.5006821155548096, -0.6036770343780518, 9.493002891540527, 2.1468448638916016, 0.6896096467971802, 1.1448408365249634, -1.4501497745513916, 0.44416362047195435, -2.0322265625, 0.4775390625, -0.214111328125, 0, 
263, 1008922136, 0.4150710701942444, -0.46110799908638, -0.5006823539733887, -0.603671133518219, 9.51181411743164, 2.151085376739502, 0.7178705930709839, 1.083776593208313, -1.4683871269226074, 0.4911913573741913, -2.03857421875, 0.478271484375, -0.21337890625, 0, 
264, 1008930469, 0.4150746464729309, -0.46111026406288147, -0.5006840229034424, -0.6036656498908997, 9.520286560058594, 2.1426143646240234, 0.7309869527816772, 1.17701256275177, -1.3938498497009277, 0.45863574743270874, -2.03857421875, 0.478271484375, -0.2109375, 0, 
265, 1008938802, 0.4150767922401428, -0.4611152112483978, -0.5006778836250305, -0.6036654114723206, 9.507076263427734, 2.1284990310668945, 0.6828116774559021, 1.0452017784118652, -1.325075626373291, 0.5031020045280457, -2.0380859375, 0.47509765625, -0.212158203125, 0, 
266, 1008947135, 0.41507914662361145, -0.4611213207244873, -0.5006716251373291, -0.603664219379425, 9.504714965820312, 2.1689670085906982, 0.6966335773468018, 1.0528090000152588, -1.3632152080535889, 0.5000283122062683, -2.037353515625, 0.47314453125, -0.212158203125, 0, 
267, 1008955468, 0.41508057713508606, -0.46113112568855286, -0.5006654858589172, -0.6036607623100281, 9.49853801727295, 2.155376672744751, 0.716602623462677, 1.0340594053268433, -1.3905967473983765, 0.5487465262413025, -2.03857421875, 0.47705078125, -0.212158203125, 0, 
268, 1008963801, 0.4150797724723816, -0.4611451029777527, -0.5006634593009949, -0.6036524176597595, 9.505464553833008, 2.146394968032837, 0.7081471085548401, 1.0711743831634521, -1.51871919631958, 0.5425223112106323, -2.034912109375, 0.47509765625, -0.21044921875, 0, 
269, 1008972134, 0.415073424577713, -0.4611525237560272, -0.50066739320755, -0.6036479473114014, 9.514472007751465, 2.1359126567840576, 0.7301955819129944, 1.0913841724395752, -1.4888019561767578, 0.4098149836063385, -2.0361328125, 0.475830078125, -0.212158203125, 0, 
270, 1008980467, 0.4150730073451996, -0.46115928888320923, -0.5006623864173889, -0.6036472320556641, 9.492732048034668, 2.155747175216675, 0.7342791557312012, 1.0381064414978027, -1.3919544219970703, 0.47172456979751587, -2.03662109375, 0.476318359375, -0.216552734375, 0, 
271, 1008988800, 0.41507279872894287, -0.4611639976501465, -0.500662088394165, -0.603644073009491, 9.487506866455078, 2.1498563289642334, 0.7020925283432007, 1.1020139455795288, -1.391339659690857, 0.4609665870666504, -2.037841796875, 0.47900390625, -0.211669921875, 0, 
272, 1008997133, 0.41507139801979065, -0.46116623282432556, -0.500662624835968, -0.6036428809165955, 9.52618408203125, 2.15293550491333, 0.7168124914169312, 1.1079820394515991, -1.3958733081817627, 0.3997485339641571, -2.0361328125, 0.478759765625, -0.212158203125, 0, 
273, 1009005466, 0.41507184505462646, -0.46116912364959717, -0.5006552934646606, -0.6036463975906372, 9.516294479370117, 2.1461970806121826, 0.7294724583625793, 1.0124921798706055, -1.2892155647277832, 0.4600188434123993, -2.036865234375, 0.474609375, -0.2109375, 0, 
274, 1009013799, 0.4150683283805847, -0.46117451786994934, -0.5006499290466309, -0.6036491394042969, 9.504772186279297, 2.1441571712493896, 0.6915954947471619, 1.0012731552124023, -1.3792753219604492, 0.4183956980705261, -2.037841796875, 0.480712890625, -0.21484375, 0, 
275, 1009022132, 0.41507041454315186, -0.46118083596229553, -0.5006484389305115, -0.603644073009491, 9.491024017333984, 2.145951509475708, 0.7339794635772705, 1.1104412078857422, -1.393311858177185, 0.5102483034133911, -2.0341796875, 0.48193359375, -0.213623046875, 0, 
276, 1009030465, 0.41507089138031006, -0.46118369698524475, -0.5006428956985474, -0.6036460399627686, 9.510086059570312, 2.16143536567688, 0.7016238570213318, 1.0432807207107544, -1.3326574563980103, 0.4388870894908905, -2.035888671875, 0.480224609375, -0.212890625, 0, 
277, 1009038798, 0.4150642156600952, -0.4611918330192566, -0.5006413459777832, -0.6036458015441895, 9.520126342773438, 2.1455113887786865, 0.7186740636825562, 1.0099307298660278, -1.4389052391052246, 0.4222378432750702, -2.035400390625, 0.478271484375, -0.212158203125, 0, 
278, 1009047131, 0.4150642454624176, -0.46119675040245056, -0.5006378293037415, -0.6036450266838074, 9.507125854492188, 2.173642873764038, 0.7073346972465515, 1.065001368522644, -1.38237464427948, 0.45389702916145325, -2.03662109375, 0.4775390625, -0.213623046875, 0, 
279, 1009055464, 0.4150639772415161, -0.461201548576355, -0.5006412863731384, -0.6036387085914612, 9.49970817565918, 2.155150890350342, 0.6935388445854187, 1.151628851890564, -1.4337823390960693, 0.45410192012786865, -2.03857421875, 0.475830078125, -0.212158203125, 0, 
280, 1009063797, 0.41506752371788025, -0.46120166778564453, -0.5006421208381653, -0.6036355495452881, 9.484048843383789, 2.124842882156372, 0.6807278394699097, 1.1672277450561523, -1.3572982549667358, 0.43548041582107544, -2.032470703125, 0.47314453125, -0.21044921875, 0, 
281, 1009072130, 0.4150737524032593, -0.4611961841583252, -0.5006406307220459, -0.6036364436149597, 9.498147010803223, 2.1448068618774414, 0.6416425704956055, 1.162899136543274, -1.231020212173462, 0.4275912642478943, -2.032958984375, 0.478271484375, -0.216796875, 0, 
282, 1009080463, 0.415083646774292, -0.46119385957717896, -0.5006424188613892, -0.6036298871040344, 9.514639854431152, 2.1425187587738037, 0.7113052606582642, 1.2521389722824097, -1.3205162286758423, 0.48519763350486755, -2.039794921875, 0.476318359375, -0.21484375, 0, 
283, 1009088796, 0.4150904417037964, -0.461188405752182, -0.5006436109542847, -0.6036284565925598, 9.491755485534668, 2.1344356536865234, 0.6740736365318298, 1.2042148113250732, -1.2570441961288452, 0.4300245940685272, -2.037353515625, 0.48193359375, -0.209716796875, 0, 
284, 1009097129, 0.41509705781936646, -0.46118295192718506, -0.5006465911865234, -0.603625476360321, 9.483551025390625, 2.12971568107605, 0.7194443345069885, 1.2356435060501099, -1.3017666339874268, 0.40620335936546326, -2.0361328125, 0.4794921875, -0.212158203125, 0, 
285, 1009105462, 0.4151042401790619, -0.46117138862609863, -0.500652015209198, -0.6036249399185181, 9.508997917175293, 2.1685709953308105, 0.6555323600769043, 1.2695056200027466, -1.2224394083023071, 0.3599952757358551, -2.035888671875, 0.48388671875, -0.211669921875, 0, 
286, 1009113795, 0.41510647535324097, -0.46116194128990173, -0.5006560683250427, -0.6036273837089539, 9.509282112121582, 2.163241147994995, 0.6824461817741394, 1.2013972997665405, -1.2703123092651367, 0.30635905265808105, -2.035400390625, 0.478271484375, -0.213623046875, 0, 
287, 1009122128, 0.41510888934135437, -0.4611530601978302, -0.5006593465805054, -0.6036297082901001, 9.500197410583496, 2.1327624320983887, 0.6815944910049438, 1.1862848997116089, -1.2472337484359741, 0.333689421415329, -2.032958984375, 0.478759765625, -0.21240234375, 0, 
288, 1009130461, 0.41511303186416626, -0.46114781498908997, -0.5006543397903442, -0.6036350131034851, 9.492167472839355, 2.151493549346924, 0.7062264680862427, 1.0933563709259033, -1.2211074829101562, 0.3912702202796936, -2.035400390625, 0.4794921875, -0.209228515625, 0, 
289, 1009138794, 0.41510990262031555, -0.4611508846282959, -0.5006552338600159, -0.6036340594291687, 9.489311218261719, 2.1481339931488037, 0.7369508147239685, 1.0892324447631836, -1.3918262720108032, 0.40546053647994995, -2.0361328125, 0.480224609375, -0.2109375, 0, 
290, 1009147127, 0.4151063859462738, -0.4611520767211914, -0.500656008720398, -0.6036349534988403, 9.508208274841309, 2.1443045139312744, 0.7342572212219238, 1.0878493785858154, -1.3897515535354614, 0.3608148992061615, -2.04345703125, 0.477783203125, -0.21533203125, 0, 
291, 1009155460, 0.41510435938835144, -0.46116259694099426, -0.5006570219993591, -0.6036274433135986, 9.49282169342041, 2.146639347076416, 0.7167554497718811, 1.0968399047851562, -1.4880332946777344, 0.5021286606788635, -2.0341796875, 0.4775390625, -0.211669921875, 0, 
292, 1009163793, 0.4151008129119873, -0.46116647124290466, -0.5006533265113831, -0.603630006313324, 9.510255813598633, 2.147486448287964, 0.7115963101387024, 1.0232245922088623, -1.3753306865692139, 0.3985190689563751, -2.0361328125, 0.478271484375, -0.208984375, 0, 
293, 1009172126, 0.4150949716567993, -0.46115565299987793, -0.5006657838821411, -0.603631854057312, 9.516732215881348, 2.156609058380127, 0.704160749912262, 1.2262173891067505, -1.343389630317688, 0.19667889177799225, -2.034912109375, 0.478271484375, -0.209716796875, 0, 
294, 1009180459, 0.4150908589363098, -0.46114495396614075, -0.5006728768348694, -0.6036370396614075, 9.49577808380127, 2.1395320892333984, 0.6928150653839111, 1.1743232011795044, -1.3024582862854004, 0.21010078489780426, -2.037353515625, 0.47705078125, -0.21044921875, 0, 
295, 1009188792, 0.41508936882019043, -0.4611397087574005, -0.5006759762763977, -0.6036396622657776, 9.520371437072754, 2.138521671295166, 0.721775233745575, 1.1376945972442627, -1.3021252155303955, 0.3240841031074524, -2.03857421875, 0.476318359375, -0.21337890625, 0, 
296, 1009197125, 0.4150930345058441, -0.4611350893974304, -0.5006756782531738, -0.6036410331726074, 9.533425331115723, 2.167609453201294, 0.6711865663528442, 1.153652310371399, -1.2817106246948242, 0.3861217498779297, -2.0380859375, 0.474609375, -0.212158203125, 0, 
297, 1009205458, 0.41510435938835144, -0.4611281454563141, -0.5006710290908813, -0.6036423444747925, 9.527390480041504, 2.184422731399536, 0.6780663132667542, 1.1737338304519653, -1.1626813411712646, 0.47787195444107056, -2.035400390625, 0.47509765625, -0.207763671875, 0, 
298, 1009213791, 0.4151182174682617, -0.4611224830150604, -0.5006666779518127, -0.6036407947540283, 9.51254940032959, 2.1452322006225586, 0.6903648972511292, 1.2117453813552856, -1.2002830505371094, 0.5046900510787964, -2.039794921875, 0.47900390625, -0.21484375, 0, 
299, 1009222124, 0.4151259660720825, -0.4611256718635559, -0.5006595849990845, -0.6036388874053955, 9.508166313171387, 2.145925760269165, 0.7470069527626038, 1.0953030586242676, -1.2766389846801758, 0.5502065420150757, -2.03857421875, 0.480712890625, -0.212158203125, 0, 
300, 1009230457, 0.41512805223464966, -0.4611380100250244, -0.5006593465805054, -0.6036282181739807, 9.490257263183594, 2.158600330352783, 0.7328338027000427, 1.130445957183838, -1.5097287893295288, 0.555816113948822, -2.037109375, 0.48193359375, -0.214111328125, 0, 
301, 1009238790, 0.4151153862476349, -0.46115580201148987, -0.5006605386734009, -0.6036222577095032, 9.499150276184082, 2.1392416954040527, 0.7521595358848572, 0.9800645112991333, -1.614542007446289, 0.4544605612754822, -2.0361328125, 0.478759765625, -0.212158203125, 0, 
302, 1009247123, 0.41510629653930664, -0.4611729681491852, -0.5006592869758606, -0.60361647605896, 9.504762649536133, 2.119534492492676, 0.7127246856689453, 0.9909506440162659, -1.5913097858428955, 0.47564348578453064, -2.037841796875, 0.478271484375, -0.213623046875, 0, 
303, 1009255456, 0.4150942862033844, -0.46118980646133423, -0.5006649494171143, -0.6036071181297302, 9.493776321411133, 2.1509485244750977, 0.7440629005432129, 1.0501196384429932, -1.648071050643921, 0.44080817699432373, -2.032958984375, 0.47509765625, -0.211669921875, 0, 
304, 1009263789, 0.4150809645652771, -0.4612058699131012, -0.5006657242774963, -0.6036033630371094, 9.5001220703125, 2.153240919113159, 0.6646413207054138, 0.9715607762336731, -1.6088557243347168, 0.4087904393672943, -2.04052734375, 0.475830078125, -0.2109375, 0, 
305, 1009272122, 0.4150733947753906, -0.46121975779533386, -0.5006646513938904, -0.6035987138748169, 9.508074760437012, 2.1498043537139893, 0.6797869801521301, 1.0071645975112915, -1.5259170532226562, 0.4753105640411377, -2.037353515625, 0.478271484375, -0.212158203125, 0, 
306, 1009280455, 0.41506844758987427, -0.46123239398002625, -0.5006682872772217, -0.6035894751548767, 9.499815940856934, 2.1356923580169678, 0.6964141726493835, 1.1065733432769775, -1.5737898349761963, 0.46657609939575195, -2.037353515625, 0.47509765625, -0.207763671875, 0, 
307, 1009288788, 0.41506388783454895, -0.46123558282852173, -0.50067138671875, -0.6035877466201782, 9.512454986572266, 2.135531187057495, 0.6875448822975159, 1.101399302482605, -1.4203861951828003, 0.3834322988986969, -2.03173828125, 0.4794921875, -0.21435546875, 0, 
308, 1009297121, 0.41506674885749817, -0.4612344205379486, -0.5006675720214844, -0.6035898327827454, 9.517021179199219, 2.1489098072052, 0.6960306763648987, 1.0955334901809692, -1.2911367416381836, 0.4183956980705261, -2.03662109375, 0.47900390625, -0.209716796875, 0, 
309, 1009305454, 0.41506731510162354, -0.46122920513153076, -0.5006678700447083, -0.6035931706428528, 9.497123718261719, 2.1336913108825684, 0.7258399724960327, 1.122172474861145, -1.2675716876983643, 0.3565629720687866, -2.039306640625, 0.47509765625, -0.208984375, 0, 
310, 1009313787, 0.41506677865982056, -0.46123290061950684, -0.5006577372550964, -0.6035991907119751, 9.491135597229004, 2.1594576835632324, 0.7114360928535461, 0.966360867023468, -1.2950043678283691, 0.4428829252719879, -2.032958984375, 0.478759765625, -0.213623046875, 0, 
311, 1009322120, 0.41505929827690125, -0.4612439274787903, -0.5006617903709412, -0.6035925149917603, 9.502275466918945, 2.1458053588867188, 0.716553807258606, 1.078858733177185, -1.5424379110336304, 0.4353010952472687, -2.037841796875, 0.480712890625, -0.21484375, 0, 
312, 1009330453, 0.4150538444519043, -0.46125102043151855, -0.5006614327430725, -0.6035910248756409, 9.487001419067383, 2.142645835876465, 0.7019188404083252, 1.0495048761367798, -1.4599089622497559, 0.4049738943576813, -2.03662109375, 0.476318359375, -0.21484375, 0, 
313, 1009338786, 0.415052592754364, -0.4612477421760559, -0.5006619095802307, -0.603594183921814, 9.507076263427734, 2.1181840896606445, 0.6912156939506531, 1.102116584777832, -1.2989236116409302, 0.35418087244033813, -2.037841796875, 0.47705078125, -0.211669921875, 0, 
314, 1009347119, 0.4150470197200775, -0.4612480401992798, -0.500666618347168, -0.6035939455032349, 9.495718955993652, 2.123478889465332, 0.7095032930374146, 1.1190989017486572, -1.4251506328582764, 0.3200114965438843, -2.03662109375, 0.47900390625, -0.207763671875, 0, 
315, 1009355452, 0.4150416851043701, -0.4612397253513336, -0.5006771683692932, -0.6035950183868408, 9.511606216430664, 2.1530702114105225, 0.694594144821167, 1.2028316259384155, -1.3566066026687622, 0.23510020971298218, -2.03173828125, 0.4755859375, -0.213623046875, 0, 
316, 1009363785, 0.41504722833633423, -0.46122661232948303, -0.5006794929504395, -0.6035993695259094, 9.522212982177734, 2.1577227115631104, 0.7022923827171326, 1.2160485982894897, -1.1949808597564697, 0.30740922689437866, -2.0361328125, 0.476318359375, -0.209716796875, 0, 
317, 1009372118, 0.4150440990924835, -0.46121731400489807, -0.5006802082061768, -0.6036080121994019, 9.50813102722168, 2.126862049102783, 0.7130097150802612, 1.0942784547805786, -1.2279207706451416, 0.26312220096588135, -2.041015625, 0.478271484375, -0.212158203125, 0, 
318, 1009380451, 0.41504257917404175, -0.4612075090408325, -0.5006823539733887, -0.6036148071289062, 9.515164375305176, 2.1483728885650635, 0.7022218704223633, 1.1346722841262817, -1.2550206184387207, 0.2595106065273285, -2.035400390625, 0.47900390625, -0.207763671875, 0, 
319, 1009388784, 0.4150349199771881, -0.46120768785476685, -0.5006872415542603, -0.6036157608032227, 9.513873100280762, 2.152904748916626, 0.6980056762695312, 1.093023419380188, -1.408936619758606, 0.30930471420288086, -2.035400390625, 0.478271484375, -0.209716796875, 0, 
320, 1009397117, 0.41503843665122986, -0.4611993730068207, -0.5006888508796692, -0.6036184430122375, 9.509415626525879, 2.122410297393799, 0.7032086849212646, 1.1811108589172363, -1.2553024291992188, 0.33830001950263977, -2.034912109375, 0.47509765625, -0.2109375, 0, 
321, 1009405450, 0.4150402247905731, -0.4611978530883789, -0.5006889700889587, -0.6036182045936584, 9.514595031738281, 2.163787603378296, 0.6946583986282349, 1.1325205564498901, -1.3116536140441895, 0.4122227132320404, -2.0361328125, 0.475830078125, -0.20849609375, 0, 
322, 1009413783, 0.4150359332561493, -0.46120068430900574, -0.5006941556930542, -0.6036146879196167, 9.518503189086914, 2.155641794204712, 0.702031135559082, 1.1408706903457642, -1.4610614776611328, 0.36204439401626587, -2.037353515625, 0.480224609375, -0.20849609375, 0, 
323, 1009422116, 0.415036141872406, -0.46120893955230713, -0.5006950497627258, -0.6036075949668884, 9.520447731018066, 2.128469944000244, 0.6920323371887207, 1.122326135635376, -1.4511232376098633, 0.5008735060691833, -2.037353515625, 0.47509765625, -0.212158203125, 0, 
324, 1009430449, 0.4150383472442627, -0.46122485399246216, -0.5006888508796692, -0.603598952293396, 9.517599105834961, 2.129518747329712, 0.6803378462791443, 1.0485059022903442, -1.4938733577728271, 0.6082740426063538, -2.037841796875, 0.4794921875, -0.2109375, 0, 
325, 1009438782, 0.4150395691394806, -0.461225301027298, -0.5006905794143677, -0.6035963296890259, 9.514175415039062, 2.1458349227905273, 0.7023595571517944, 1.1473766565322876, -1.3558381795883179, 0.42413330078125, -2.033447265625, 0.478271484375, -0.212890625, 0, 
326, 1009447115, 0.41504377126693726, -0.46122318506240845, -0.5006878972053528, -0.6035973429679871, 9.525890350341797, 2.125169515609741, 0.7214873433113098, 1.1243239641189575, -1.286372423171997, 0.4235953986644745, -2.032470703125, 0.47314453125, -0.21533203125, 0, 
327, 1009455448, 0.41504788398742676, -0.46121957898139954, -0.5006797909736633, -0.6036038398742676, 9.502229690551758, 2.1487784385681152, 0.7021802663803101, 1.0455602407455444, -1.1891409158706665, 0.4302295446395874, -2.037353515625, 0.474609375, -0.21337890625, 0, 
328, 1009463781, 0.41505247354507446, -0.46121272444725037, -0.5006802678108215, -0.6036055684089661, 9.482818603515625, 2.1312382221221924, 0.7166980504989624, 1.176833152770996, -1.2599385976791382, 0.370522677898407, -2.0361328125, 0.4775390625, -0.211669921875, 0, 
329, 1009472114, 0.415053129196167, -0.4612042307853699, -0.5006791949272156, -0.6036124229431152, 9.497244834899902, 2.1312544345855713, 0.7158994078636169, 1.1068806648254395, -1.21104097366333, 0.3199858069419861, -2.03173828125, 0.47509765625, -0.212890625, 0, 
330, 1009480447, 0.4150547683238983, -0.4611970782279968, -0.5006791353225708, -0.6036168336868286, 9.50007438659668, 2.142775535583496, 0.7033011317253113, 1.1363370418548584, -1.2566344738006592, 0.33179396390914917, -2.03662109375, 0.474365234375, -0.21484375, 0, 
331, 1009488780, 0.41505759954452515, -0.4611891806125641, -0.5006811618804932, -0.6036192774772644, 9.489566802978516, 2.1380631923675537, 0.6944394707679749, 1.17281174659729, -1.245543360710144, 0.3499288558959961, -2.0361328125, 0.478759765625, -0.21484375, 0, 
332, 1009497113, 0.41505172848701477, -0.46118324995040894, -0.5006843209266663, -0.6036252379417419, 9.488561630249023, 2.1443467140197754, 0.7135927081108093, 1.0992475748062134, -1.3283029794692993, 0.24813789129257202, -2.032958984375, 0.47509765625, -0.20849609375, 0, 
333, 1009505446, 0.4150488078594208, -0.46117210388183594, -0.5006879568099976, -0.6036327481269836, 9.489649772644043, 2.1275057792663574, 0.7310141324996948, 1.135312557220459, -1.2363735437393188, 0.24083785712718964, -2.037841796875, 0.4794921875, -0.207763671875, 0, 
334, 1009513779, 0.41504085063934326, -0.4611632823944092, -0.5006958842277527, -0.6036383509635925, 9.517663955688477, 2.139583110809326, 0.7274699807167053, 1.1424589157104492, -1.347180724143982, 0.18253986537456512, -2.035888671875, 0.4814453125, -0.2109375, 0, 
335, 1009522112, 0.4150336980819702, -0.46115827560424805, -0.5007004141807556, -0.6036434769630432, 9.498074531555176, 2.15048885345459, 0.7035503387451172, 1.0967118740081787, -1.3359616994857788, 0.2543621063232422, -2.037841796875, 0.478271484375, -0.213623046875, 0, 
336, 1009530445, 0.41502368450164795, -0.46114403009414673, -0.5007093548774719, -0.6036537885665894, 9.485772132873535, 2.1326959133148193, 0.6969864964485168, 1.1365418434143066, -1.2927758693695068, 0.09621986746788025, -2.04248046875, 0.475830078125, -0.208251953125, 0, 
337, 1009538778, 0.41501307487487793, -0.4611370265483856, -0.5007115006446838, -0.6036648750305176, 9.504531860351562, 2.1490139961242676, 0.7336241602897644, 1.0266313552856445, -1.290752649307251, 0.19252939522266388, -2.033447265625, 0.478271484375, -0.21240234375, 0, 
338, 1009547111, 0.4150049090385437, -0.4611252546310425, -0.500718355178833, -0.6036736965179443, 9.497565269470215, 2.148235559463501, 0.7103791832923889, 1.1274745464324951, -1.2977707386016846, 0.1495487093925476, -2.03662109375, 0.47705078125, -0.2109375, 0, 
339, 1009555444, 0.41499826312065125, -0.46110954880714417, -0.5007249116897583, -0.6036847233772278, 9.500641822814941, 2.1496224403381348, 0.6897414922714233, 1.1350820064544678, -1.2184948921203613, 0.1380479335784912, -2.03662109375, 0.4775390625, -0.214111328125, 0, 
340, 1009563777, 0.4149957299232483, -0.461089551448822, -0.5007277727127075, -0.6036994457244873, 9.505556106567383, 2.1594290733337402, 0.7122800946235657, 1.1370798349380493, -1.1308941841125488, 0.1322590857744217, -2.034912109375, 0.478271484375, -0.212890625, 0, 
341, 1009572110, 0.4149894416332245, -0.4610756039619446, -0.5007358193397522, -0.6037076711654663, 9.492762565612793, 2.175222873687744, 0.7233048677444458, 1.159978985786438, -1.2568904161453247, 0.15856491029262543, -2.034912109375, 0.475830078125, -0.209716796875, 0, 
342, 1009580443, 0.41498613357543945, -0.4610670506954193, -0.5007386207580566, -0.603714108467102, 9.518505096435547, 2.1477396488189697, 0.6805431842803955, 1.1237348318099976, -1.2835036516189575, 0.2505199909210205, -2.0390625, 0.4775390625, -0.21533203125, 0, 
343, 1009588776, 0.41497552394866943, -0.4610665440559387, -0.5007448196411133, -0.6037167906761169, 9.526978492736816, 2.151324510574341, 0.7132373452186584, 1.0805236101150513, -1.4217948913574219, 0.26061204075813293, -2.03662109375, 0.476318359375, -0.212890625, 0, 
344, 1009597109, 0.41496720910072327, -0.461060106754303, -0.5007469654083252, -0.6037255525588989, 9.507512092590332, 2.1465001106262207, 0.7020478248596191, 1.0571891069412231, -1.3159313201904297, 0.21363551914691925, -2.037353515625, 0.476318359375, -0.21337890625, 0, 
345, 1009605442, 0.41495823860168457, -0.46105408668518066, -0.50075364112854, -0.6037307381629944, 9.515364646911621, 2.1527717113494873, 0.7103652954101562, 1.10703444480896, -1.3528156280517578, 0.21737520396709442, -2.0361328125, 0.473876953125, -0.216552734375, 0, 
346, 1009613775, 0.41495481133461, -0.4610438942909241, -0.5007525086402893, -0.6037419438362122, 9.517293930053711, 2.1343443393707275, 0.7204843759536743, 1.0653088092803955, -1.216957926750183, 0.2369188517332077, -2.035400390625, 0.478271484375, -0.209716796875, 0, 
347, 1009622108, 0.4149513840675354, -0.46103158593177795, -0.5007594227790833, -0.6037480235099792, 9.490408897399902, 2.1503074169158936, 0.6854549050331116, 1.1760393381118774, -1.2574541568756104, 0.2140197455883026, -2.0380859375, 0.47705078125, -0.208984375, 0, 
348, 1009630441, 0.41495028138160706, -0.46101778745651245, -0.5007696151733398, -0.6037508249282837, 9.505461692810059, 2.1427643299102783, 0.7135869860649109, 1.2533942461013794, -1.2898560762405396, 0.20651479065418243, -2.03662109375, 0.480224609375, -0.212158203125, 0, 
349, 1009638774, 0.4149537980556488, -0.46099087595939636, -0.5007802248001099, -0.6037599444389343, 9.478999137878418, 2.137272596359253, 0.693440318107605, 1.3134851455688477, -1.09126877784729, 0.13095277547836304, -2.0361328125, 0.4794921875, -0.212890625, 0, 
350, 1009647107, 0.4149557948112488, -0.46097347140312195, -0.5007796287536621, -0.6037722229957581, 9.51008415222168, 2.1508312225341797, 0.7123873829841614, 1.1382838487625122, -1.1168574094772339, 0.220909982919693, -2.032958984375, 0.4794921875, -0.211669921875, 0, 
351, 1009655440, 0.41495728492736816, -0.4609564542770386, -0.5007835626602173, -0.60378098487854, 9.500813484191895, 2.1342437267303467, 0.6856572031974792, 1.192124843597412, -1.1509243249893188, 0.2257254272699356, -2.0361328125, 0.475830078125, -0.20849609375, 0, 
352, 1009663773, 0.41495445370674133, -0.46094435453414917, -0.5007870197296143, -0.6037893295288086, 9.508411407470703, 2.1385111808776855, 0.728102445602417, 1.1380788087844849, -1.2408303022384644, 0.21637625992298126, -2.037841796875, 0.480712890625, -0.21484375, 0, 
353, 1009672106, 0.41495102643966675, -0.46092918515205383, -0.5007919073104858, -0.6037993431091309, 9.51400375366211, 2.140066146850586, 0.7077523469924927, 1.1479145288467407, -1.1984643936157227, 0.18392300605773926, -2.034912109375, 0.474609375, -0.2109375, 0, 
354, 1009680439, 0.4149484932422638, -0.46091240644454956, -0.5007960796356201, -0.6038104295730591, 9.509819030761719, 2.128385543823242, 0.7216574549674988, 1.1538059711456299, -1.188244342803955, 0.16688954830169678, -2.0361328125, 0.478271484375, -0.21533203125, 0, 
355, 1009688772, 0.4149515628814697, -0.4608917236328125, -0.500796914100647, -0.6038233637809753, 9.500327110290527, 2.1422479152679443, 0.7126019597053528, 1.1676377058029175, -1.0646556615829468, 0.20620737969875336, -2.032958984375, 0.478271484375, -0.214111328125, 0, 
356, 1009697105, 0.41495123505592346, -0.4608767032623291, -0.5007973313331604, -0.6038346886634827, 9.496479034423828, 2.158670663833618, 0.7406411170959473, 1.1255533695220947, -1.1659855842590332, 0.21919380128383636, -2.035400390625, 0.47998046875, -0.214111328125, 0, 
357, 1009705438, 0.4149481952190399, -0.46086499094963074, -0.500800609588623, -0.6038430333137512, 9.504247665405273, 2.155740261077881, 0.6848245859146118, 1.1280124187469482, -1.2238737344741821, 0.23015670478343964, -2.03173828125, 0.478271484375, -0.21728515625, 0, 
358, 1009713771, 0.4149533212184906, -0.46084463596343994, -0.5007979869842529, -0.6038572192192078, 9.502852439880371, 2.146904468536377, 0.7091829180717468, 1.1449947357177734, -1.047724723815918, 0.2297980636358261, -2.035400390625, 0.480224609375, -0.213623046875, 0, 
359, 1009722104, 0.4149462878704071, -0.4608400762081146, -0.5008037090301514, -0.6038606762886047, 9.493834495544434, 2.136258602142334, 0.7032065391540527, 1.1151286363601685, -1.3568629026412964, 0.25830674171447754, -2.037353515625, 0.475830078125, -0.21728515625, 0, 
360, 1009730437, 0.41494038701057434, -0.4608372747898102, -0.5008089542388916, -0.6038625836372375, 9.513547897338867, 2.1429364681243896, 0.6951614618301392, 1.1254510879516602, -1.3918519020080566, 0.27946409583091736, -2.0322265625, 0.480224609375, -0.20849609375, 0, 
361, 1009738770, 0.414938360452652, -0.4608268141746521, -0.5008131861686707, -0.6038684844970703, 9.494328498840332, 2.1394991874694824, 0.6947052478790283, 1.1520897150039673, -1.2489498853683472, 0.25351688265800476, -2.034912109375, 0.475830078125, -0.212890625, 0, 
362, 1009747103, 0.4149360656738281, -0.4608151912689209, -0.5008193254470825, -0.6038738489151001, 9.491347312927246, 2.153691291809082, 0.700299859046936, 1.1825453042984009, -1.2770233154296875, 0.22431667149066925, -2.039794921875, 0.473388671875, -0.214599609375, 0, 
363, 1009755436, 0.4149297773838043, -0.46080416440963745, -0.5008248686790466, -0.6038820743560791, 9.509194374084473, 2.147460699081421, 0.7260384559631348, 1.1217625141143799, -1.2667776346206665, 0.19383572041988373, -2.037841796875, 0.476318359375, -0.214111328125, 0, 
364, 1009763769, 0.41492199897766113, -0.46079427003860474, -0.5008306503295898, -0.6038901209831238, 9.500301361083984, 2.1563119888305664, 0.7147085666656494, 1.1156920194625854, -1.3087592124938965, 0.17605942487716675, -2.035400390625, 0.478271484375, -0.214111328125, 0, 
365, 1009772102, 0.41491585969924927, -0.4607776403427124, -0.5008378624916077, -0.6039009690284729, 9.507065773010254, 2.1543867588043213, 0.7438455820083618, 1.1527045965194702, -1.2134231328964233, 0.1292366087436676, -2.041015625, 0.4814453125, -0.208984375, 0, 
366, 1009780435, 0.41490963101387024, -0.4607572555541992, -0.5008437633514404, -0.6039159893989563, 9.48983383178711, 2.1368331909179688, 0.7034391760826111, 1.1382068395614624, -1.167650580406189, 0.07739340513944626, -2.039794921875, 0.47705078125, -0.212890625, 0, 
367, 1009788768, 0.41490796208381653, -0.46073952317237854, -0.5008450746536255, -0.6039295792579651, 9.501757621765137, 2.143127679824829, 0.6949058175086975, 1.1185351610183716, -1.1221851110458374, 0.18192508816719055, -2.0361328125, 0.476318359375, -0.209716796875, 0, 
368, 1009797101, 0.41490763425827026, -0.46071889996528625, -0.5008414387702942, -0.6039485931396484, 9.519554138183594, 2.157418966293335, 0.7016652822494507, 1.071405053138733, -1.0451889038085938, 0.1616898626089096, -2.0361328125, 0.475830078125, -0.216064453125, 0, 
369, 1009805434, 0.4149129390716553, -0.4607003927230835, -0.5008407831192017, -0.6039596199989319, 9.498775482177734, 2.1582772731781006, 0.7148908972740173, 1.1707113981246948, -1.0727497339248657, 0.26155975461006165, -2.03369140625, 0.474365234375, -0.213623046875, 0, 
370, 1009813767, 0.4149129092693329, -0.4606872498989105, -0.5008369088172913, -0.6039729714393616, 9.49728775024414, 2.1682698726654053, 0.7075592279434204, 1.0664358139038086, -1.1395772695541382, 0.2493673861026764, -2.034912109375, 0.474609375, -0.211669921875, 0, 
371, 1009822100, 0.4149131178855896, -0.4606740474700928, -0.5008391737937927, -0.6039809584617615, 9.497079849243164, 2.1588282585144043, 0.7497323751449585, 1.1520130634307861, -1.1879112720489502, 0.25477197766304016, -2.039794921875, 0.480224609375, -0.212890625, 0, 
372, 1009830433, 0.41491633653640747, -0.46066367626190186, -0.5008475184440613, -0.603979766368866, 9.49229621887207, 2.144585371017456, 0.7438260912895203, 1.2733219861984253, -1.301971673965454, 0.30156922340393066, -2.039794921875, 0.478271484375, -0.218017578125, 0, 
373, 1009838766, 0.41491398215293884, -0.4606556296348572, -0.5008560419082642, -0.6039804220199585, 9.498150825500488, 2.146850824356079, 0.718858540058136, 1.2075704336166382, -1.3303521871566772, 0.2702430188655853, -2.03662109375, 0.475830078125, -0.21728515625, 0, 
374, 1009847099, 0.41491377353668213, -0.4606442153453827, -0.5008611083030701, -0.6039849519729614, 9.501581192016602, 2.151404857635498, 0.7202745079994202, 1.189742922782898, -1.26216721534729, 0.25331199169158936, -2.0341796875, 0.478271484375, -0.212890625, 0, 
375, 1009855432, 0.41490668058395386, -0.46064215898513794, -0.5008634924888611, -0.6039894819259644, 9.50001049041748, 2.15446138381958, 0.7052895426750183, 1.0671018362045288, -1.3534305095672607, 0.2896329462528229, -2.0341796875, 0.4794921875, -0.21240234375, 0, 
376, 1009863765, 0.41490405797958374, -0.46063926815986633, -0.5008646249771118, -0.6039925813674927, 9.504514694213867, 2.1639459133148193, 0.7048265337944031, 1.1037302017211914, -1.3365508317947388, 0.32457074522972107, -2.04052734375, 0.47705078125, -0.21533203125, 0, 
377, 1009872098, 0.414899080991745, -0.4606424570083618, -0.5008696913719177, -0.6039893627166748, 9.500608444213867, 2.1466946601867676, 0.7219957709312439, 1.1253228187561035, -1.4478189945220947, 0.3708556890487671, -2.03662109375, 0.478271484375, -0.209716796875, 0, 
378, 1009880431, 0.4148980677127838, -0.460645467042923, -0.5008723735809326, -0.6039856672286987, 9.486973762512207, 2.140195608139038, 0.7205829620361328, 1.1405889987945557, -1.4276349544525146, 0.4085598587989807, -2.03662109375, 0.478271484375, -0.2109375, 0, 
379, 1009888764, 0.4148886501789093, -0.460648775100708, -0.5008788108825684, -0.6039840579032898, 9.495624542236328, 2.152580976486206, 0.7142953872680664, 1.0987610816955566, -1.4760715961456299, 0.3158106803894043, -2.03662109375, 0.475830078125, -0.212158203125, 0, 
380, 1009897097, 0.4148804545402527, -0.4606533646583557, -0.500880241394043, -0.6039850115776062, 9.495697021484375, 2.1737051010131836, 0.7085479497909546, 1.0428707599639893, -1.451737880706787, 0.34047719836235046, -2.042236328125, 0.475830078125, -0.21142578125, 0, 
381, 1009905430, 0.41487544775009155, -0.4606633186340332, -0.5008763074874878, -0.6039841771125793, 9.493722915649414, 2.154628276824951, 0.7206056118011475, 0.9930766224861145, -1.4375733137130737, 0.46047988533973694, -2.0341796875, 0.47509765625, -0.20654296875, 0, 
382, 1009913763, 0.4148695170879364, -0.4606688916683197, -0.5008735060691833, -0.603986382484436, 9.491497039794922, 2.1453990936279297, 0.7100528478622437, 1.0078305006027222, -1.4114724397659302, 0.386044979095459, -2.037353515625, 0.478271484375, -0.213623046875, 0, 
383, 1009922096, 0.4148567318916321, -0.4606773257255554, -0.5008776783943176, -0.6039850115776062, 9.499466896057129, 2.1515538692474365, 0.7181290984153748, 1.0303196907043457, -1.5270949602127075, 0.3354824483394623, -2.0361328125, 0.473876953125, -0.216064453125, 0, 
384, 1009930429, 0.41485241055488586, -0.4606792628765106, -0.5008751153945923, -0.6039886474609375, 9.517677307128906, 2.153210163116455, 0.7018042206764221, 1.032829999923706, -1.3651618957519531, 0.36514371633529663, -2.034912109375, 0.476318359375, -0.213623046875, 0, 
385, 1009938762, 0.41484373807907104, -0.4606808125972748, -0.5008758902549744, -0.6039928197860718, 9.501946449279785, 2.1485164165496826, 0.7238026261329651, 1.0232245922088623, -1.3872668743133545, 0.31276261806488037, -2.03857421875, 0.47705078125, -0.214111328125, 0, 
386, 1009947095, 0.41484081745147705, -0.4606817960739136, -0.5008813142776489, -0.6039896011352539, 9.493154525756836, 2.154430627822876, 0.714173436164856, 1.1597484350204468, -1.4369840621948242, 0.35909873247146606, -2.03857421875, 0.478271484375, -0.214111328125, 0, 
387, 1009955428, 0.41483980417251587, -0.4606911242008209, -0.5008789896965027, -0.603985071182251, 9.483948707580566, 2.1645233631134033, 0.7216992378234863, 1.0627729892730713, -1.436779260635376, 0.49744123220443726, -2.034912109375, 0.478271484375, -0.212158203125, 0, 
388, 1009963761, 0.41483670473098755, -0.46069014072418213, -0.5008811950683594, -0.6039861440658569, 9.491811752319336, 2.1611127853393555, 0.6773167848587036, 1.112797737121582, -1.3740757703781128, 0.33942705392837524, -2.035400390625, 0.478271484375, -0.212158203125, 0, 
389, 1009972094, 0.4148348569869995, -0.4606885313987732, -0.5008816123008728, -0.6039882898330688, 9.497191429138184, 2.155758857727051, 0.697158932685852, 1.0985816717147827, -1.325920820236206, 0.3598928153514862, -2.03857421875, 0.47509765625, -0.208984375, 0, 
390, 1009980427, 0.41482722759246826, -0.46068939566612244, -0.5008862614631653, -0.6039890050888062, 9.512884140014648, 2.14280104637146, 0.7099603414535522, 1.096199631690979, -1.4374964237213135, 0.3016204237937927, -2.037841796875, 0.480224609375, -0.21484375, 0, 
391, 1009988760, 0.4148179292678833, -0.4606993794441223, -0.5008878111839294, -0.6039866805076599, 9.499695777893066, 2.1661596298217773, 0.7047116756439209, 1.0257349014282227, -1.5090112686157227, 0.39634186029434204, -2.034912109375, 0.47705078125, -0.211669921875, 0, 
392, 1009997093, 0.4148199260234833, -0.460700660943985, -0.5008915662765503, -0.6039811968803406, 9.501945495605469, 2.1853795051574707, 0.7224246263504028, 1.1896405220031738, -1.4087063074111938, 0.4260031580924988, -2.0341796875, 0.478271484375, -0.21240234375, 0, 
393, 1010005426, 0.414814829826355, -0.46070900559425354, -0.5008940100669861, -0.603976309299469, 9.482232093811035, 2.154646158218384, 0.7243073582649231, 1.0861587524414062, -1.48616361618042, 0.42899999022483826, -2.039306640625, 0.4765625, -0.207763671875, 0, 
394, 1010013759, 0.4148046672344208, -0.46072691679000854, -0.5008929967880249, -0.6039704084396362, 9.47659683227539, 2.156646728515625, 0.7284111976623535, 0.9814221262931824, -1.60703706741333, 0.4708024263381958, -2.0361328125, 0.47314453125, -0.212890625, 0, 
395, 1010022092, 0.4147967994213104, -0.46073758602142334, -0.5008910298347473, -0.6039692759513855, 9.487648010253906, 2.1396727561950684, 0.7388951778411865, 0.9926668405532837, -1.4755847454071045, 0.4281803369522095, -2.039306640625, 0.47314453125, -0.21728515625, 0, 
396, 1010030425, 0.41478729248046875, -0.4607503414154053, -0.5008906126022339, -0.6039665341377258, 9.506620407104492, 2.1565210819244385, 0.7294153571128845, 0.9975847601890564, -1.542130708694458, 0.4190104603767395, -2.0380859375, 0.47509765625, -0.21337890625, 0, 
397, 1010038758, 0.41477954387664795, -0.46075332164764404, -0.5008931159973145, -0.6039673686027527, 9.512256622314453, 2.1586132049560547, 0.7225821614265442, 1.060570240020752, -1.423664927482605, 0.3382231891155243, -2.0341796875, 0.476318359375, -0.2109375, 0, 
398, 1010047091, 0.4147813618183136, -0.4607570171356201, -0.5008889436721802, -0.6039666533470154, 9.502479553222656, 2.1470072269439697, 0.7108068466186523, 1.0780647993087769, -1.3553516864776611, 0.46206802129745483, -2.035888671875, 0.4814453125, -0.212890625, 0, 
399, 1010055424, 0.4147750437259674, -0.46075814962387085, -0.5008898377418518, -0.6039695739746094, 9.496745109558105, 2.1630773544311523, 0.7012905478477478, 1.0521174669265747, -1.3767651319503784, 0.3348677158355713, -2.03662109375, 0.4775390625, -0.21484375, 0, 
400, 1010063757, 0.4147673547267914, -0.46075373888015747, -0.5008932948112488, -0.6039753556251526, 9.502158164978027, 2.1418352127075195, 0.7212288975715637, 1.081522822380066, -1.3558382987976074, 0.24375790357589722, -2.041015625, 0.47705078125, -0.212890625, 0, 
401, 1010072090, 0.4147672653198242, -0.4607384204864502, -0.500899076461792, -0.603982150554657, 9.509272575378418, 2.158052682876587, 0.6968552470207214, 1.2024474143981934, -1.2007696628570557, 0.2196548581123352, -2.041015625, 0.4794921875, -0.212158203125, 0, 
402, 1010080423, 0.41476279497146606, -0.4607272446155548, -0.5009037852287292, -0.603989839553833, 9.510398864746094, 2.1543710231781006, 0.7031493186950684, 1.1362602710723877, -1.270645260810852, 0.20362034440040588, -2.033447265625, 0.476318359375, -0.21533203125, 0, 
403, 1010088756, 0.4147550165653229, -0.4607204794883728, -0.500903844833374, -0.6040003895759583, 9.507501602172852, 2.1398372650146484, 0.7220437526702881, 1.029372215270996, -1.2684937715530396, 0.23005427420139313, -2.040283203125, 0.4833984375, -0.212158203125, 0, 
404, 1010097089, 0.41475507616996765, -0.4607066512107849, -0.5009113550186157, -0.6040046811103821, 9.49459457397461, 2.1668930053710938, 0.6926944255828857, 1.2293936014175415, -1.2578125, 0.2250850647687912, -2.03857421875, 0.478271484375, -0.21484375, 0, 
405, 1010105422, 0.4147503674030304, -0.46070194244384766, -0.5009079575538635, -0.6040143370628357, 9.503788948059082, 2.1724257469177246, 0.7193042039871216, 1.0153098106384277, -1.249769687652588, 0.29693296551704407, -2.039306640625, 0.476318359375, -0.21533203125, 0, 
406, 1010113755, 0.4147495627403259, -0.4606967270374298, -0.5009060502052307, -0.6040204763412476, 9.497513771057129, 2.174004077911377, 0.6989351511001587, 1.0830849409103394, -1.2686471939086914, 0.32569777965545654, -2.039306640625, 0.47509765625, -0.21533203125, 0, 
407, 1010122088, 0.41474464535713196, -0.46069175004959106, -0.500899612903595, -0.6040329933166504, 9.513581275939941, 2.161189079284668, 0.7236602902412415, 0.9733793139457703, -1.2135001420974731, 0.29680493474006653, -2.03662109375, 0.475830078125, -0.211669921875, 0, 
408, 1010130421, 0.4147510528564453, -0.460679292678833, -0.5009014010429382, -0.6040366888046265, 9.509245872497559, 2.14933705329895, 0.7259967923164368, 1.2187124490737915, -1.1950321197509766, 0.325749009847641, -2.0361328125, 0.478271484375, -0.2109375, 0, 
409, 1010138754, 0.41474807262420654, -0.46067920327186584, -0.5009000301361084, -0.6040399670600891, 9.495195388793945, 2.16231632232666, 0.7262232303619385, 1.0590591430664062, -1.3287898302078247, 0.36614271998405457, -2.03857421875, 0.480224609375, -0.211669921875, 0, 
410, 1010147087, 0.41474074125289917, -0.4606832265853882, -0.5009057521820068, -0.6040371656417847, 9.495426177978516, 2.153416633605957, 0.7162144184112549, 1.114539384841919, -1.4920035600662231, 0.33796700835227966, -2.035400390625, 0.474365234375, -0.216552734375, 0, 
411, 1010155420, 0.41474252939224243, -0.46068525314331055, -0.5009121298789978, -0.6040289998054504, 9.469229698181152, 2.1392364501953125, 0.6828514337539673, 1.2216068506240845, -1.4281214475631714, 0.43850287795066833, -2.0361328125, 0.478271484375, -0.213623046875, 0, 
412, 1010163753, 0.41474002599716187, -0.4606824517250061, -0.50091952085495, -0.604026734828949, 9.505105018615723, 2.1720871925354004, 0.7245478630065918, 1.1935337781906128, -1.4074510335922241, 0.3188588321208954, -2.03662109375, 0.476318359375, -0.211669921875, 0, 
413, 1010172086, 0.41473549604415894, -0.460685133934021, -0.5009185075759888, -0.604028582572937, 9.504359245300293, 2.1729824542999268, 0.7000177502632141, 1.0457139015197754, -1.3734608888626099, 0.37592729926109314, -2.034912109375, 0.475830078125, -0.21484375, 0, 
414, 1010180419, 0.4147327244281769, -0.4606882929801941, -0.5009168982505798, -0.6040294170379639, 9.482763290405273, 2.157508611679077, 0.7271219491958618, 1.0604932308197021, -1.385986089706421, 0.3965211510658264, -2.033447265625, 0.482666015625, -0.21044921875, 0, 
415, 1010188752, 0.41473352909088135, -0.4606913626194, -0.5009157657623291, -0.604027509689331, 9.495356559753418, 2.1619508266448975, 0.7120347023010254, 1.10224449634552, -1.3639835119247437, 0.4463152289390564, -2.04052734375, 0.475830078125, -0.21142578125, 0, 
416, 1010197085, 0.41472774744033813, -0.46069955825805664, -0.500912606716156, -0.6040278077125549, 9.50411319732666, 2.154254913330078, 0.69142746925354, 1.0052177906036377, -1.445155143737793, 0.4179346263408661, -2.0380859375, 0.475830078125, -0.211669921875, 0, 
417, 1010205418, 0.4147183895111084, -0.4607085883617401, -0.5009133815765381, -0.6040266156196594, 9.49199390411377, 2.156497001647949, 0.7123624086380005, 1.0135936737060547, -1.4886224269866943, 0.38712072372436523, -2.03466796875, 0.480712890625, -0.2109375, 0, 
418, 1010213751, 0.4147203862667084, -0.460710734128952, -0.5009113550186157, -0.6040253639221191, 9.500563621520996, 2.165354013442993, 0.6763206720352173, 1.1084431409835815, -1.3560431003570557, 0.44313904643058777, -2.039794921875, 0.476318359375, -0.210205078125, 0, 
419, 1010222084, 0.41472315788269043, -0.46070918440818787, -0.5009057521820068, -0.6040294766426086, 9.496192932128906, 2.156928300857544, 0.7099242210388184, 1.063720703125, -1.2482072114944458, 0.42567014694213867, -2.041748046875, 0.4794921875, -0.214111328125, 0, 
420, 1010230417, 0.4147219657897949, -0.4607168734073639, -0.5009049773216248, -0.60402512550354, 9.473481178283691, 2.162721633911133, 0.7295397520065308, 1.0894116163253784, -1.4518402814865112, 0.4633229970932007, -2.0322265625, 0.476318359375, -0.215576171875, 0, 
421, 1010238750, 0.41472113132476807, -0.46072250604629517, -0.5009003281593323, -0.6040250658988953, 9.48464584350586, 2.1642394065856934, 0.701612114906311, 1.0353401899337769, -1.3643933534622192, 0.4616837501525879, -2.035400390625, 0.4775390625, -0.216796875, 0, 
422, 1010247083, 0.4147133231163025, -0.46073228120803833, -0.5008971095085144, -0.604025661945343, 9.496953010559082, 2.14815092086792, 0.7297986149787903, 0.9801414608955383, -1.468207836151123, 0.4119665324687958, -2.036865234375, 0.473876953125, -0.211669921875, 0, 
423, 1010255416, 0.41471391916275024, -0.46073129773139954, -0.5009018182754517, -0.6040220856666565, 9.498688697814941, 2.140625, 0.6977837681770325, 1.1819047927856445, -1.3764064311981201, 0.3896052837371826, -2.03369140625, 0.47509765625, -0.2109375, 0, 
424, 1010263749, 0.41471123695373535, -0.4607257544994354, -0.500898003578186, -0.6040313243865967, 9.49647331237793, 2.1680986881256104, 0.6978743076324463, 1.036902666091919, -1.24846351146698, 0.3019278049468994, -2.039794921875, 0.476318359375, -0.21484375, 0, 
425, 1010272082, 0.414706826210022, -0.4607202112674713, -0.5009009838104248, -0.6040361523628235, 9.504077911376953, 2.154569387435913, 0.7167247533798218, 1.10703444480896, -1.3078371286392212, 0.2795921564102173, -2.03662109375, 0.475830078125, -0.2109375, 0, 
426, 1010280415, 0.41470152139663696, -0.4607166647911072, -0.5009000897407532, -0.6040432453155518, 9.500890731811523, 2.1634607315063477, 0.7155069708824158, 1.0466872453689575, -1.3134466409683228, 0.2888389527797699, -2.0361328125, 0.476318359375, -0.212158203125, 0, 
427, 1010288748, 0.4147031009197235, -0.4607103168964386, -0.5008983016014099, -0.604048490524292, 9.496147155761719, 2.152369499206543, 0.7043852210044861, 1.106163501739502, -1.2309688329696655, 0.3499032258987427, -2.0361328125, 0.478271484375, -0.2109375, 0, 
428, 1010297081, 0.41470080614089966, -0.4607105851173401, -0.5008952021598816, -0.6040523648262024, 9.477463722229004, 2.160087823867798, 0.7206115126609802, 1.0475581884384155, -1.3327853679656982, 0.37321218848228455, -2.0390625, 0.47900390625, -0.212158203125, 0, 
429, 1010305414, 0.41469335556030273, -0.4607168138027191, -0.5009016394615173, -0.6040472388267517, 9.50473403930664, 2.1575512886047363, 0.7073957920074463, 1.118560791015625, -1.5104714632034302, 0.369728684425354, -2.039306640625, 0.4775390625, -0.212890625, 0, 
430, 1010313747, 0.41468513011932373, -0.4607190191745758, -0.5009013414382935, -0.6040514707565308, 9.504902839660645, 2.16729474067688, 0.6950315833091736, 1.0203557014465332, -1.403275728225708, 0.3163742125034332, -2.0390625, 0.47900390625, -0.21484375, 0, 
431, 1010322080, 0.4146798253059387, -0.46072492003440857, -0.5009068846702576, -0.6040461659431458, 9.50937557220459, 2.1682920455932617, 0.7049742937088013, 1.1274234056472778, -1.4877259731292725, 0.3905530869960785, -2.035400390625, 0.476318359375, -0.209716796875, 0, 
432, 1010330413, 0.4146782159805298, -0.46073612570762634, -0.5009094476699829, -0.6040367484092712, 9.4990816116333, 2.171327590942383, 0.7009445428848267, 1.1297285556793213, -1.5355221033096313, 0.49365031719207764, -2.03662109375, 0.4775390625, -0.214111328125, 0, 
433, 1010338746, 0.4146828353404999, -0.4607463479042053, -0.5009075999259949, -0.604027271270752, 9.492599487304688, 2.145578622817993, 0.6944991946220398, 1.135286808013916, -1.440698266029358, 0.5747449994087219, -2.03369140625, 0.473876953125, -0.21484375, 0, 
434, 1010347079, 0.4146864712238312, -0.46074897050857544, -0.5009056329727173, -0.6040242910385132, 9.505615234375, 2.1799874305725098, 0.7117952704429626, 1.1273720264434814, -1.3602439165115356, 0.47011083364486694, -2.037353515625, 0.47314453125, -0.21533203125, 0, 
435, 1010355412, 0.41468673944473267, -0.46074992418289185, -0.5009047389030457, -0.6040241718292236, 9.506208419799805, 2.1587092876434326, 0.673801839351654, 1.1011176109313965, -1.3392404317855835, 0.41383638978004456, -2.0341796875, 0.47314453125, -0.212890625, 0, 
436, 1010363745, 0.4146966338157654, -0.4607555866241455, -0.5009009838104248, -0.6040161848068237, 9.493658065795898, 2.1621639728546143, 0.7012252807617188, 1.1697125434875488, -1.3641886711120605, 0.5828903913497925, -2.039306640625, 0.475830078125, -0.2109375, 0, 
437, 1010372078, 0.4147014915943146, -0.4607601463794708, -0.5009012818336487, -0.6040089726448059, 9.49390697479248, 2.165642261505127, 0.7317143678665161, 1.170224666595459, -1.3890854120254517, 0.5112729072570801, -2.03662109375, 0.475830078125, -0.21484375, 0, 
438, 1010380411, 0.4147065281867981, -0.46076178550720215, -0.5009007453918457, -0.6040046215057373, 9.477176666259766, 2.1566457748413086, 0.7589713335037231, 1.1644359827041626, -1.359424352645874, 0.47264668345451355, -2.03857421875, 0.475830078125, -0.216064453125, 0, 
439, 1010388744, 0.4147084653377533, -0.46076375246047974, -0.5009000301361084, -0.6040024757385254, 9.50024127960205, 2.1488025188446045, 0.7374516725540161, 1.1226078271865845, -1.3514325618743896, 0.44667381048202515, -2.0322265625, 0.4775390625, -0.21240234375, 0, 
440, 1010397077, 0.4147079288959503, -0.46075719594955444, -0.5009017586708069, -0.6040064096450806, 9.498249053955078, 2.139765501022339, 0.7031862139701843, 1.1383862495422363, -1.29103422164917, 0.30917659401893616, -2.039794921875, 0.474609375, -0.209716796875, 0, 
441, 1010405410, 0.4147115647792816, -0.4607459306716919, -0.5009030699729919, -0.6040114760398865, 9.489083290100098, 2.153925657272339, 0.7069257497787476, 1.1742205619812012, -1.1938025951385498, 0.31347984075546265, -2.0341796875, 0.47900390625, -0.207763671875, 0, 
442, 1010413743, 0.4147149324417114, -0.46073266863822937, -0.5009047389030457, -0.6040180325508118, 9.475092887878418, 2.1522130966186523, 0.7234980463981628, 1.1821095943450928, -1.1912667751312256, 0.28123149275779724, -2.035400390625, 0.473876953125, -0.210205078125, 0, 
