PacketCounter,SampleTimeFine,Quat_W,Quat_X,Quat_Y,Quat_Z,Acc_X,Acc_Y,Acc_Z,Gyr_X,Gyr_Y,Gyr_Z,Mag_X,Mag_Y,Mag_Z,Status,
0, 1031121248, 0.43555331230163574, -0.44552212953567505, -0.5157453417778015, -0.5880616307258606, 0, 0, 0, 0, 0, 0, -2.079345703125, 0.453125, -0.265869140625, 0, 
1, 1031129581, 0.4355800151824951, -0.4456482529640198, -0.5156895518302917, -0.5879952311515808, 9.564988136291504, 2.1930689811706543, 0.6280352473258972, 0.5434443354606628, -2.2584068775177, 2.240105390548706, -2.08056640625, 0.456298828125, -0.2626953125, 0, 
2, 1031137914, 0.43561360239982605, -0.4457806944847107, -0.5156210064888, -0.5879302024841309, 9.595067977905273, 2.1337246894836426, 0.5985032320022583, 0.4376576244831085, -2.170550584793091, 2.4031403064727783, -2.076904296875, 0.453125, -0.2626953125, 0, 
3, 1031146247, 0.4356718063354492, -0.44589951634407043, -0.5155438184738159, -0.5878646969795227, 9.5277738571167, 2.1203486919403076, 0.6332882046699524, 0.6005130410194397, -1.8433284759521484, 2.5685572624206543, -2.078125, 0.453125, -0.26220703125, 0, 
4, 1031154580, 0.4357415437698364, -0.4460253119468689, -0.5154598951339722, -0.5877910256385803, 9.493152618408203, 2.144404172897339, 0.6803188323974609, 0.6308146119117737, -1.8210440874099731, 2.7948334217071533, -2.077392578125, 0.453857421875, -0.265869140625, 0, 
5, 1031162913, 0.4358161687850952, -0.44615256786346436, -0.5153762102127075, -0.5877124667167664, 9.501311302185059, 2.0794694423675537, 0.6889525055885315, 0.6923143863677979, -1.8361822366714478, 2.878668785095215, -2.079345703125, 0.45068359375, -0.261474609375, 0, 
6, 1031171246, 0.4358897805213928, -0.4462818503379822, -0.5152938365936279, -0.5876317620277405, 9.508370399475098, 2.1102993488311768, 0.6897312998771667, 0.7001779079437256, -1.8745262622833252, 2.8847901821136475, -2.081298828125, 0.45703125, -0.261474609375, 0, 
7, 1031179579, 0.43595659732818604, -0.44642335176467896, -0.515216052532196, -0.5875429511070251, 9.51341438293457, 2.141097068786621, 0.6856745481491089, 0.6780728697776794, -2.103825330734253, 2.943037271499634, -2.079345703125, 0.453857421875, -0.2626953125, 0, 
8, 1031187912, 0.43601852655410767, -0.4465847909450531, -0.5151395201683044, -0.5874412059783936, 9.52046012878418, 2.0845768451690674, 0.7133234143257141, 0.6289446949958801, -2.37943434715271, 3.107454776763916, -2.078857421875, 0.451904296875, -0.259521484375, 0, 
9, 1031196245, 0.4360784888267517, -0.4467547833919525, -0.5150713324546814, -0.5873273015022278, 9.525084495544434, 2.086658477783203, 0.7222839593887329, 0.7216938138008118, -2.5946450233459473, 3.181326389312744, -2.081298828125, 0.45458984375, -0.263427734375, 0, 
10, 1031204578, 0.43613356351852417, -0.44693657755851746, -0.515001118183136, -0.5872098207473755, 9.532177925109863, 2.0929174423217773, 0.6339771747589111, 0.627612829208374, -2.7285823822021484, 3.25120210647583, -2.083740234375, 0.457763671875, -0.2626953125, 0, 
11, 1031212911, 0.4361875653266907, -0.4471052289009094, -0.5149402022361755, -0.587094783782959, 9.536762237548828, 2.0984506607055664, 0.6437053084373474, 0.7593210935592651, -2.6774046421051025, 3.085554361343384, -2.0830078125, 0.456298828125, -0.261962890625, 0, 
12, 1031221244, 0.4362398386001587, -0.4472770094871521, -0.5148703455924988, -0.5869861245155334, 9.529237747192383, 2.084418773651123, 0.663523256778717, 0.6121673583984375, -2.6139323711395264, 3.102177858352661, -2.077392578125, 0.45947265625, -0.25830078125, 0, 
13, 1031229577, 0.43629229068756104, -0.44742539525032043, -0.5148054361343384, -0.5868911147117615, 9.505887985229492, 2.0648655891418457, 0.6380870342254639, 0.6984360218048096, -2.3766934871673584, 2.8344838619232178, -2.07861328125, 0.458984375, -0.2578125, 0, 
14, 1031237910, 0.4363422393798828, -0.44756844639778137, -0.514731764793396, -0.5868093967437744, 9.50736141204834, 2.036600351333618, 0.6469272971153259, 0.5486441850662231, -2.209407091140747, 2.741760730743408, -2.079345703125, 0.453857421875, -0.259033203125, 0, 
15, 1031246243, 0.4363842010498047, -0.44768795371055603, -0.5146673917770386, -0.5867434144020081, 9.50794506072998, 2.01480770111084, 0.6497918963432312, 0.6056613922119141, -2.0433242321014404, 2.367997884750366, -2.084228515625, 0.458984375, -0.2607421875, 0, 
16, 1031254576, 0.4364338517189026, -0.4477853775024414, -0.5146113634109497, -0.5866814851760864, 9.495942115783691, 2.0293307304382324, 0.6391038298606873, 0.8249703645706177, -1.8285746574401855, 2.1897220611572266, -2.081787109375, 0.45654296875, -0.25634765625, 0, 
17, 1031262909, 0.4364864230155945, -0.4478769898414612, -0.5145589113235474, -0.5866183638572693, 9.546635627746582, 2.043541669845581, 0.6792402267456055, 0.913134753704071, -1.7963262796401978, 2.1647489070892334, -2.0849609375, 0.460205078125, -0.25634765625, 0, 
18, 1031271242, 0.4365406632423401, -0.4479559659957886, -0.5145096778869629, -0.5865609645843506, 9.546913146972656, 2.026172637939453, 0.6496314406394958, 0.9842142462730408, -1.6609551906585693, 2.0262527465820312, -2.08251953125, 0.45703125, -0.26220703125, 0, 
19, 1031279575, 0.43659693002700806, -0.448024183511734, -0.5144623517990112, -0.5865085124969482, 9.517248153686523, 2.037705183029175, 0.6767114996910095, 1.0428966283798218, -1.5457167625427246, 1.9340412616729736, -2.08251953125, 0.4609375, -0.25634765625, 0, 
20, 1031287908, 0.43665358424186707, -0.4480854868888855, -0.5144237279891968, -0.5864534974098206, 9.508458137512207, 2.04158616065979, 0.6259671449661255, 1.173964500427246, -1.549943208694458, 1.8409336805343628, -2.0810546875, 0.4638671875, -0.261474609375, 0, 
21, 1031296241, 0.43669530749320984, -0.44814956188201904, -0.5143933296203613, -0.5864000916481018, 9.523889541625977, 2.0403902530670166, 0.6607052087783813, 1.1214553117752075, -1.7234281301498413, 1.6880165338516235, -2.076171875, 0.465087890625, -0.259033203125, 0, 
22, 1031304574, 0.43673190474510193, -0.448212593793869, -0.5143725872039795, -0.5863428115844727, 9.520363807678223, 2.041088819503784, 0.6836811900138855, 1.1984004974365234, -1.8266280889511108, 1.5960872173309326, -2.08056640625, 0.460205078125, -0.261474609375, 0, 
23, 1031312907, 0.4367702901363373, -0.44827717542648315, -0.5143532156944275, -0.5862818360328674, 9.503410339355469, 2.045006275177002, 0.6572426557540894, 1.2407150268554688, -1.865202784538269, 1.6420644521713257, -2.077392578125, 0.45947265625, -0.2578125, 0, 
24, 1031321240, 0.4368041753768921, -0.44834864139556885, -0.5143334865570068, -0.586219072341919, 9.557707786560059, 2.053513526916504, 0.671704888343811, 1.1814181804656982, -1.9530853033065796, 1.661761999130249, -2.081787109375, 0.462646484375, -0.2578125, 0, 
25, 1031329573, 0.43683314323425293, -0.44840380549430847, -0.5143130421638489, -0.586173415184021, 9.509806632995605, 2.0225727558135986, 0.6437533497810364, 1.1213527917861938, -1.7537811994552612, 1.4150967597961426, -2.07568359375, 0.455810546875, -0.2626953125, 0, 
26, 1031337906, 0.4368564486503601, -0.4484657645225525, -0.5142977237701416, -0.5861221551895142, 9.524856567382812, 2.024123430252075, 0.6600576043128967, 1.125784158706665, -1.9094645977020264, 1.4094618558883667, -2.079833984375, 0.4638671875, -0.25830078125, 0, 
27, 1031346239, 0.43687963485717773, -0.4485076367855072, -0.5142893195152283, -0.5860800743103027, 9.507501602172852, 2.0192387104034424, 0.6563770771026611, 1.2371290922164917, -1.7381563186645508, 1.178165078163147, -2.078125, 0.45947265625, -0.257080078125, 0, 
28, 1031354572, 0.4368991255760193, -0.44854843616485596, -0.514281153678894, -0.5860414505004883, 9.53237533569336, 2.0214505195617676, 0.6089743971824646, 1.1935594081878662, -1.7296013832092285, 1.1114399433135986, -2.079345703125, 0.465087890625, -0.259033203125, 0, 
29, 1031362905, 0.4369301497936249, -0.4485692083835602, -0.5142739415168762, -0.586008608341217, 9.56774616241455, 2.0411627292633057, 0.6286227703094482, 1.3572341203689575, -1.462162971496582, 1.0277070999145508, -2.076904296875, 0.45947265625, -0.25341796875, 0, 
30, 1031371238, 0.436971515417099, -0.44857561588287354, -0.5142533183097839, -0.5859909653663635, 9.577177047729492, 2.039234161376953, 0.594010055065155, 1.285130262374878, -1.0922677516937256, 0.9927180409431458, -2.077880859375, 0.4658203125, -0.258544921875, 0, 
31, 1031379571, 0.4370269477367401, -0.44857555627822876, -0.5142280459403992, -0.5859719514846802, 9.565962791442871, 2.038524627685547, 0.6015971302986145, 1.3900206089019775, -0.9285159707069397, 1.1073417663574219, -2.076171875, 0.458984375, -0.25830078125, 0, 
32, 1031387904, 0.4370923340320587, -0.4485740661621094, -0.5142009854316711, -0.5859482288360596, 9.55338191986084, 2.077094793319702, 0.6526128649711609, 1.4739327430725098, -0.8594857454299927, 1.208338975906372, -2.075927734375, 0.46826171875, -0.2578125, 0, 
33, 1031396237, 0.43715178966522217, -0.4486035406589508, -0.5141623020172119, -0.585915207862854, 9.543081283569336, 2.1085739135742188, 0.6716853976249695, 1.228240966796875, -1.1449819803237915, 1.5155045986175537, -2.07666015625, 0.467529296875, -0.25732421875, 0, 
34, 1031404570, 0.43721267580986023, -0.44865840673446655, -0.5141170620918274, -0.5858674049377441, 9.541500091552734, 2.094482421875, 0.6965402960777283, 1.134979486465454, -1.3817342519760132, 1.8265639543533325, -2.076171875, 0.4658203125, -0.260986328125, 0, 
35, 1031412903, 0.4372636675834656, -0.44873616099357605, -0.5140753984451294, -0.5858063101768494, 9.529901504516602, 2.050147294998169, 0.723406195640564, 1.0590590238571167, -1.7479923963546753, 1.9756132364273071, -2.079833984375, 0.465087890625, -0.259033203125, 0, 
36, 1031421236, 0.4373050928115845, -0.44882112741470337, -0.5140448808670044, -0.5857370495796204, 9.51422119140625, 2.0592095851898193, 0.6658386588096619, 1.1058560609817505, -1.984283685684204, 1.9225661754608154, -2.07861328125, 0.4658203125, -0.25390625, 0, 
37, 1031429569, 0.43734264373779297, -0.44891804456710815, -0.5140126943588257, -0.5856629014015198, 9.50422191619873, 2.0254619121551514, 0.7107914090156555, 1.0301403999328613, -2.134690284729004, 2.0223591327667236, -2.07861328125, 0.465087890625, -0.257080078125, 0, 
38, 1031437902, 0.43738290667533875, -0.44901400804519653, -0.5139796137809753, -0.5855883359909058, 9.551466941833496, 2.034475326538086, 0.6445029973983765, 1.0439209938049316, -2.0990355014801025, 2.0360372066497803, -2.07421875, 0.46435546875, -0.26171875, 0, 
39, 1031446235, 0.43741685152053833, -0.44910457730293274, -0.5139551162719727, -0.585515022277832, 9.538324356079102, 2.0115139484405518, 0.6407876014709473, 1.1013224124908447, -2.150007724761963, 1.8971565961837769, -2.079833984375, 0.46337890625, -0.256591796875, 0, 
40, 1031454568, 0.43745237588882446, -0.4491891860961914, -0.5139279961585999, -0.5854474902153015, 9.557480812072754, 2.0146963596343994, 0.6079927682876587, 1.0832899808883667, -2.0318236351013184, 1.840728521347046, -2.079345703125, 0.4638671875, -0.255126953125, 0, 
41, 1031462901, 0.4374789595603943, -0.44926097989082336, -0.5139021873474121, -0.585395097732544, 9.56210708618164, 2.0012776851654053, 0.6466759443283081, 1.0120055675506592, -1.9161752462387085, 1.5847399234771729, -2.079833984375, 0.4658203125, -0.254638671875, 0, 
42, 1031471234, 0.437497615814209, -0.4493343234062195, -0.5138691663742065, -0.5853539705276489, 9.595210075378418, 2.037968158721924, 0.6325544714927673, 0.8152371048927307, -1.861207127571106, 1.5039782524108887, -2.077392578125, 0.4658203125, -0.254638671875, 0, 
43, 1031479567, 0.43751412630081177, -0.4493958353996277, -0.5138173699378967, -0.5853400230407715, 9.618426322937012, 2.0417282581329346, 0.5897490382194519, 0.5295870900154114, -1.5086783170700073, 1.3628437519073486, -2.07666015625, 0.46630859375, -0.256591796875, 0, 
44, 1031487900, 0.4375372529029846, -0.4494362771511078, -0.513751208782196, -0.5853496193885803, 9.632769584655762, 2.0132534503936768, 0.5311558246612549, 0.41801151633262634, -1.0516437292099, 1.2045735120773315, -2.0791015625, 0.467529296875, -0.2578125, 0, 
45, 1031496233, 0.43759608268737793, -0.4494345188140869, -0.5136678814888, -0.5853801965713501, 9.596440315246582, 2.054067611694336, 0.528967022895813, 0.6040220856666565, -0.23595835268497467, 1.1842100620269775, -2.076171875, 0.467529296875, -0.255859375, 0, 
46, 1031504566, 0.43767350912094116, -0.44942957162857056, -0.5135636329650879, -0.5854175686836243, 9.5703763961792, 2.0311572551727295, 0.618484616279602, 0.5185985565185547, 0.09570758044719696, 1.391173005104065, -2.0791015625, 0.468994140625, -0.259033203125, 0, 
47, 1031512899, 0.4377557039260864, -0.44942814111709595, -0.5134649276733398, -0.5854437947273254, 9.523172378540039, 2.039618492126465, 0.6956714987754822, 0.6526890993118286, -0.007069529499858618, 1.494808316230774, -2.0791015625, 0.4658203125, -0.26025390625, 0, 
48, 1031521232, 0.43783310055732727, -0.4494517743587494, -0.5133639574050903, -0.585456132888794, 9.50184154510498, 2.0410168170928955, 0.6975299119949341, 0.5486184358596802, -0.30842098593711853, 1.7204697132110596, -2.07861328125, 0.47021484375, -0.258544921875, 0, 
49, 1031529565, 0.4378843605518341, -0.4495071768760681, -0.5132745504379272, -0.5854537487030029, 9.523066520690918, 2.048950433731079, 0.736619770526886, 0.3960089087486267, -0.915939450263977, 1.7621185779571533, -2.07666015625, 0.467529296875, -0.264892578125, 0, 
50, 1031537898, 0.43791916966438293, -0.44959911704063416, -0.5131803750991821, -0.5854397416114807, 9.556422233581543, 2.0502383708953857, 0.7433635592460632, 0.12203903496265411, -1.3620370626449585, 1.97858464717865, -2.07861328125, 0.46826171875, -0.26025390625, 0, 
51, 1031546231, 0.43793320655822754, -0.4497097134590149, -0.5130847692489624, -0.5854281783103943, 9.590584754943848, 2.0231869220733643, 0.6707501411437988, -0.15212292969226837, -1.6421542167663574, 1.9446966648101807, -2.08056640625, 0.4658203125, -0.26025390625, 0, 
52, 1031554564, 0.4379424452781677, -0.4498274028301239, -0.5129741430282593, -0.5854278206825256, 9.636382102966309, 2.0119216442108154, 0.5881343483924866, -0.41804996132850647, -1.566361665725708, 1.9741274118423462, -2.07666015625, 0.46826171875, -0.2578125, 0, 
53, 1031562897, 0.43795710802078247, -0.4499216079711914, -0.5128503441810608, -0.5854529142379761, 9.641024589538574, 2.0073304176330566, 0.5561478734016418, -0.5333908200263977, -1.1103001832962036, 1.789013385772705, -2.080322265625, 0.47021484375, -0.25732421875, 0, 
54, 1031571230, 0.43795332312583923, -0.44999974966049194, -0.5126929879188538, -0.5855334401130676, 9.67223834991455, 2.021355390548706, 0.5427201390266418, -1.2143964767456055, -0.557980477809906, 1.3909682035446167, -2.075439453125, 0.467529296875, -0.259033203125, 0, 
55, 1031579563, 0.4379619359970093, -0.450047105550766, -0.5124794244766235, -0.5856776833534241, 9.678698539733887, 2.038450241088867, 0.5131912231445312, -1.8526006937026978, 0.502845823764801, 1.247887134552002, -2.07666015625, 0.469482421875, -0.26171875, 0, 
56, 1031587896, 0.43796995282173157, -0.45007139444351196, -0.5122355222702026, -0.5858659744262695, 9.628274917602539, 1.999130368232727, 0.5266233682632446, -2.275850534439087, 1.1459681987762451, 0.9937170743942261, -2.080322265625, 0.47021484375, -0.26220703125, 0, 
57, 1031596229, 0.4379790425300598, -0.45008283853530884, -0.5119780898094177, -0.586075484752655, 9.606902122497559, 2.043261766433716, 0.6116870641708374, -2.4456982612609863, 1.4628417491912842, 0.8754048943519592, -2.077880859375, 0.47021484375, -0.258544921875, 0, 
58, 1031604562, 0.43795302510261536, -0.45009762048721313, -0.5117106437683105, -0.5863171815872192, 9.542929649353027, 2.0343945026397705, 0.6680142283439636, -2.994253396987915, 1.4560284614562988, 0.4776414930820465, -2.077880859375, 0.470703125, -0.259033203125, 0, 
59, 1031612895, 0.4379141926765442, -0.4501437544822693, -0.5114317536354065, -0.5865539312362671, 9.499164581298828, 1.986063003540039, 0.6924613118171692, -3.3162240982055664, 1.1438933610916138, 0.7030467987060547, -2.0810546875, 0.467041015625, -0.257080078125, 0, 
60, 1031621228, 0.4378352165222168, -0.45020705461502075, -0.5111715793609619, -0.5867912173271179, 9.472686767578125, 2.0072011947631836, 0.7327216267585754, -3.5225722789764404, 0.6216191053390503, 0.372648686170578, -2.07666015625, 0.471435546875, -0.262451171875, 0, 
61, 1031629561, 0.4376915395259857, -0.4503251910209656, -0.5108961462974548, -0.5870475769042969, 9.496498107910156, 2.022796869277954, 0.7094734907150269, -4.50966739654541, -0.07415321469306946, 0.22357386350631714, -2.080322265625, 0.4677734375, -0.258544921875, 0, 
62, 1031637894, 0.43749308586120605, -0.4504852890968323, -0.510584831237793, -0.5873434543609619, 9.556051254272461, 2.034383773803711, 0.634682297706604, -5.667789936065674, -0.3287074863910675, 0.05434060096740723, -2.0810546875, 0.46630859375, -0.25830078125, 0, 
63, 1031646227, 0.4372425079345703, -0.4506726562976837, -0.510240912437439, -0.5876849293708801, 9.543173789978027, 2.0001535415649414, 0.6735042333602905, -6.738439083099365, -0.4420504868030548, -0.24141418933868408, -2.080322265625, 0.46630859375, -0.26220703125, 0, 
64, 1031654560, 0.43696147203445435, -0.45087870955467224, -0.5098803639411926, -0.5880487561225891, 9.513450622558594, 1.9991430044174194, 0.6794572472572327, -7.330665588378906, -0.5636155605316162, -0.3969181776046753, -2.07861328125, 0.470703125, -0.258544921875, 0, 
65, 1031662893, 0.43664467334747314, -0.45108819007873535, -0.5095169544219971, -0.5884383320808411, 9.546111106872559, 1.9679186344146729, 0.6542638540267944, -7.777328014373779, -0.6715028285980225, -0.7884831428527832, -2.077880859375, 0.471435546875, -0.260498046875, 0, 
66, 1031671226, 0.4363129734992981, -0.4512845277786255, -0.5091391801834106, -0.5888606309890747, 9.502581596374512, 1.9704099893569946, 0.6903859972953796, -8.133159637451172, -0.37227725982666016, -1.12044358253479, -2.077880859375, 0.467041015625, -0.259765625, 0, 
67, 1031679559, 0.4359714984893799, -0.45145606994628906, -0.5087571740150452, -0.5893120765686035, 9.518031120300293, 1.970280408859253, 0.6176419854164124, -8.286588668823242, -0.04216102883219719, -1.5094726085662842, -2.08349609375, 0.46826171875, -0.256591796875, 0, 
68, 1031687892, 0.4356245696544647, -0.4516002833843231, -0.5083691477775574, -0.5897929668426514, 9.415665626525879, 1.9177788496017456, 0.7508324384689331, -8.412611961364746, 0.3666805922985077, -1.8938652276992798, -2.075439453125, 0.470703125, -0.25927734375, 0, 
69, 1031696225, 0.4352784752845764, -0.4517161250114441, -0.5080075860023499, -0.5902711749076843, 9.418252944946289, 1.906477451324463, 0.7566922307014465, -8.001861572265625, 0.4209059178829193, -2.2251596450805664, -2.081787109375, 0.466552734375, -0.257080078125, 0, 
70, 1031704558, 0.43500909209251404, -0.45176833868026733, -0.5076743960380554, -0.5907161831855774, 9.553560256958008, 2.002453088760376, 0.6745705604553223, -6.679809093475342, 1.106752872467041, -2.032771587371826, -2.07666015625, 0.467041015625, -0.26171875, 0, 
71, 1031712891, 0.43484392762184143, -0.4517819285392761, -0.5073558688163757, -0.5911008715629578, 9.566941261291504, 2.0713772773742676, 0.662747859954834, -5.263853073120117, 1.6754142045974731, -1.1784597635269165, -2.07666015625, 0.465087890625, -0.254638671875, 0, 
72, 1031721224, 0.43471628427505493, -0.4518086016178131, -0.5070594549179077, -0.5914285778999329, 9.522452354431152, 2.0295608043670654, 0.7993006110191345, -4.532156944274902, 1.3539044857025146, -0.5866941213607788, -2.077880859375, 0.4658203125, -0.259765625, 0, 
73, 1031729557, 0.43459436297416687, -0.4518517851829529, -0.5067976117134094, -0.5917096138000488, 9.53952693939209, 2.042412042617798, 0.8069962859153748, -3.9884438514709473, 0.7531737089157104, -0.3520420491695404, -2.07666015625, 0.46630859375, -0.25537109375, 0, 
74, 1031737890, 0.43445414304733276, -0.4519507884979248, -0.5065386295318604, -0.5919587016105652, 9.54617977142334, 2.0736491680145264, 0.8208878040313721, -4.19000244140625, -0.03434869274497032, 0.05098513886332512, -2.077880859375, 0.467041015625, -0.26416015625, 0, 
75, 1031746223, 0.43428489565849304, -0.45211261510849, -0.5062753558158875, -0.5921845436096191, 9.616013526916504, 2.105808734893799, 0.7807011604309082, -4.61973237991333, -0.8743932247161865, 0.42784741520881653, -2.079833984375, 0.46337890625, -0.26025390625, 0, 
76, 1031754556, 0.43408599495887756, -0.45234161615371704, -0.5060082674026489, -0.5923835635185242, 9.61377239227295, 2.1166043281555176, 0.6908385753631592, -5.046772480010986, -1.7664856910705566, 0.8289918899536133, -2.079833984375, 0.46826171875, -0.26025390625, 0, 
77, 1031762889, 0.4338822364807129, -0.45259562134742737, -0.5057390928268433, -0.5925686955451965, 9.55432415008545, 2.038027048110962, 0.7380021810531616, -5.149716377258301, -2.08236026763916, 1.0685617923736572, -2.079833984375, 0.4658203125, -0.26025390625, 0, 
78, 1031771222, 0.4336758553981781, -0.452831506729126, -0.5054879188537598, -0.5927540063858032, 9.419675827026367, 1.9564576148986816, 0.843576967716217, -4.913168907165527, -2.0530834197998047, 0.7991257309913635, -2.07666015625, 0.465087890625, -0.26025390625, 0, 
79, 1031779555, 0.4334931969642639, -0.4530424475669861, -0.5052462220191956, -0.5929324626922607, 9.400679588317871, 1.9460383653640747, 0.683988094329834, -4.489278793334961, -1.792202353477478, 0.8102422952651978, -2.079345703125, 0.465087890625, -0.258544921875, 0, 
80, 1031787888, 0.4333800971508026, -0.4531936049461365, -0.5049816370010376, -0.5931247472763062, 9.34748649597168, 1.8616362810134888, 0.738895058631897, -3.9826035499572754, -0.5908435583114624, 1.0132607221603394, -2.076171875, 0.462646484375, -0.255859375, 0, 
81, 1031796221, 0.43333256244659424, -0.45325344800949097, -0.5047512650489807, -0.5933099389076233, 9.171168327331543, 1.7812871932983398, 1.0060163736343384, -2.7014565467834473, 0.3523366451263428, 0.7510991096496582, -2.0791015625, 0.468994140625, -0.259765625, 0, 
82, 1031804554, 0.43333297967910767, -0.45323890447616577, -0.5045849680900574, -0.5934621095657349, 9.215271949768066, 1.8003352880477905, 0.9617929458618164, -1.2072244882583618, 0.7153672575950623, 0.4136826992034912, -2.07421875, 0.467529296875, -0.256591796875, 0, 
83, 1031812887, 0.43339866399765015, -0.453124076128006, -0.5044683814048767, -0.5936010479927063, 9.326027870178223, 1.8332663774490356, 0.8588634133338928, 0.29449960589408875, 1.5976237058639526, 0.029315492138266563, -2.081787109375, 0.468994140625, -0.2578125, 0, 
84, 1031821220, 0.43350404500961304, -0.4529415965080261, -0.5044203996658325, -0.5937040448188782, 9.330714225769043, 1.8458186388015747, 0.8878162503242493, 1.7550747394561768, 1.8022818565368652, -0.33721140027046204, -2.0791015625, 0.46826171875, -0.262939453125, 0, 
85, 1031829553, 0.4336469769477844, -0.45271146297454834, -0.5044479966163635, -0.5937519073486328, 9.234121322631836, 1.8360761404037476, 1.0337375402450562, 3.2721798419952393, 1.6479301452636719, -0.4962758421897888, -2.075927734375, 0.467041015625, -0.26416015625, 0, 
86, 1031837886, 0.4337964951992035, -0.4524689316749573, -0.5045748949050903, -0.5937196612358093, 9.183877944946289, 1.8939893245697021, 1.0968600511550903, 4.747714042663574, 0.7112177014350891, -0.6761133670806885, -2.077392578125, 0.462646484375, -0.261474609375, 0, 
87, 1031846219, 0.43395906686782837, -0.4522245228290558, -0.5047677755355835, -0.5936231017112732, 9.324913024902344, 1.9229531288146973, 1.0180102586746216, 5.829967021942139, 0.01745610311627388, -0.6019602417945862, -2.079833984375, 0.465087890625, -0.261474609375, 0, 
88, 1031854552, 0.434144526720047, -0.45199286937713623, -0.5050472021102905, -0.5934261083602905, 9.38977336883545, 1.9516785144805908, 1.0346877574920654, 7.298328876495361, -1.0644766092300415, -0.2740723490715027, -2.075927734375, 0.467529296875, -0.263671875, 0, 
89, 1031862885, 0.4343316853046417, -0.45182421803474426, -0.5053904056549072, -0.5931253433227539, 9.464654922485352, 2.076695442199707, 0.9987322688102722, 8.176664352416992, -2.5986154079437256, 0.41027596592903137, -2.079833984375, 0.463134765625, -0.262939453125, 0, 
90, 1031871218, 0.4345206916332245, -0.451748788356781, -0.5057492256164551, -0.5927383303642273, 9.706119537353516, 2.1237854957580566, 0.7887825965881348, 8.357041358947754, -3.9682350158691406, 1.482385516166687, -2.079833984375, 0.465087890625, -0.260986328125, 0, 
91, 1031879551, 0.4346993863582611, -0.4517410695552826, -0.5060868263244629, -0.59232497215271, 9.887802124023438, 2.177090644836426, 0.49600324034690857, 7.898444652557373, -4.635127067565918, 2.1653382778167725, -2.079833984375, 0.4658203125, -0.259033203125, 0, 
92, 1031887884, 0.4349847137928009, -0.4517240822315216, -0.5063629150390625, -0.5918923020362854, 9.73721694946289, 2.0888869762420654, 0.5857422351837158, 8.248618125915527, -3.562556505203247, 3.4597537517547607, -2.08349609375, 0.46630859375, -0.26220703125, 0, 
93, 1031896217, 0.4353923201560974, -0.45169007778167725, -0.5066022872924805, -0.591413676738739, 9.445375442504883, 1.9728468656539917, 0.7115442752838135, 9.132743835449219, -2.646667957305908, 4.847686767578125, -2.07666015625, 0.467529296875, -0.26171875, 0, 
94, 1031904550, 0.43583667278289795, -0.45166364312171936, -0.5068886280059814, -0.5908609628677368, 9.216443061828613, 1.8857108354568481, 1.2388571500778198, 10.2146635055542, -3.1865391731262207, 5.342809200286865, -2.0810546875, 0.467529296875, -0.265380859375, 0, 
95, 1031912883, 0.4361952245235443, -0.45176178216934204, -0.507238507270813, -0.5902206897735596, 9.513680458068848, 2.129603624343872, 0.9234597086906433, 10.061617851257324, -5.7276506423950195, 5.6518964767456055, -2.077880859375, 0.46630859375, -0.263427734375, 0, 
96, 1031921216, 0.43643420934677124, -0.45201149582862854, -0.5075657367706299, -0.5895712375640869, 9.75810718536377, 2.2174088954925537, 0.8586413264274597, 8.284581184387207, -7.705659866333008, 5.9270453453063965, -2.0791015625, 0.469482421875, -0.265380859375, 0, 
97, 1031929549, 0.43643665313720703, -0.45246124267578125, -0.5078232884407043, -0.5890024304389954, 10.406259536743164, 2.4816837310791016, 0.23998910188674927, 4.489599704742432, -10.0650634765625, 5.362327575683594, -2.0771484375, 0.470703125, -0.260498046875, 0, 
98, 1031937882, 0.436487078666687, -0.45286300778388977, -0.5078795552253723, -0.5886075496673584, 10.50564193725586, 2.178011894226074, -0.2630651891231537, 2.230679988861084, -7.048936367034912, 5.616677284240723, -2.075927734375, 0.47314453125, -0.25732421875, 0, 
99, 1031946215, 0.43662333488464355, -0.4531170427799225, -0.5077850222587585, -0.588392436504364, 9.919503211975098, 1.938684344291687, 0.15984950959682465, 1.1781907081604004, -3.2330801486968994, 5.148653030395508, -2.078369140625, 0.475830078125, -0.259765625, 0, 
100, 1031954548, 0.4367830753326416, -0.4532366991043091, -0.507626473903656, -0.5883186459541321, 9.701299667358398, 1.9139875173568726, 0.49572640657424927, 0.6243340373039246, -0.706261157989502, 3.9422988891601562, -2.08203125, 0.478271484375, -0.259765625, 0, 
101, 1031962881, 0.43691542744636536, -0.4533116817474365, -0.5074317455291748, -0.5883306264877319, 9.532021522521973, 1.9183839559555054, 0.7065762877464294, -0.16787570714950562, 0.20579758286476135, 3.127101182937622, -2.07958984375, 0.47509765625, -0.258544921875, 0, 
102, 1031971214, 0.43699854612350464, -0.4533947706222534, -0.5072427988052368, -0.588367760181427, 9.466172218322754, 1.936204433441162, 0.787359893321991, -0.6581321358680725, -0.0756644532084465, 2.587998151779175, -2.080810546875, 0.475830078125, -0.260498046875, 0, 
103, 1031979547, 0.4370448589324951, -0.45349422097206116, -0.5070657730102539, -0.5884093642234802, 9.418821334838867, 1.9090125560760498, 0.8575232028961182, -0.9164261221885681, -0.5130531191825867, 2.313797950744629, -2.07958984375, 0.475830078125, -0.2578125, 0, 
104, 1031987880, 0.43705829977989197, -0.45362356305122375, -0.5069226026535034, -0.5884230136871338, 9.333854675292969, 1.8772650957107544, 0.9709264039993286, -0.8329748511314392, -1.355530858039856, 2.2027089595794678, -2.077880859375, 0.47509765625, -0.258544921875, 0, 
105, 1031996213, 0.4370211958885193, -0.45378944277763367, -0.50682133436203, -0.5884099006652832, 9.457620620727539, 1.8849791288375854, 0.7836092114448547, -0.8396090865135193, -2.4303555488586426, 1.95722234249115, -2.073974609375, 0.476318359375, -0.26123046875, 0, 
106, 1032004546, 0.43697887659072876, -0.4539265036582947, -0.5067381262779236, -0.5884073376655579, 9.443154335021973, 1.8484615087509155, 0.7430628538131714, -0.6238090991973877, -2.2661170959472656, 1.5306169986724854, -2.078369140625, 0.473876953125, -0.2578125, 0, 
107, 1032012879, 0.4369359314441681, -0.4540237784385681, -0.5066713690757751, -0.588421642780304, 9.351780891418457, 1.7915655374526978, 0.8219471573829651, -0.3758377134799957, -1.9521634578704834, 1.0530141592025757, -2.080322265625, 0.475830078125, -0.260986328125, 0, 
108, 1032021212, 0.436886727809906, -0.45407727360725403, -0.5066372752189636, -0.5884460806846619, 9.25369930267334, 1.8159258365631104, 0.9125168323516846, 0.039381884038448334, -1.766383171081543, 0.4228013753890991, -2.0771484375, 0.47705078125, -0.256591796875, 0, 
109, 1032029545, 0.4368165135383606, -0.454145222902298, -0.5066355466842651, -0.5884472131729126, 9.334498405456543, 1.8608301877975464, 0.8904951810836792, 0.24724143743515015, -2.376616954803467, 0.2997506260871887, -2.076416015625, 0.476318359375, -0.25927734375, 0, 
110, 1032037878, 0.43675053119659424, -0.4541848599910736, -0.5066563487052917, -0.5884475111961365, 9.475915908813477, 1.8884358406066895, 0.6495570540428162, 0.6284067630767822, -2.2534632682800293, -0.00660847220569849, -2.077880859375, 0.478271484375, -0.256103515625, 0, 
111, 1032046211, 0.43668895959854126, -0.4542233347892761, -0.5066958069801331, -0.5884296298027039, 9.374776840209961, 1.8731577396392822, 0.8417903780937195, 0.9448962807655334, -2.4451091289520264, 0.021144550293684006, -2.07958984375, 0.478271484375, -0.256103515625, 0, 
112, 1032054544, 0.43660399317741394, -0.4542778432369232, -0.5067883729934692, -0.5883708596229553, 9.43667221069336, 1.8671808242797852, 0.8552687168121338, 1.4150198698043823, -3.3026740550994873, -0.1507909893989563, -2.077880859375, 0.475830078125, -0.25341796875, 0, 
113, 1032062877, 0.4365038573741913, -0.454338937997818, -0.506916880607605, -0.588287353515625, 9.470170021057129, 1.9120850563049316, 0.7373110055923462, 1.7456998825073242, -3.8414695262908936, -0.2944612503051758, -2.080810546875, 0.4765625, -0.254638671875, 0, 
114, 1032071210, 0.4363997280597687, -0.4543952941894531, -0.5070675015449524, -0.588191032409668, 9.534330368041992, 1.9253413677215576, 0.7742303609848022, 2.00980806350708, -4.036189079284668, -0.4323171079158783, -2.075439453125, 0.473388671875, -0.254150390625, 0, 
115, 1032079543, 0.43626266717910767, -0.4544570744037628, -0.507210373878479, -0.588121771812439, 9.686051368713379, 2.003389596939087, 0.6862891316413879, 1.528414249420166, -4.102504253387451, -0.7633298635482788, -2.0791015625, 0.4765625, -0.2509765625, 0, 
116, 1032087876, 0.43615174293518066, -0.4544786214828491, -0.5072978734970093, -0.5881122350692749, 9.740758895874023, 1.9392368793487549, 0.523791491985321, 1.0665128231048584, -2.8809611797332764, -0.8546957969665527, -2.07666015625, 0.47265625, -0.25146484375, 0, 
117, 1032096209, 0.43605145812034607, -0.4544711410999298, -0.5073378086090088, -0.5881580114364624, 9.678707122802734, 1.9722405672073364, 0.5578231811523438, 0.5379886031150818, -1.9480139017105103, -0.9959326386451721, -2.080810546875, 0.4794921875, -0.256591796875, 0, 
118, 1032104542, 0.4359753429889679, -0.4544357359409332, -0.5073392391204834, -0.5882405638694763, 9.712831497192383, 1.9725109338760376, 0.5907676219940186, 0.28855714201927185, -1.0870680809020996, -0.9839453101158142, -2.0751953125, 0.47509765625, -0.25732421875, 0, 
119, 1032112875, 0.43594875931739807, -0.45438915491104126, -0.5073257684707642, -0.5883078575134277, 9.704390525817871, 1.9863804578781128, 0.5272076725959778, 0.6515620946884155, -0.664074718952179, -0.46856123208999634, -2.078369140625, 0.47509765625, -0.256591796875, 0, 
120, 1032121208, 0.4359913170337677, -0.4543101191520691, -0.5073195099830627, -0.5883426666259766, 9.626510620117188, 2.015993118286133, 0.5681503415107727, 1.5560518503189087, -0.15704087913036346, 0.00526372529566288, -2.078369140625, 0.47509765625, -0.2529296875, 0, 
121, 1032129541, 0.4360465705394745, -0.45426109433174133, -0.5073376893997192, -0.5883238315582275, 9.511865615844727, 1.9782201051712036, 0.8587722182273865, 2.0325024127960205, -0.7983700633049011, 0.4947517514228821, -2.080322265625, 0.470947265625, -0.252197265625, 0, 
122, 1032137874, 0.43608558177948, -0.45428991317749023, -0.5073997974395752, -0.588219165802002, 9.48192310333252, 2.099787712097168, 0.8605831265449524, 2.418790817260742, -2.337631940841675, 1.1381556987762451, -2.078369140625, 0.476318359375, -0.25341796875, 0, 
123, 1032146207, 0.4361017942428589, -0.4544275403022766, -0.5074816346168518, -0.588030219078064, 9.587308883666992, 2.0856590270996094, 0.7178177833557129, 2.372915744781494, -4.027736186981201, 2.105015993118286, -2.075927734375, 0.47509765625, -0.2529296875, 0, 
124, 1032154540, 0.436106413602829, -0.4546300768852234, -0.5075843930244446, -0.5877813696861267, 9.5674467086792, 1.9637502431869507, 0.6973467469215393, 2.500807762145996, -5.12236213684082, 2.684077739715576, -2.077880859375, 0.477783203125, -0.252197265625, 0, 
125, 1032162873, 0.43613362312316895, -0.4548204243183136, -0.507749080657959, -0.587471604347229, 9.473538398742676, 1.892546534538269, 0.7413234710693359, 3.6384897232055664, -5.62849760055542, 2.766094207763672, -2.080322265625, 0.475341796875, -0.2509765625, 0, 
126, 1032171206, 0.4362216591835022, -0.4549538493156433, -0.5079590082168579, -0.5871214270591736, 9.536467552185059, 1.8927875757217407, 0.5358022451400757, 5.009799003601074, -5.261907577514648, 2.815120220184326, -2.0771484375, 0.477783203125, -0.251708984375, 0, 
127, 1032179539, 0.436376690864563, -0.45504599809646606, -0.508200466632843, -0.586725652217865, 9.470817565917969, 1.8874187469482422, 0.6351155638694763, 6.247452735900879, -4.9411396980285645, 3.1486170291900635, -2.077880859375, 0.477783203125, -0.250244140625, 0, 
128, 1032187872, 0.43655166029930115, -0.45513787865638733, -0.5084906816482544, -0.5862728357315063, 9.370265007019043, 1.85148024559021, 0.8637296557426453, 7.164468765258789, -5.4399518966674805, 3.3391878604888916, -2.080322265625, 0.473388671875, -0.25146484375, 0, 
129, 1032196205, 0.4366717040538788, -0.45527493953704834, -0.5088412761688232, -0.5857726335525513, 9.346343994140625, 1.8794270753860474, 0.9257009029388428, 7.3710479736328125, -6.857290744781494, 3.1255648136138916, -2.082763671875, 0.478271484375, -0.250244140625, 0, 
130, 1032204538, 0.43670207262039185, -0.45548728108406067, -0.5092030167579651, -0.5852701663970947, 9.347173690795898, 1.9211126565933228, 0.9515265226364136, 6.462433815002441, -8.164332389831543, 2.8676037788391113, -2.07470703125, 0.478271484375, -0.245849609375, 0, 
131, 1032212871, 0.43663302063941956, -0.4557984471321106, -0.5095605850219727, -0.5847680568695068, 9.599016189575195, 2.04707932472229, 0.8910795450210571, 5.208590984344482, -9.635589599609375, 2.7893006801605225, -2.0771484375, 0.478271484375, -0.25048828125, 0, 
132, 1032221204, 0.4365231990814209, -0.45615729689598083, -0.5097969174385071, -0.5843642950057983, 10.02807903289795, 2.1334614753723145, 0.17626246809959412, 3.004460334777832, -8.954045295715332, 2.9567408561706543, -2.075927734375, 0.482666015625, -0.244140625, 0, 
133, 1032229537, 0.43649929761886597, -0.45639216899871826, -0.5098752975463867, -0.5841304063796997, 9.967365264892578, 1.9023133516311646, 0.050878409296274185, 1.8253860473632812, -5.34722900390625, 2.7581799030303955, -2.075927734375, 0.478271484375, -0.245849609375, 0, 
134, 1032237870, 0.4365791976451874, -0.45644092559814453, -0.5098056793212891, -0.5840932130813599, 9.937897682189941, 1.8741427659988403, -0.007953880354762077, 1.0314980745315552, -0.9958814978599548, 2.02653431892395, -2.0771484375, 0.47705078125, -0.24853515625, 0, 
135, 1032246203, 0.4367452561855316, -0.4563143849372864, -0.5096210837364197, -0.5842291712760925, 9.797745704650879, 1.7904813289642334, 0.28036728501319885, 0.48227763175964355, 2.785996675491333, 1.1807010173797607, -2.080322265625, 0.482177734375, -0.25048828125, 0, 
136, 1032254536, 0.4369460940361023, -0.45608586072921753, -0.5093892812728882, -0.5844595432281494, 9.535870552062988, 1.8621387481689453, 0.4990949034690857, 0.2692440450191498, 4.733625888824463, 0.46603822708129883, -2.078369140625, 0.480224609375, -0.247314453125, 0, 
137, 1032262869, 0.4371255040168762, -0.4558466076850891, -0.5091384053230286, -0.5847305655479431, 9.551362037658691, 1.9230856895446777, 0.6417418122291565, -0.23675237596035004, 5.032543182373047, 0.10354553908109665, -2.080810546875, 0.4814453125, -0.245849609375, 0, 
138, 1032271202, 0.43728765845298767, -0.4556194841861725, -0.508876383304596, -0.5850139260292053, 9.573664665222168, 1.9224140644073486, 0.6975184082984924, -0.5958383083343506, 4.963642120361328, 0.03382359817624092, -2.07763671875, 0.482666015625, -0.249755859375, 0, 
139, 1032279535, 0.43744808435440063, -0.45541346073150635, -0.5086113810539246, -0.5852848291397095, 9.611978530883789, 2.0029332637786865, 0.6803420186042786, -0.6681216955184937, 4.716105937957764, 0.27108824253082275, -2.069580078125, 0.480712890625, -0.24658203125, 0, 
140, 1032287868, 0.43762490153312683, -0.4552190899848938, -0.5083051919937134, -0.5855697989463806, 9.866010665893555, 2.036412239074707, 0.37416744232177734, -1.0667816400527954, 5.080852508544922, 0.6502044796943665, -2.0771484375, 0.4814453125, -0.247802734375, 0, 
141, 1032296201, 0.4378422498703003, -0.4549979865550995, -0.507925808429718, -0.5859082341194153, 9.865988731384277, 1.987878680229187, 0.3568103015422821, -1.6126465797424316, 6.345401763916016, 0.9339591264724731, -2.0751953125, 0.478271484375, -0.2509765625, 0, 
142, 1032304534, 0.438064843416214, -0.4547605812549591, -0.5075019598007202, -0.5862933993339539, 9.755114555358887, 1.9059711694717407, 0.5029290914535522, -2.1714725494384766, 7.081324577331543, 0.8495858311653137, -2.07958984375, 0.48095703125, -0.2509765625, 0, 
143, 1032312867, 0.43828362226486206, -0.4544660151004791, -0.5070452690124512, -0.586753249168396, 9.692679405212402, 1.8042973279953003, 0.4112509787082672, -2.6329128742218018, 8.174514770507812, 0.18599776923656464, -2.076416015625, 0.480224609375, -0.2568359375, 0, 
144, 1032321200, 0.43849194049835205, -0.4540868401527405, -0.506548285484314, -0.5873202681541443, 9.465987205505371, 1.7400747537612915, 0.5359669327735901, -3.262997627258301, 9.70137882232666, -0.8932708501815796, -2.0732421875, 0.480712890625, -0.25927734375, 0, 
145, 1032329533, 0.4386739730834961, -0.45360323786735535, -0.506029486656189, -0.5880048871040344, 9.336187362670898, 1.6713695526123047, 0.7812356352806091, -3.7913689613342285, 11.222737312316895, -2.395110845565796, -2.07763671875, 0.478271484375, -0.26171875, 0, 
146, 1032337866, 0.43886876106262207, -0.4529839754104614, -0.505510687828064, -0.5887827277183533, 9.406717300415039, 1.6785351037979126, 0.6059654951095581, -3.546727418899536, 12.997140884399414, -3.809145212173462, -2.080810546875, 0.47705078125, -0.264892578125, 0, 
147, 1032346199, 0.439089298248291, -0.45223575830459595, -0.5050050616264343, -0.5896268486976624, 9.131534576416016, 1.7488261461257935, 0.9624857306480408, -2.955857992172241, 14.544855117797852, -4.967497825622559, -2.080810546875, 0.475830078125, -0.263671875, 0, 
148, 1032354532, 0.43924251198768616, -0.4514996409416199, -0.5045640468597412, -0.5904536843299866, 9.023167610168457, 1.7813377380371094, 1.2746057510375977, -2.806373119354248, 13.48988151550293, -5.739050388336182, -2.078369140625, 0.478271484375, -0.263671875, 0, 
149, 1032362865, 0.4393016993999481, -0.4508432447910309, -0.5042016506195068, -0.591220498085022, 9.295531272888184, 1.887675166130066, 1.1682262420654297, -2.8154399394989014, 11.33482551574707, -6.062505722045898, -2.075927734375, 0.46875, -0.267333984375, 0, 
150, 1032371198, 0.4393094778060913, -0.4502643346786499, -0.5038870573043823, -0.5919236540794373, 9.532771110534668, 2.0362911224365234, 0.9673985242843628, -2.7729203701019287, 9.674407958984375, -5.867556095123291, -2.078369140625, 0.474365234375, -0.273681640625, 0, 
151, 1032379531, 0.4392675757408142, -0.44977062940597534, -0.5036122798919678, -0.5925635695457458, 9.564846992492676, 2.0301384925842285, 0.9126709699630737, -2.830860137939453, 7.994524002075195, -5.536876201629639, -2.07958984375, 0.46875, -0.2724609375, 0, 
152, 1032387864, 0.4392276406288147, -0.4493095278739929, -0.5033764243125916, -0.5931429266929626, 9.494194030761719, 1.9053541421890259, 0.890680193901062, -2.2808964252471924, 7.139930248260498, -5.1764068603515625, -2.069091796875, 0.47119140625, -0.2744140625, 0, 
153, 1032396197, 0.43924054503440857, -0.4487943947315216, -0.5031933784484863, -0.5936782956123352, 9.445655822753906, 1.90054452419281, 0.8989080786705017, -0.8909911513328552, 7.348429203033447, -5.172513008117676, -2.0791015625, 0.468017578125, -0.27490234375, 0, 
154, 1032404530, 0.43925946950912476, -0.4482887387275696, -0.5030657649040222, -0.5941544771194458, 9.316490173339844, 1.9693349599838257, 1.1459319591522217, -0.0490768700838089, 6.621855735778809, -5.051203727722168, -2.080322265625, 0.466796875, -0.2880859375, 0, 
155, 1032412863, 0.43925076723098755, -0.4478568732738495, -0.5030034780502319, -0.5945390462875366, 9.338997840881348, 1.954573154449463, 1.1446999311447144, 0.5017699599266052, 4.859903812408447, -4.6088972091674805, -2.078369140625, 0.466796875, -0.28369140625, 0, 
156, 1032421196, 0.43921947479248047, -0.447448194026947, -0.5029950737953186, -0.5948770642280579, 9.299592018127441, 1.9377988576889038, 1.1377615928649902, 0.9862377047538757, 3.9094371795654297, -4.6892499923706055, -2.077880859375, 0.468017578125, -0.284423828125, 0, 
157, 1032429529, 0.4391644597053528, -0.44705379009246826, -0.5030288696289062, -0.5951855182647705, 9.358860969543457, 1.9368897676467896, 1.0220383405685425, 1.3026759624481201, 3.1837852001190186, -4.858508110046387, -2.080322265625, 0.46435546875, -0.282470703125, 0, 
158, 1032437862, 0.4391254782676697, -0.4466477632522583, -0.5030762553215027, -0.5954791307449341, 9.563275337219238, 1.9422944784164429, 0.8676242828369141, 1.682253360748291, 3.22548508644104, -4.80917501449585, -2.082763671875, 0.46435546875, -0.284423828125, 0, 
159, 1032446195, 0.4391227662563324, -0.44618546962738037, -0.5031192302703857, -0.5957914590835571, 9.656006813049316, 1.9941203594207764, 0.7038726806640625, 2.0824499130249023, 4.069141387939453, -4.9788689613342285, -2.07666015625, 0.461669921875, -0.2880859375, 0, 
160, 1032454528, 0.4391627609729767, -0.44566643238067627, -0.5031565427780151, -0.5961185693740845, 9.530645370483398, 1.9617283344268799, 0.8026859164237976, 2.5340802669525146, 4.9614644050598145, -5.086064338684082, -2.077880859375, 0.4599609375, -0.2861328125, 0, 
161, 1032462861, 0.4392520785331726, -0.44509756565093994, -0.5031852126121521, -0.5964535474777222, 9.43469524383545, 2.041292190551758, 0.8950451016426086, 3.0161657333374023, 5.806196212768555, -5.010374546051025, -2.080322265625, 0.461669921875, -0.2880859375, 0, 
162, 1032471194, 0.43932533264160156, -0.44457772374153137, -0.5032240152359009, -0.5967544317245483, 9.388245582580566, 2.0179522037506104, 1.1647080183029175, 2.9381959438323975, 5.029214382171631, -4.671473026275635, -2.08056640625, 0.45556640625, -0.289306640625, 0, 
163, 1032479527, 0.4393743574619293, -0.44411593675613403, -0.5033076405525208, -0.5969915986061096, 9.24683952331543, 2.0368235111236572, 1.2963818311691284, 3.2510995864868164, 3.717714309692383, -4.345454692840576, -2.079833984375, 0.45751953125, -0.286865234375, 0, 
164, 1032487860, 0.4393848478794098, -0.4437152147293091, -0.5034321546554565, -0.5971766710281372, 9.25830364227295, 2.006025791168213, 1.1831682920455933, 3.3437976837158203, 2.3914859294891357, -4.183855056762695, -2.07861328125, 0.457275390625, -0.29248046875, 0, 
165, 1032496193, 0.43935924768447876, -0.4433879852294922, -0.5036108493804932, -0.5972878932952881, 9.278681755065918, 2.11098313331604, 1.4020521640777588, 3.632777452468872, 0.7536348700523376, -3.8481285572052, -2.079833984375, 0.459228515625, -0.2900390625, 0, 
166, 1032504526, 0.43930190801620483, -0.4432063698768616, -0.5038458108901978, -0.5972667932510376, 9.559220314025879, 2.2080440521240234, 1.2158772945404053, 3.9402503967285156, -1.8011672496795654, -2.64961314201355, -2.0810546875, 0.45556640625, -0.29443359375, 0, 
167, 1032512859, 0.4392470121383667, -0.4431418180465698, -0.5040804743766785, -0.5971572399139404, 9.64651870727539, 2.2696263790130615, 0.9426203370094299, 3.857797622680664, -3.2910447120666504, -1.2751532793045044, -2.0810546875, 0.456787109375, -0.29248046875, 0, 
168, 1032521192, 0.4392065107822418, -0.44316908717155457, -0.5043111443519592, -0.5969719290733337, 9.458648681640625, 2.134906053543091, 1.0504522323608398, 3.8825411796569824, -4.375858783721924, -0.047565627843141556, -2.0810546875, 0.457275390625, -0.2919921875, 0, 
169, 1032529525, 0.43919432163238525, -0.44325077533721924, -0.5045861601829529, -0.5966876745223999, 9.348223686218262, 2.0776660442352295, 1.184244990348816, 4.777477741241455, -5.5039873123168945, 0.8975356221199036, -2.079833984375, 0.456787109375, -0.288818359375, 0, 
170, 1032537858, 0.43918585777282715, -0.44336631894111633, -0.5048889517784119, -0.5963520407676697, 9.371563911437988, 2.045850992202759, 1.1168715953826904, 5.181695461273193, -6.2309699058532715, 1.2959136962890625, -2.082275390625, 0.454345703125, -0.2900390625, 0, 
171, 1032546191, 0.4391770660877228, -0.44348767399787903, -0.5051513910293579, -0.5960459113121033, 9.612909317016602, 2.066378116607666, 0.7582765221595764, 4.606681823730469, -5.863226890563965, 1.4103070497512817, -2.080322265625, 0.457275390625, -0.293212890625, 0, 
172, 1032554524, 0.4391515851020813, -0.4435907304286957, -0.5053508281707764, -0.5958189368247986, 9.717903137207031, 2.152653932571411, 0.7558475732803345, 3.547636032104492, -4.959941387176514, 1.044100284576416, -2.07861328125, 0.45361328125, -0.29248046875, 0, 
173, 1032562857, 0.43907630443573, -0.44374120235443115, -0.5054762959480286, -0.5956560373306274, 9.741812705993652, 2.1983730792999268, 0.7675936818122864, 1.9068646430969238, -4.861786842346191, 1.0387980937957764, -2.077880859375, 0.457275390625, -0.288818359375, 0, 
174, 1032571190, 0.43892958760261536, -0.44392329454421997, -0.5054932236671448, -0.5956138372421265, 9.733182907104492, 2.2014381885528564, 0.582527220249176, -0.4481211006641388, -4.2213029861450195, 0.5985662937164307, -2.0810546875, 0.461181640625, -0.284912109375, 0, 
175, 1032579523, 0.4386463165283203, -0.44416579604148865, -0.5053824186325073, -0.5957357883453369, 9.661745071411133, 2.174708843231201, 0.730282187461853, -3.8330163955688477, -3.8973588943481445, -0.3031444251537323, -2.084228515625, 0.45556640625, -0.29248046875, 0, 
176, 1032587856, 0.4382287859916687, -0.44446641206741333, -0.505225658416748, -0.5959517359733582, 9.43526554107666, 2.0315473079681396, 1.0418533086776733, -6.035379886627197, -4.4502177238464355, -1.2951581478118896, -2.082275390625, 0.456787109375, -0.2900390625, 0, 
177, 1032596189, 0.437715083360672, -0.44476866722106934, -0.5050817131996155, -0.5962256789207458, 9.428707122802734, 1.949911117553711, 0.9168780446052551, -6.926960468292236, -4.860659599304199, -2.4894473552703857, -2.079345703125, 0.45556640625, -0.2861328125, 0, 
178, 1032604522, 0.437251478433609, -0.44495686888694763, -0.5049564242362976, -0.5965314507484436, 9.441847801208496, 1.8602131605148315, 0.7442991137504578, -6.005027770996094, -3.4862005710601807, -3.1848230361938477, -2.079833984375, 0.45556640625, -0.282470703125, 0, 
179, 1032612855, 0.43687278032302856, -0.4450041353702545, -0.5048738718032837, -0.5968435406684875, 9.369213104248047, 1.9077545404434204, 0.965175211429596, -4.329087734222412, -1.9665842056274414, -3.7572500705718994, -2.077880859375, 0.4560546875, -0.28564453125, 0, 
180, 1032621188, 0.4364698529243469, -0.44501790404319763, -0.5048572421073914, -0.5971419811248779, 9.470760345458984, 2.017958402633667, 1.0734245777130127, -3.639629364013672, -2.334174156188965, -4.520605564117432, -2.081787109375, 0.45751953125, -0.286865234375, 0, 
181, 1032629521, 0.43605709075927734, -0.44501230120658875, -0.5048794150352478, -0.5974289178848267, 9.56408405303955, 2.0549237728118896, 0.9360902905464172, -3.186948299407959, -2.552509307861328, -4.896032333374023, -2.0810546875, 0.456787109375, -0.2841796875, 0, 
182, 1032637854, 0.4356280565261841, -0.44500845670700073, -0.5049283504486084, -0.5977032780647278, 9.452672004699707, 2.1028428077697754, 1.0631601810455322, -2.9911277294158936, -2.9111087322235107, -5.114445209503174, -2.078125, 0.451171875, -0.2841796875, 0, 
183, 1032646187, 0.43509238958358765, -0.4450927972793579, -0.5050114393234253, -0.597960352897644, 9.390936851501465, 2.1422197818756104, 1.096366047859192, -3.7676498889923096, -4.692758560180664, -5.473814487457275, -2.08056640625, 0.454345703125, -0.285400390625, 0, 
184, 1032654520, 0.43453162908554077, -0.44520601630210876, -0.5051270723342896, -0.5981862545013428, 9.413690567016602, 2.0045814514160156, 1.0319517850875854, -3.613348960876465, -5.4852375984191895, -5.502782344818115, -2.081298828125, 0.45068359375, -0.282958984375, 0, 
185, 1032662853, 0.4339735507965088, -0.4452829658985138, -0.5052781105041504, -0.5984064936637878, 9.38681411743164, 2.10038161277771, 0.9592286348342896, -3.047556161880493, -5.418743133544922, -5.906437397003174, -2.08203125, 0.443603515625, -0.282958984375, 0, 
186, 1032671186, 0.433380663394928, -0.44538116455078125, -0.5054072737693787, -0.5986539721488953, 9.518842697143555, 2.1560850143432617, 0.8123067021369934, -3.7534337043762207, -5.531907081604004, -6.081127643585205, -2.08251953125, 0.4462890625, -0.28466796875, 0, 
187, 1032679519, 0.4327848553657532, -0.4454437494277954, -0.5055180191993713, -0.5989449620246887, 9.554672241210938, 2.061345338821411, 0.7896447777748108, -4.017158031463623, -4.888733863830566, -6.490340709686279, -2.0849609375, 0.45068359375, -0.275390625, 0, 
188, 1032687852, 0.43219807744026184, -0.445454478263855, -0.5055959820747375, -0.5992947220802307, 9.58658218383789, 2.145075559616089, 0.7038224935531616, -4.334595203399658, -3.8394722938537598, -6.936439037322998, -2.081298828125, 0.4462890625, -0.281005859375, 0, 
189, 1032696185, 0.43165120482444763, -0.44540831446647644, -0.5056350827217102, -0.5996900200843811, 9.605557441711426, 2.126485824584961, 0.629594624042511, -4.385208606719971, -2.58760142326355, -7.0253448486328125, -2.083251953125, 0.443115234375, -0.2802734375, 0, 
190, 1032704518, 0.4311226010322571, -0.4453039765357971, -0.5056737661361694, -0.6001150608062744, 9.383504867553711, 2.009105920791626, 1.0447551012039185, -4.133932113647461, -1.791152000427246, -7.46091365814209, -2.080810546875, 0.44384765625, -0.27978515625, 0, 
191, 1032712851, 0.4305664002895355, -0.4452143609523773, -0.5057691931724548, -0.6005002856254578, 9.280596733093262, 2.116041898727417, 1.1452373266220093, -3.6495420932769775, -2.690032958984375, -7.691314697265625, -2.084716796875, 0.438720703125, -0.272705078125, 0, 
192, 1032721184, 0.43005049228668213, -0.4450937807559967, -0.5059388875961304, -0.6008163094520569, 9.389941215515137, 2.107057809829712, 0.951840877532959, -2.126878023147583, -3.013540506362915, -7.625614166259766, -2.083984375, 0.440673828125, -0.27783203125, 0, 
193, 1032729517, 0.4295855164527893, -0.4449138343334198, -0.506156325340271, -0.601098895072937, 9.408985137939453, 2.122959852218628, 1.0638848543167114, -0.8352033495903015, -2.6586806774139404, -7.705094814300537, -2.082275390625, 0.43310546875, -0.275634765625, 0, 
194, 1032737850, 0.4291221499443054, -0.44479191303253174, -0.5064091086387634, -0.601307213306427, 9.473429679870605, 2.1580734252929688, 1.149884581565857, -0.3654639720916748, -3.788576126098633, -7.073576927185059, -2.083984375, 0.43701171875, -0.277099609375, 0, 
195, 1032746183, 0.4287329912185669, -0.4446883201599121, -0.5066431760787964, -0.6014642119407654, 9.578740119934082, 2.3660242557525635, 0.6407122015953064, 0.18812376260757446, -3.6292812824249268, -5.906515121459961, -2.083251953125, 0.4375, -0.279052734375, 0, 
196, 1032754516, 0.4284348785877228, -0.4445425271987915, -0.506915807723999, -0.6015547513961792, 9.541605949401855, 2.2922401428222656, 0.8977716565132141, 1.7778455018997192, -3.2730891704559326, -5.299867153167725, -2.082763671875, 0.4306640625, -0.275634765625, 0, 
197, 1032762849, 0.4281458258628845, -0.44449758529663086, -0.5071982145309448, -0.6015557050704956, 9.459650039672852, 2.408241033554077, 1.082947015762329, 1.9445428848266602, -4.657718181610107, -4.046972274780273, -2.084716796875, 0.431396484375, -0.271240234375, 0, 
198, 1032771182, 0.42785486578941345, -0.44459444284439087, -0.5074629187583923, -0.6014680862426758, 9.47845458984375, 2.3732168674468994, 0.9279622435569763, 1.5712926387786865, -6.273336887359619, -2.449336051940918, -2.084716796875, 0.431396484375, -0.275146484375, 0, 
199, 1032779515, 0.42749160528182983, -0.4448617696762085, -0.5076329708099365, -0.6013851761817932, 9.481416702270508, 2.2262749671936035, 0.9669950604438782, -0.692788302898407, -7.609477996826172, -1.300870418548584, -2.084716796875, 0.4306640625, -0.2724609375, 0, 
200, 1032787848, 0.4271676540374756, -0.4451367259025574, -0.5078161358833313, -0.6012570858001709, 9.593101501464844, 2.524287700653076, 0.6240397095680237, -0.07256514579057693, -7.745874404907227, -0.7445035576820374, -2.08349609375, 0.431396484375, -0.27197265625, 0, 
201, 1032796181, 0.42697441577911377, -0.44532889127731323, -0.5079941153526306, -0.6011016964912415, 9.797046661376953, 2.3533313274383545, 0.41959500312805176, 1.3606663942337036, -6.2903947830200195, -0.04067540168762207, -2.082275390625, 0.42822265625, -0.271240234375, 0, 
202, 1032804514, 0.42683112621307373, -0.4454830288887024, -0.5080841183662415, -0.60101318359375, 9.852263450622559, 2.3698270320892334, 0.4053870141506195, 0.6943634748458862, -4.695499420166016, 0.24275892972946167, -2.08154296875, 0.43310546875, -0.26953125, 0, 
203, 1032812847, 0.426761656999588, -0.4455967843532562, -0.5080843567848206, -0.6009780168533325, 9.909920692443848, 2.391186475753784, 0.3365943729877472, 0.2708321213722229, -2.9980437755584717, 0.8166970610618591, -2.0859375, 0.428955078125, -0.2724609375, 0, 
204, 1032821180, 0.42677542567253113, -0.4456438720226288, -0.5079807639122009, -0.6010207533836365, 9.747458457946777, 2.277479410171509, 0.43055108189582825, -0.2289656102657318, -0.7713213562965393, 1.2088252305984497, -2.08349609375, 0.4345703125, -0.271240234375, 0, 
205, 1032829513, 0.42682984471321106, -0.4456324279308319, -0.507847785949707, -0.6011030077934265, 9.363378524780273, 2.1459171772003174, 0.8850212693214417, -0.1572713851928711, 0.40382120013237, 1.0922037363052368, -2.084228515625, 0.42626953125, -0.268798828125, 0, 
206, 1032837846, 0.42689961194992065, -0.4456236958503723, -0.5077568888664246, -0.6011368036270142, 9.229169845581055, 2.2241334915161133, 1.0220983028411865, 0.6046367883682251, -0.04976845905184746, 1.2585170269012451, -2.082275390625, 0.4287109375, -0.270751953125, 0, 
207, 1032846179, 0.4269884526729584, -0.44565585255622864, -0.5077211260795593, -0.6010801196098328, 9.2247314453125, 2.2425622940063477, 1.0398672819137573, 1.570677638053894, -1.1364524364471436, 1.9014344215393066, -2.0830078125, 0.43017578125, -0.270751953125, 0, 
208, 1032854512, 0.42708268761634827, -0.4457581639289856, -0.5077517032623291, -0.6009114980697632, 9.169778823852539, 2.273778200149536, 1.2507586479187012, 2.5220673084259033, -2.749764919281006, 2.678288698196411, -2.0859375, 0.430908203125, -0.264892578125, 0, 
209, 1032862845, 0.42715388536453247, -0.4460139274597168, -0.507849395275116, -0.6005884408950806, 9.444868087768555, 2.438488483428955, 1.082607388496399, 3.1151394844055176, -5.527270317077637, 4.063737392425537, -2.084716796875, 0.436279296875, -0.26953125, 0, 
210, 1032871178, 0.427223801612854, -0.4463770389556885, -0.5079408288002014, -0.6001917719841003, 9.725418090820312, 2.32633638381958, 0.6777498126029968, 2.938016891479492, -6.829729080200195, 5.266095161437988, -2.080322265625, 0.436279296875, -0.268310546875, 0, 
211, 1032879511, 0.4273359477519989, -0.4467179775238037, -0.508022129535675, -0.599789559841156, 9.600653648376465, 2.1980698108673096, 0.7247505784034729, 3.2822213172912598, -6.332326412200928, 5.5613508224487305, -2.080322265625, 0.43505859375, -0.26513671875, 0, 
212, 1032887844, 0.4274995028972626, -0.4470070004463196, -0.5081057548522949, -0.5993862152099609, 9.47539234161377, 2.1185522079467773, 0.7758378982543945, 3.942760467529297, -5.556700229644775, 5.609299182891846, -2.087158203125, 0.43701171875, -0.26318359375, 0, 
213, 1032896177, 0.4276769161224365, -0.44721633195877075, -0.5081903338432312, -0.5990317463874817, 9.47304630279541, 2.070279359817505, 0.6953919529914856, 4.149673938751221, -4.517480850219727, 4.881344318389893, -2.080322265625, 0.433837890625, -0.266845703125, 0, 
214, 1032904510, 0.4278520941734314, -0.4473397433757782, -0.5082387328147888, -0.598773181438446, 9.484077453613281, 2.0428574085235596, 0.6109839081764221, 3.667663812637329, -3.016357898712158, 3.9105381965637207, -2.0859375, 0.435791015625, -0.265625, 0, 
215, 1032912843, 0.42801928520202637, -0.44737371802330017, -0.5082579255104065, -0.5986120700836182, 9.529138565063477, 2.115377426147461, 0.6565893888473511, 3.228431224822998, -1.5708186626434326, 2.834151268005371, -2.082275390625, 0.43701171875, -0.26318359375, 0, 
216, 1032921176, 0.4281764030456543, -0.44731998443603516, -0.508236289024353, -0.5985584259033203, 9.62515640258789, 2.144606351852417, 0.5231648683547974, 2.602982997894287, -0.009759023785591125, 1.7495163679122925, -2.086669921875, 0.438232421875, -0.26318359375, 0, 
217, 1032929509, 0.4283217787742615, -0.4471823275089264, -0.5081592798233032, -0.598622739315033, 9.598005294799805, 2.1436097621917725, 0.6236678957939148, 1.737657070159912, 1.6423463821411133, 0.7205156683921814, -2.08203125, 0.44140625, -0.26513671875, 0, 
218, 1032937842, 0.42843183875083923, -0.4470159411430359, -0.5080287456512451, -0.5987787842750549, 9.705680847167969, 2.2435717582702637, 0.6422467231750488, 0.6080434918403625, 2.5182249546051025, 0.009848672896623611, -2.08154296875, 0.44189453125, -0.267578125, 0, 
219, 1032946175, 0.42853662371635437, -0.44682756066322327, -0.5078396201133728, -0.5990046858787537, 9.730701446533203, 2.2675962448120117, 0.5638191103935242, -0.26544031500816345, 3.4302966594696045, -0.23150144517421722, -2.08154296875, 0.4375, -0.268798828125, 0, 
220, 1032954508, 0.42865175008773804, -0.446617066860199, -0.5076050758361816, -0.5992780923843384, 9.586214065551758, 2.2272140979766846, 0.7550458908081055, -0.7799534797668457, 4.252744197845459, -0.3081136643886566, -2.08642578125, 0.43896484375, -0.26953125, 0, 
221, 1032962841, 0.4287501871585846, -0.44642093777656555, -0.5073726177215576, -0.599550724029541, 9.472208976745605, 2.210132598876953, 0.9234012365341187, -0.9418354034423828, 3.992375373840332, -0.3473546504974365, -2.082763671875, 0.436279296875, -0.26953125, 0, 
222, 1032971174, 0.42880192399024963, -0.4462687373161316, -0.5071569681167603, -0.5998092889785767, 9.323561668395996, 2.1899847984313965, 0.9724377989768982, -1.258888602256775, 3.125666856765747, -0.4534744620323181, -2.08154296875, 0.438720703125, -0.27197265625, 0, 
223, 1032979507, 0.4287967383861542, -0.44616591930389404, -0.5069746971130371, -0.6000437140464783, 9.270710945129395, 2.181150197982788, 1.07652747631073, -1.4479215145111084, 1.9698498249053955, -0.6331838965415955, -2.082763671875, 0.4375, -0.26953125, 0, 
224, 1032987840, 0.4287414848804474, -0.44611936807632446, -0.506830632686615, -0.6002394556999207, 9.356523513793945, 2.2151408195495605, 1.041153073310852, -1.5057072639465332, 0.7018172740936279, -0.6684803366661072, -2.08154296875, 0.4375, -0.27001953125, 0, 
225, 1032996173, 0.4286579489707947, -0.4461347758769989, -0.5066907405853271, -0.600405752658844, 9.44603157043457, 2.2556145191192627, 0.850067138671875, -1.7996819019317627, -0.22171683609485626, -0.31285232305526733, -2.087890625, 0.43701171875, -0.27197265625, 0, 
226, 1033004506, 0.4285725951194763, -0.4461807608604431, -0.5065335035324097, -0.6005650162696838, 9.541447639465332, 2.1823713779449463, 0.7812140583992004, -2.0832056999206543, -0.4163849949836731, 0.023834045976400375, -2.087158203125, 0.44140625, -0.270751953125, 0, 
227, 1033012839, 0.4285189211368561, -0.4462127983570099, -0.5063707232475281, -0.6007167100906372, 9.603433609008789, 2.1967720985412598, 0.7723634243011475, -1.8030630350112915, -0.1036095917224884, 0.27508407831192017, -2.082275390625, 0.43505859375, -0.2744140625, 0, 
228, 1033021172, 0.42850571870803833, -0.4462720453739166, -0.5061982274055481, -0.6008275747299194, 9.4982271194458, 2.315537214279175, 0.8547338247299194, -1.5108298063278198, -0.233986034989357, 1.0921781063079834, -2.080810546875, 0.436279296875, -0.27001953125, 0, 
229, 1033029505, 0.428510844707489, -0.4463713765144348, -0.5060453414916992, -0.6008789539337158, 9.475189208984375, 2.2058897018432617, 0.9358527064323425, -1.0588669776916504, -0.9238030314445496, 1.7591474056243896, -2.082763671875, 0.438720703125, -0.270751953125, 0, 
230, 1033037838, 0.4285290241241455, -0.44650205969810486, -0.5059453248977661, -0.6008532047271729, 9.315439224243164, 2.1446259021759033, 1.063879370689392, -0.1884695291519165, -1.869710922241211, 2.2099835872650146, -2.08349609375, 0.43701171875, -0.27001953125, 0, 
231, 1033046171, 0.42856279015541077, -0.44663137197494507, -0.5059019923210144, -0.6007694602012634, 9.325772285461426, 2.0806052684783936, 1.0411182641983032, 0.786369800567627, -2.448976993560791, 2.3291406631469727, -2.080810546875, 0.438720703125, -0.273193359375, 0, 
232, 1033054504, 0.42860594391822815, -0.4467630386352539, -0.5059110522270203, -0.6006331443786621, 9.384145736694336, 2.173475503921509, 1.0144068002700806, 1.6282585859298706, -3.025092601776123, 2.4019877910614014, -2.08203125, 0.44140625, -0.270751953125, 0, 
233, 1033062837, 0.42867302894592285, -0.44691741466522217, -0.5059553980827332, -0.6004330515861511, 9.474719047546387, 2.198970317840576, 0.8936318159103394, 2.3768856525421143, -3.6547927856445312, 2.9254913330078125, -2.0859375, 0.442626953125, -0.26953125, 0, 
234, 1033071170, 0.4288288354873657, -0.447030246257782, -0.5060336589813232, -0.600171685218811, 9.499311447143555, 2.0851709842681885, 0.8020148277282715, 3.870298147201538, -3.2656872272491455, 3.5149519443511963, -2.085693359375, 0.442626953125, -0.27587890625, 0, 
235, 1033079503, 0.42905253171920776, -0.44712746143341064, -0.5061480402946472, -0.5998427867889404, 9.328585624694824, 2.1665329933166504, 0.9653140902519226, 5.150676727294922, -3.297064781188965, 4.150210857391357, -2.0859375, 0.44189453125, -0.267578125, 0, 
236, 1033087836, 0.4293019473552704, -0.44722995162010193, -0.5063229203224182, -0.5994402766227722, 9.412877082824707, 2.107407331466675, 0.9176943898200989, 6.296375274658203, -3.9640843868255615, 4.453610420227051, -2.0791015625, 0.43994140625, -0.268798828125, 0, 
237, 1033096169, 0.42957547307014465, -0.4473188817501068, -0.5065473318099976, -0.5989882349967957, 9.373888969421387, 2.1568779945373535, 0.9186819791793823, 7.269922733306885, -4.2875165939331055, 4.552354335784912, -2.07958984375, 0.443115234375, -0.272216796875, 0, 
238, 1033104502, 0.4298916161060333, -0.44740012288093567, -0.5068312883377075, -0.5984600782394409, 9.2968111038208, 2.019371509552002, 0.9289910793304443, 8.597764015197754, -4.743166923522949, 4.9271416664123535, -2.07958984375, 0.4443359375, -0.26904296875, 0, 
239, 1033112835, 0.4303274154663086, -0.4473934769630432, -0.5071989893913269, -0.5978401303291321, 9.147043228149414, 1.957697868347168, 1.0393224954605103, 11.183241844177246, -4.2511701583862305, 5.3347673416137695, -2.08203125, 0.443115234375, -0.26953125, 0, 
240, 1033121168, 0.43099266290664673, -0.44731664657592773, -0.5076863169670105, -0.5970041155815125, 8.747333526611328, 1.890490174293518, 1.4638334512710571, 15.499265670776367, -4.103759765625, 7.263032913208008, -2.08447265625, 0.44140625, -0.27001953125, 0, 
241, 1033129501, 0.43178802728652954, -0.44726094603538513, -0.5083295702934265, -0.5959227681159973, 8.837532997131348, 1.9392541646957397, 1.4768157005310059, 19.168819427490234, -5.809567928314209, 8.984491348266602, -2.07763671875, 0.445068359375, -0.26904296875, 0, 
242, 1033137834, 0.43248793482780457, -0.44733190536499023, -0.5090790390968323, -0.5947209000587463, 9.507946014404297, 2.1947882175445557, 0.9874935150146484, 19.54955291748047, -8.878795623779297, 9.141738891601562, -2.078369140625, 0.4462890625, -0.261962890625, 0, 
243, 1033146167, 0.43303316831588745, -0.4475991725921631, -0.5098077058792114, -0.5934975743293762, 9.647173881530762, 2.3481857776641846, 0.7898923754692078, 17.404664993286133, -11.584016799926758, 9.512656211853027, -2.083251953125, 0.447021484375, -0.26708984375, 0, 
244, 1033154500, 0.433454692363739, -0.44808322191238403, -0.510589599609375, -0.5921512246131897, 9.615960121154785, 2.297478437423706, 0.8532763719558716, 16.650222778320312, -15.289632797241211, 10.420761108398438, -2.081298828125, 0.453857421875, -0.2666015625, 0, 
245, 1033162833, 0.4337952733039856, -0.4486933946609497, -0.5114410519599915, -0.5907032489776611, 9.623710632324219, 2.1658103466033936, 0.7040089964866638, 16.67737579345703, -17.93023109436035, 10.832125663757324, -2.080078125, 0.45263671875, -0.259521484375, 0, 
246, 1033171166, 0.434052050113678, -0.449368417263031, -0.5123315453529358, -0.5892278552055359, 9.495678901672363, 2.1325840950012207, 0.8087963461875916, 16.291778564453125, -19.44180679321289, 10.52186107635498, -2.080078125, 0.453369140625, -0.257080078125, 0, 
247, 1033179499, 0.43415310978889465, -0.4501659572124481, -0.5132390260696411, -0.5877532362937927, 9.564985275268555, 2.0837934017181396, 0.7233097553253174, 14.723724365234375, -21.6357421875, 10.0221529006958, -2.08056640625, 0.453857421875, -0.25830078125, 0, 
248, 1033187832, 0.43416547775268555, -0.45096340775489807, -0.5141721367835999, -0.586315393447876, 9.727545738220215, 2.054306983947754, 0.5857336521148682, 14.116128921508789, -22.179943084716797, 8.919816970825195, -2.07861328125, 0.46142578125, -0.251953125, 0, 
249, 1033196165, 0.4340808093547821, -0.45179688930511475, -0.5150963068008423, -0.584923505783081, 9.676533699035645, 2.0829241275787354, 0.5028998255729675, 12.908571243286133, -22.823144912719727, 8.17900276184082, -2.079833984375, 0.4677734375, -0.2490234375, 0, 
250, 1033204498, 0.43398311734199524, -0.4526398777961731, -0.515971839427948, -0.5835711359977722, 9.744595527648926, 1.927996039390564, 0.5084847807884216, 12.101722717285156, -22.451377868652344, 8.202542304992676, -2.079345703125, 0.462158203125, -0.244384765625, 0, 
251, 1033212831, 0.4338856637477875, -0.45338740944862366, -0.5168606042861938, -0.5822754502296448, 9.79918098449707, 2.2101173400878906, 0.20065437257289886, 12.373538970947266, -21.414791107177734, 7.11224365234375, -2.079833984375, 0.4677734375, -0.24072265625, 0, 
252, 1033221164, 0.4337543845176697, -0.45416751503944397, -0.5177403092384338, -0.5809821486473083, 9.743301391601562, 2.005993366241455, 0.4035688638687134, 11.871960639953613, -21.843830108642578, 7.109144687652588, -2.077392578125, 0.468505859375, -0.237548828125, 0, 
253, 1033229497, 0.43354105949401855, -0.4549958109855652, -0.518682062625885, -0.5796517729759216, 9.430339813232422, 2.1513450145721436, 0.7443584203720093, 11.838151931762695, -23.416780471801758, 6.636639595031738, -2.07861328125, 0.46728515625, -0.22998046875, 0, 
254, 1033237830, 0.4332948327064514, -0.4559134542942047, -0.5196344256401062, -0.5782603621482849, 9.541182518005371, 2.036144971847534, 0.6751342415809631, 11.617971420288086, -24.806171417236328, 7.301508903503418, -2.08251953125, 0.4716796875, -0.226806640625, 0, 
255, 1033246163, 0.43301984667778015, -0.456879585981369, -0.5206124782562256, -0.5768223404884338, 9.685240745544434, 2.0723769664764404, 0.35743778944015503, 11.688669204711914, -25.846193313598633, 7.544256687164307, -2.074462890625, 0.468505859375, -0.224853515625, 0, 
256, 1033254496, 0.4327215850353241, -0.4578230381011963, -0.5215654373168945, -0.5754352807998657, 9.86559772491455, 2.068284749984741, 0.14500585198402405, 11.113702774047852, -25.359567642211914, 7.045161247253418, -2.07568359375, 0.472900390625, -0.21875, 0, 
257, 1033262829, 0.4324958026409149, -0.4587024450302124, -0.5224539637565613, -0.5740969777107239, 9.896981239318848, 2.175095558166504, -0.09990940243005753, 11.091135025024414, -23.645973205566406, 7.2802228927612305, -2.07763671875, 0.47119140625, -0.211669921875, 0, 
258, 1033271162, 0.43231868743896484, -0.4595138430595398, -0.5232619047164917, -0.5728445053100586, 9.962699890136719, 2.1057004928588867, -0.35051974654197693, 10.549906730651855, -21.735225677490234, 7.168056488037109, -2.07421875, 0.478759765625, -0.2099609375, 0, 
259, 1033279495, 0.4325021803379059, -0.4600321650505066, -0.5240430235862732, -0.5715746283531189, 9.869542121887207, 2.0856757164001465, -0.33646225929260254, 14.485048294067383, -16.78606605529785, 8.179435729980469, -2.076171875, 0.479248046875, -0.21044921875, 0, 
260, 1033287828, 0.4327239394187927, -0.4604806900024414, -0.5247631669044495, -0.5703834295272827, 9.682048797607422, 1.8936737775802612, 0.017161130905151367, 14.100783348083496, -15.095858573913574, 7.887048244476318, -2.075439453125, 0.479248046875, -0.20166015625, 0, 
261, 1033296161, 0.43311429023742676, -0.4607781767845154, -0.5254330039024353, -0.5692290663719177, 9.389918327331543, 1.9135829210281372, 0.015194202773272991, 15.402268409729004, -12.16735553741455, 8.228384017944336, -2.07666015625, 0.482421875, -0.20556640625, 0, 
262, 1033304494, 0.4332755208015442, -0.4611548185348511, -0.5259702801704407, -0.5683046579360962, 9.15206241607666, 1.4981650114059448, 0.7001515626907349, 10.769365310668945, -12.191659927368164, 6.467094898223877, -2.07861328125, 0.4794921875, -0.19775390625, 0, 
263, 1033312827, 0.4333264231681824, -0.4615340828895569, -0.526434600353241, -0.5675274729728699, 9.323375701904297, 1.8093594312667847, 0.492095410823822, 8.429069519042969, -11.645078659057617, 5.216839790344238, -2.072998046875, 0.48193359375, -0.197265625, 0, 
264, 1033321160, 0.43345293402671814, -0.4618159234523773, -0.5267089009284973, -0.5669466257095337, 9.779318809509277, 1.9909456968307495, -0.2197519987821579, 6.582487106323242, -7.954910755157471, 5.131748199462891, -2.07421875, 0.485107421875, -0.197998046875, 0, 
265, 1033329493, 0.4337553083896637, -0.46189939975738525, -0.5267080068588257, -0.5666480660438538, 10.122814178466797, 1.8947365283966064, -0.8503721356391907, 4.69525671005249, -1.7066253423690796, 5.138766765594482, -2.077392578125, 0.487548828125, -0.1953125, 0, 
266, 1033337826, 0.4343075156211853, -0.4616841971874237, -0.5264683961868286, -0.5666231513023376, 10.10817813873291, 1.9857569932937622, -0.891486406326294, 4.223646640777588, 5.598951816558838, 4.797072410583496, -2.073486328125, 0.48681640625, -0.200439453125, 0, 
267, 1033346159, 0.43505412340164185, -0.46125754714012146, -0.5260187387466431, -0.5668155550956726, 9.973986625671387, 2.0220584869384766, -0.43884551525115967, 3.5081899166107178, 11.281189918518066, 4.825991630554199, -2.07861328125, 0.48828125, -0.196044921875, 0, 
268, 1033354492, 0.4359346330165863, -0.46067532896995544, -0.5254822373390198, -0.567110002040863, 9.766109466552734, 1.9194719791412354, -0.10146995633840561, 3.8760364055633545, 14.637499809265137, 4.675789833068848, -2.07177734375, 0.487548828125, -0.197265625, 0, 
269, 1033362825, 0.43681856989860535, -0.4600331485271454, -0.5247990489006042, -0.5675835609436035, 9.70419979095459, 1.7592755556106567, 0.029881048947572708, 1.8161648511886597, 17.13494110107422, 4.131820201873779, -2.07666015625, 0.486083984375, -0.208740234375, 0, 
270, 1033371158, 0.4376559257507324, -0.4593909978866577, -0.5239979028701782, -0.5681984424591064, 9.609773635864258, 1.8408358097076416, 0.168197363615036, -0.42437678575515747, 18.40884017944336, 3.658392906188965, -2.07275390625, 0.4912109375, -0.21142578125, 0, 
271, 1033379491, 0.43850740790367126, -0.4587045907974243, -0.5231495499610901, -0.5688780546188354, 9.655008316040039, 1.9927014112472534, 0.2564980089664459, -0.9000588655471802, 19.54288673400879, 3.3683114051818848, -2.07666015625, 0.48681640625, -0.21435546875, 0, 
272, 1033387824, 0.4392750859260559, -0.45812156796455383, -0.5222830176353455, -0.569551408290863, 9.340070724487305, 1.805059790611267, 0.48796650767326355, -2.150341510772705, 18.209306716918945, 3.598788261413574, -2.073974609375, 0.4921875, -0.22021484375, 0, 
273, 1033396157, 0.43981602787971497, -0.4576878547668457, -0.5216237902641296, -0.5700865387916565, 9.020465850830078, 1.475530743598938, 1.1993138790130615, -1.8624372482299805, 13.27917766571045, 2.432981491088867, -2.07470703125, 0.48779296875, -0.22265625, 0, 
274, 1033404490, 0.44016218185424805, -0.4573628604412079, -0.5211960077285767, -0.5704712271690369, 8.960976600646973, 1.6855010986328125, 1.188583254814148, -0.8533126711845398, 8.693382263183594, 1.1314703226089478, -2.07275390625, 0.494140625, -0.21826171875, 0, 
275, 1033412823, 0.4403471052646637, -0.45719340443611145, -0.5209080576896667, -0.5707272887229919, 9.144071578979492, 1.8396543264389038, 0.9211810231208801, -0.7885087132453918, 4.652557373046875, 0.8882633447647095, -2.0751953125, 0.48779296875, -0.223876953125, 0, 
276, 1033421156, 0.4404247999191284, -0.4571371078491211, -0.5207622051239014, -0.5708456635475159, 9.300262451171875, 1.8039541244506836, 0.8249445557594299, -0.048846352845430374, 1.2778046131134033, 0.7881884574890137, -2.078369140625, 0.4873046875, -0.228271484375, 0, 
277, 1033429489, 0.4404429793357849, -0.457136332988739, -0.5207021236419678, -0.57088702917099, 9.400638580322266, 1.7803566455841064, 0.535798192024231, 0.46831783652305603, -0.5957358479499817, 0.6570178866386414, -2.074462890625, 0.49169921875, -0.225830078125, 0, 
278, 1033437822, 0.4404612183570862, -0.4571182131767273, -0.5206719636917114, -0.5709149837493896, 9.489261627197266, 1.7557153701782227, 0.4338914453983307, 0.8995079398155212, -0.7185305953025818, 0.4147073030471802, -2.067626953125, 0.490966796875, -0.224609375, 0, 
279, 1033446155, 0.44047027826309204, -0.45709916949272156, -0.5206879377365112, -0.5709088444709778, 9.382801055908203, 1.745856761932373, 0.5882155299186707, 1.456284523010254, -1.2755377292633057, 0.2637113332748413, -2.075927734375, 0.490966796875, -0.228271484375, 0, 
280, 1033454488, 0.44046974182128906, -0.45706906914711, -0.5207412838935852, -0.5708844065666199, 9.464226722717285, 1.7289338111877441, 0.4857557713985443, 1.8886274099349976, -1.5952290296554565, -0.025076335296034813, -2.07275390625, 0.488525390625, -0.2265625, 0, 
281, 1033462821, 0.44048529863357544, -0.45698282122612, -0.5208306312561035, -0.5708600282669067, 9.455037117004395, 1.7574923038482666, 0.3666686713695526, 2.6111791133880615, -1.2611424922943115, -0.5189700722694397, -2.0771484375, 0.488525390625, -0.224609375, 0, 
282, 1033471154, 0.44048601388931274, -0.4569191336631775, -0.5210008025169373, -0.5707550644874573, 9.35343074798584, 1.738712191581726, 0.7513145804405212, 3.5940489768981934, -2.5362448692321777, -0.5011937618255615, -2.0771484375, 0.4892578125, -0.221923828125, 0, 
283, 1033479487, 0.44040754437446594, -0.45697513222694397, -0.5212939381599426, -0.5705031156539917, 9.402170181274414, 1.9827663898468018, 0.843586266040802, 4.389318943023682, -5.7146382331848145, -0.13847056031227112, -2.0751953125, 0.493408203125, -0.22900390625, 0, 
284, 1033487820, 0.4402526617050171, -0.45721668004989624, -0.5216799378395081, -0.5700762867927551, 9.519259452819824, 1.9969483613967896, 0.5570662021636963, 4.770434856414795, -9.375887870788574, 1.055934190750122, -2.0771484375, 0.490478515625, -0.225830078125, 0, 
285, 1033496153, 0.4400625228881836, -0.4575543701648712, -0.5221430063247681, -0.5695279836654663, 9.5920991897583, 1.9499932527542114, 0.46485620737075806, 5.440016269683838, -11.617108345031738, 1.7313560247421265, -2.07275390625, 0.490478515625, -0.220703125, 0, 
286, 1033504486, 0.4398094117641449, -0.4580109715461731, -0.522718071937561, -0.5688286423683167, 9.473517417907715, 1.9448134899139404, 0.6791702508926392, 6.291920185089111, -14.625089645385742, 2.2929224967956543, -2.075927734375, 0.492919921875, -0.22216796875, 0, 
287, 1033512819, 0.43948590755462646, -0.4586185812950134, -0.5233620405197144, -0.5679963827133179, 9.479521751403809, 1.9303337335586548, 0.524226188659668, 6.422143936157227, -17.567604064941406, 3.2058658599853516, -2.07275390625, 0.4921875, -0.218994140625, 0, 
288, 1033521152, 0.43914318084716797, -0.4592651128768921, -0.5239989757537842, -0.5671509504318237, 9.588059425354004, 1.802978515625, 0.23221509158611298, 6.111443042755127, -18.048870086669922, 3.449354887008667, -2.074462890625, 0.494140625, -0.21630859375, 0, 
289, 1033529485, 0.438813716173172, -0.4598982334136963, -0.5246110558509827, -0.5663264393806458, 9.505491256713867, 1.8627862930297852, 0.3565206825733185, 5.928659915924072, -17.571651458740234, 3.4976632595062256, -2.0751953125, 0.4912109375, -0.208740234375, 0, 
290, 1033537818, 0.4384711682796478, -0.460562527179718, -0.5252163410186768, -0.5654903650283813, 9.556113243103027, 1.898658275604248, 0.3626015782356262, 5.680380344390869, -17.934782028198242, 3.7236573696136475, -2.071533203125, 0.498046875, -0.20751953125, 0, 
291, 1033546151, 0.43817228078842163, -0.46120312809944153, -0.5256974697113037, -0.564752459526062, 9.957258224487305, 2.0381429195404053, -0.16533847153186798, 4.433735370635986, -16.071834564208984, 4.096139907836914, -2.075927734375, 0.49755859375, -0.204345703125, 0, 
292, 1033554484, 0.43797609210014343, -0.46173933148384094, -0.5259110331535339, -0.5642674565315247, 10.257986068725586, 2.110194444656372, -0.7649083733558655, 1.8064311742782593, -11.29344367980957, 4.305176258087158, -2.07080078125, 0.498779296875, -0.203857421875, 0, 
293, 1033562817, 0.43795907497406006, -0.4620748460292816, -0.5258675813674927, -0.5640463829040527, 10.260480880737305, 1.909696340560913, -0.72043776512146, 0.24921369552612305, -5.223817825317383, 4.292394638061523, -2.075927734375, 0.4951171875, -0.19921875, 0, 
294, 1033571150, 0.4380240738391876, -0.4622763991355896, -0.525668740272522, -0.5640162229537964, 9.926566123962402, 1.9040485620498657, -0.21978162229061127, -1.0127099752426147, -1.436932921409607, 3.7890496253967285, -2.068359375, 0.49609375, -0.201171875, 0, 
295, 1033579483, 0.43806779384613037, -0.4624615013599396, -0.5253899693489075, -0.5640900731086731, 9.564790725708008, 1.7824313640594482, 0.19233064353466034, -2.416933298110962, -0.327119380235672, 3.3945136070251465, -2.07080078125, 0.499267578125, -0.201904296875, 0, 
296, 1033587816, 0.43804270029067993, -0.4626429080963135, -0.5250282287597656, -0.5642973780632019, 9.471808433532715, 1.8386625051498413, 0.2977955937385559, -4.446349620819092, 0.5598118901252747, 2.5520102977752686, -2.07275390625, 0.50244140625, -0.199951171875, 0, 
297, 1033596149, 0.437906414270401, -0.46290579438209534, -0.5245727896690369, -0.5646109580993652, 9.544699668884277, 1.8749293088912964, 0.3947438895702362, -7.1332573890686035, 0.36017459630966187, 2.23992657661438, -2.075927734375, 0.49755859375, -0.201904296875, 0, 
298, 1033604482, 0.4376148581504822, -0.4632708430290222, -0.524083137512207, -0.5649925470352173, 9.626190185546875, 1.8761181831359863, 0.5695902109146118, -9.491765022277832, -0.9114313125610352, 1.5717023611068726, -2.07568359375, 0.503662109375, -0.201904296875, 0, 
299, 1033612815, 0.4372348487377167, -0.4636722505092621, -0.5234411954879761, -0.5655523538589478, 9.928227424621582, 1.8736436367034912, -0.20640626549720764, -12.742392539978027, 0.21624819934368134, 1.0510163307189941, -2.06884765625, 0.498046875, -0.201904296875, 0, 
300, 1033621148, 0.4370341897010803, -0.4638074040412903, -0.5225991606712341, -0.5663745403289795, 10.214524269104004, 1.708274483680725, -0.9527185559272766, -13.439460754394531, 6.461256980895996, 0.22091004252433777, -2.076416015625, 0.501220703125, -0.202392578125, 0, 
301, 1033629481, 0.4370419681072235, -0.46365073323249817, -0.521674633026123, -0.5673484206199646, 9.884988784790039, 1.6472864151000977, -0.059818729758262634, -12.091995239257812, 11.68868637084961, -0.6306225657463074, -2.072021484375, 0.49609375, -0.20556640625, 0, 
302, 1033637814, 0.4370189905166626, -0.46349036693573, -0.5208095908164978, -0.5682910680770874, 9.452094078063965, 1.8592218160629272, 0.707510769367218, -11.58047866821289, 10.947615623474121, -1.0963407754898071, -2.0703125, 0.497314453125, -0.208251953125, 0, 
303, 1033646147, 0.4368620812892914, -0.4634631872177124, -0.5199966430664062, -0.5691775679588318, 9.516849517822266, 1.8146758079528809, 0.5288994908332825, -12.421293258666992, 8.268957138061523, -1.1771281957626343, -2.071533203125, 0.498046875, -0.20947265625, 0, 
304, 1033654480, 0.43663257360458374, -0.46346235275268555, -0.5191641449928284, -0.5701137185096741, 9.713302612304688, 1.8229689598083496, 0.3318990170955658, -13.555618286132812, 7.98322868347168, -1.7382079362869263, -2.07080078125, 0.49560546875, -0.208740234375, 0, 
305, 1033662813, 0.4364255666732788, -0.4633875787258148, -0.5181574821472168, -0.5712476968765259, 9.97032642364502, 1.888826847076416, -0.2892555892467499, -15.742513656616211, 11.02400016784668, -2.1579744815826416, -2.0712890625, 0.49853515625, -0.21337890625, 0, 
306, 1033671146, 0.43624183535575867, -0.463176429271698, -0.5169661641120911, -0.5726369023323059, 9.737268447875977, 1.8000881671905518, -0.16966578364372253, -18.048616409301758, 15.003405570983887, -3.3102059364318848, -2.0712890625, 0.499267578125, -0.21533203125, 0, 
307, 1033679479, 0.43604475259780884, -0.46281254291534424, -0.5156481862068176, -0.5742672681808472, 9.949913024902344, 1.5269951820373535, -0.2427046149969101, -19.92609214782715, 18.40074920654297, -5.135375022888184, -2.073974609375, 0.494140625, -0.2138671875, 0, 
308, 1033687812, 0.43571045994758606, -0.46231022477149963, -0.5141239166259766, -0.5762887001037598, 9.808611869812012, 1.6799744367599487, -0.3862397074699402, -24.36610221862793, 22.253271102905273, -8.237699508666992, -2.07568359375, 0.494873046875, -0.22021484375, 0, 
309, 1033696145, 0.4354282021522522, -0.4615740478038788, -0.5125272870063782, -0.5785099864006042, 9.595627784729004, 1.5654553174972534, -0.018315671011805534, -24.625349044799805, 26.17102813720703, -10.210689544677734, -2.075927734375, 0.48974609375, -0.221923828125, 0, 
310, 1033704478, 0.4350801706314087, -0.4606759548187256, -0.5108823776245117, -0.5809375047683716, 9.404370307922363, 1.5214707851409912, 0.36311444640159607, -25.91193389892578, 28.60190773010254, -12.809568405151367, -2.077880859375, 0.484130859375, -0.230712890625, 0, 
311, 1033712811, 0.43453121185302734, -0.45985352993011475, -0.5092938542366028, -0.5833897590637207, 8.595479011535645, 1.8325448036193848, 1.201545238494873, -27.35913848876953, 26.39659309387207, -14.381004333496094, -2.07275390625, 0.48974609375, -0.2333984375, 0, 
312, 1033721144, 0.4341828525066376, -0.4590740501880646, -0.508167028427124, -0.5852426290512085, 8.855731010437012, 1.5913043022155762, 1.8638403415679932, -18.44756507873535, 20.916793823242188, -11.816803932189941, -2.08154296875, 0.48046875, -0.234619140625, 0, 
313, 1033729477, 0.4336211681365967, -0.458615779876709, -0.5072493553161621, -0.5868123769760132, 9.02365779876709, 1.9119641780853271, 1.7243751287460327, -18.047286987304688, 13.795384407043457, -10.912591934204102, -2.075927734375, 0.478515625, -0.240234375, 0, 
314, 1033737810, 0.4327836036682129, -0.4586242139339447, -0.5066764950752258, -0.5879178643226624, 8.637109756469727, 2.189147710800171, 1.8169941902160645, -16.549156188964844, 3.1313281059265137, -9.296841621398926, -2.0791015625, 0.478271484375, -0.245849609375, 0, 
315, 1033746143, 0.4320589005947113, -0.4587162435054779, -0.5065776109695435, -0.5884640216827393, 8.954537391662598, 1.8265111446380615, 1.8042935132980347, -8.605615615844727, -3.1168174743652344, -7.454691410064697, -2.07421875, 0.471435546875, -0.2421875, 0, 
316, 1033754476, 0.4311686158180237, -0.4591290056705475, -0.5065735578536987, -0.588798463344574, 9.274138450622559, 1.8950221538543701, 1.1010349988937378, -9.320535659790039, -8.756869316101074, -5.9091033935546875, -2.0791015625, 0.480224609375, -0.239013671875, 0, 
317, 1033762809, 0.4305538237094879, -0.4592612385749817, -0.5067681074142456, -0.5889778137207031, 9.796661376953125, 1.9213923215866089, 0.25520068407058716, -3.2230658531188965, -6.731345176696777, -5.9580769538879395, -2.076171875, 0.474609375, -0.23388671875, 0, 
318, 1033771142, 0.4299873113632202, -0.4594098627567291, -0.5067017078399658, -0.5893328785896301, 9.945854187011719, 1.8503406047821045, -0.005669453181326389, -6.355429649353027, -3.8669044971466064, -4.853026866912842, -2.075927734375, 0.475830078125, -0.235107421875, 0, 
319, 1033779475, 0.42987510561943054, -0.45910710096359253, -0.5067203640937805, -0.5896346569061279, 9.736095428466797, 1.9275606870651245, 0.0277668759226799, 0.24596071243286133, 2.112367630004883, -4.529032230377197, -2.0810546875, 0.472900390625, -0.239501953125, 0, 
320, 1033787808, 0.4299095869064331, -0.4586035907268524, -0.5066973567008972, -0.5900209546089172, 9.668898582458496, 1.9153592586517334, 0.36536604166030884, 1.4293895959854126, 5.548542499542236, -4.984094619750977, -2.0791015625, 0.473388671875, -0.23583984375, 0, 
321, 1033796141, 0.4300098717212677, -0.45803311467170715, -0.5066473484039307, -0.5904337167739868, 9.801674842834473, 2.0319368839263916, 0.35840386152267456, 1.839089274406433, 6.870851993560791, -4.896673202514648, -2.076904296875, 0.466552734375, -0.24267578125, 0, 
322, 1033804474, 0.4301636219024658, -0.45742541551589966, -0.5065518021583557, -0.5908747315406799, 9.892255783081055, 2.078531503677368, 0.27435287833213806, 1.828305959701538, 7.998085021972656, -4.609180450439453, -2.077392578125, 0.467041015625, -0.241455078125, 0, 
323, 1033812807, 0.43036088347435, -0.45679399371147156, -0.5064391493797302, -0.5913158655166626, 9.789562225341797, 2.078396797180176, 0.5211824178695679, 2.1031978130340576, 8.590592384338379, -4.305522441864014, -2.07373046875, 0.4658203125, -0.25146484375, 0, 
324, 1033821140, 0.43055811524391174, -0.4561983048915863, -0.5063090920448303, -0.5917431712150574, 9.881340980529785, 2.1889185905456543, 0.4982357323169708, 1.846671462059021, 8.32318115234375, -3.874025821685791, -2.082275390625, 0.468994140625, -0.246337890625, 0, 
325, 1033829473, 0.43072769045829773, -0.455655962228775, -0.5061214566230774, -0.5921978950500488, 9.95954418182373, 2.1691017150878906, 0.3561708331108093, 0.6975653767585754, 8.203125953674316, -3.520984411239624, -2.08056640625, 0.4658203125, -0.252197265625, 0, 
326, 1033837806, 0.4308823347091675, -0.4551295042037964, -0.5058795213699341, -0.5926969051361084, 9.791542053222656, 2.123460054397583, 0.446277379989624, -0.2415422797203064, 8.57404613494873, -3.460355281829834, -2.072265625, 0.463134765625, -0.2578125, 0, 
327, 1033846139, 0.43101269006729126, -0.45464128255844116, -0.505599319934845, -0.5932156443595886, 9.610769271850586, 2.1120080947875977, 0.5909910798072815, -1.0669611692428589, 8.437726974487305, -3.2631514072418213, -2.079345703125, 0.4638671875, -0.255126953125, 0, 
328, 1033854472, 0.43112286925315857, -0.4541577398777008, -0.5053037405014038, -0.5937577486038208, 9.617938041687012, 1.9890069961547852, 0.48310214281082153, -1.5149542093276978, 8.501993179321289, -3.4458067417144775, -2.08056640625, 0.460693359375, -0.255859375, 0, 
329, 1033862805, 0.43123316764831543, -0.4536074995994568, -0.5049915313720703, -0.5943635702133179, 9.40952205657959, 1.9505393505096436, 0.7096865773200989, -1.6918206214904785, 9.538013458251953, -4.1737895011901855, -2.079345703125, 0.46337890625, -0.2578125, 0, 
330, 1033871138, 0.43129393458366394, -0.4530574679374695, -0.5047121047973633, -0.5949760675430298, 9.38387393951416, 1.9989228248596191, 0.8951833844184875, -1.783442497253418, 9.04716682434082, -4.830691337585449, -2.076171875, 0.4658203125, -0.2578125, 0, 
331, 1033879471, 0.4312768876552582, -0.45252716541290283, -0.5044357776641846, -0.5956260561943054, 9.483091354370117, 1.9850800037384033, 0.7360951900482178, -2.616417407989502, 8.552042007446289, -5.562695026397705, -2.079833984375, 0.46142578125, -0.259033203125, 0, 
332, 1033887804, 0.4312073588371277, -0.4519365727901459, -0.5041686296463013, -0.5963504314422607, 9.318964958190918, 1.857491135597229, 0.7322313189506531, -3.0324180126190186, 9.099649429321289, -6.917073726654053, -2.08056640625, 0.460693359375, -0.265380859375, 0, 
333, 1033896137, 0.43112099170684814, -0.4512788653373718, -0.503923773765564, -0.5971173644065857, 9.205424308776855, 1.8284533023834229, 1.072793960571289, -2.8455371856689453, 9.658707618713379, -7.902864456176758, -2.08056640625, 0.455810546875, -0.26708984375, 0, 
334, 1033904470, 0.43099328875541687, -0.450608491897583, -0.5037281513214111, -0.5978805422782898, 9.353127479553223, 2.037534236907959, 1.0001254081726074, -2.5967459678649902, 9.167682647705078, -8.622215270996094, -2.08203125, 0.451416015625, -0.263916015625, 0, 
335, 1033912803, 0.43084028363227844, -0.4499816298484802, -0.5035361051559448, -0.5986244082450867, 9.648344039916992, 2.148777723312378, 0.5982745289802551, -2.848994493484497, 8.48680305480957, -8.428594589233398, -2.08251953125, 0.453857421875, -0.26904296875, 0, 
336, 1033921136, 0.4307614266872406, -0.44932666420936584, -0.5033237338066101, -0.5993508696556091, 9.539772987365723, 2.108084201812744, 0.7723034620285034, -2.2658607959747314, 9.250388145446777, -7.790774345397949, -2.079345703125, 0.44873046875, -0.274169921875, 0, 
337, 1033929469, 0.43069255352020264, -0.4486948549747467, -0.5031534433364868, -0.6000162363052368, 9.390771865844727, 2.1122288703918457, 1.133957028388977, -1.575762391090393, 8.496281623840332, -7.441012859344482, -2.08203125, 0.4482421875, -0.271484375, 0, 
338, 1033937802, 0.4305959939956665, -0.4481518864631653, -0.5030404925346375, -0.6005858182907104, 9.530181884765625, 2.231687068939209, 0.967780351638794, -1.1350438594818115, 6.646165370941162, -6.845943450927734, -2.08056640625, 0.45068359375, -0.274658203125, 0, 
339, 1033946135, 0.4304884374141693, -0.44769400358200073, -0.5029526352882385, -0.6010777950286865, 9.338268280029297, 2.190861225128174, 1.0864681005477905, -0.9651445746421814, 5.234897136688232, -6.0374298095703125, -2.079345703125, 0.451171875, -0.275390625, 0, 
340, 1033954468, 0.4303632378578186, -0.4472990334033966, -0.5029451847076416, -0.6014676690101624, 9.265645980834961, 2.0782217979431152, 1.2371641397476196, -0.07195038348436356, 3.495151996612549, -5.646427154541016, -2.08251953125, 0.4462890625, -0.281005859375, 0, 
341, 1033962801, 0.4302293062210083, -0.446943074464798, -0.502997875213623, -0.6017839908599854, 9.36854076385498, 2.134413957595825, 1.114221453666687, 0.6467978954315186, 2.2967898845672607, -5.374762535095215, -2.085693359375, 0.442626953125, -0.2822265625, 0, 
342, 1033971134, 0.4301195442676544, -0.44663703441619873, -0.5030280351638794, -0.6020645499229431, 9.518404006958008, 2.3264389038085938, 0.8060629367828369, 0.5644224286079407, 1.9690814018249512, -4.486871242523193, -2.083251953125, 0.4462890625, -0.2783203125, 0, 
343, 1033979467, 0.43000611662864685, -0.4464000165462494, -0.5030069947242737, -0.6023387908935547, 9.60757064819336, 2.2296082973480225, 0.8366431593894958, -0.24991805851459503, 1.6317417621612549, -3.680278778076172, -2.08203125, 0.439453125, -0.281494140625, 0, 
344, 1033987800, 0.42989224195480347, -0.44619786739349365, -0.502968966960907, -0.6026015877723694, 9.571001052856445, 2.239243268966675, 0.8570836782455444, -0.5211472511291504, 1.3767523765563965, -3.2794675827026367, -2.078857421875, 0.441162109375, -0.27978515625, 0, 
345, 1033996133, 0.4298099875450134, -0.4460020363330841, -0.502894401550293, -0.6028675436973572, 9.665300369262695, 2.235142469406128, 0.7214248776435852, -0.6890484690666199, 1.7722362279891968, -2.759626626968384, -2.083984375, 0.439453125, -0.281494140625, 0, 
346, 1034004466, 0.42975568771362305, -0.44581180810928345, -0.5027889609336853, -0.60313481092453, 9.538163185119629, 2.170529842376709, 0.9369683861732483, -0.8123297691345215, 2.1141605377197266, -2.3160903453826904, -2.0888671875, 0.439453125, -0.2783203125, 0, 
347, 1034012799, 0.42972278594970703, -0.44562646746635437, -0.5027176737785339, -0.6033546328544617, 9.349424362182617, 2.1277947425842285, 1.0799580812454224, -0.10145798325538635, 1.7225701808929443, -2.025804281234741, -2.084716796875, 0.435546875, -0.283935546875, 0, 
348, 1034021132, 0.4296877682209015, -0.4454633891582489, -0.5026843547821045, -0.6035274863243103, 9.299871444702148, 2.1697592735290527, 1.1846026182174683, 0.3920386731624603, 1.0186909437179565, -1.8528056144714355, -2.085693359375, 0.439453125, -0.28271484375, 0, 
349, 1034029465, 0.42961233854293823, -0.44534027576446533, -0.5027052760124207, -0.6036546230316162, 9.435434341430664, 2.1465840339660645, 1.2063349485397339, 0.6764334440231323, -0.20025207102298737, -1.966660737991333, -2.08203125, 0.43505859375, -0.279541015625, 0, 
350, 1034037798, 0.42950674891471863, -0.44531816244125366, -0.5027247071266174, -0.6037300825119019, 9.539739608764648, 2.3962433338165283, 1.036421298980713, 0.24060732126235962, -1.5458958148956299, -1.2088892459869385, -2.08251953125, 0.44189453125, -0.283447265625, 0, 
351, 1034046131, 0.429381400346756, -0.4454632103443146, -0.5026952624320984, -0.6037367582321167, 9.707815170288086, 2.4576144218444824, 0.8934752345085144, -0.7973967790603638, -3.2117180824279785, 0.4936503767967224, -2.085205078125, 0.440673828125, -0.2822265625, 0, 
352, 1034054464, 0.4292348623275757, -0.4457220733165741, -0.5026237964630127, -0.6037090420722961, 9.724291801452637, 2.359670877456665, 0.8782076239585876, -1.7133876085281372, -4.258264541625977, 1.555693507194519, -2.081298828125, 0.441162109375, -0.2783203125, 0, 
353, 1034062797, 0.4290865659713745, -0.446041077375412, -0.5025261640548706, -0.6036601662635803, 9.729135513305664, 2.3293700218200684, 0.8327977657318115, -2.1492137908935547, -4.751568794250488, 2.2516067028045654, -2.083251953125, 0.438232421875, -0.28076171875, 0, 
354, 1034071130, 0.4289597272872925, -0.4463782012462616, -0.5024033188819885, -0.6036035418510437, 9.725560188293457, 2.272594690322876, 0.6616979837417603, -2.277515411376953, -4.645038604736328, 2.7491886615753174, -2.087158203125, 0.438720703125, -0.28076171875, 0, 
355, 1034079463, 0.4288841187953949, -0.446688175201416, -0.502278208732605, -0.6035319566726685, 9.423373222351074, 2.0584821701049805, 0.9776409268379211, -1.720047116279602, -4.15160608291626, 3.095032215118408, -2.082763671875, 0.4375, -0.2783203125, 0, 
356, 1034087796, 0.42882150411605835, -0.4469662308692932, -0.502230167388916, -0.6034107804298401, 9.301262855529785, 2.0958504676818848, 1.1560636758804321, -0.4737353026866913, -4.549959182739258, 2.794013738632202, -2.083984375, 0.440673828125, -0.279541015625, 0, 
357, 1034096129, 0.4287656843662262, -0.4472585916519165, -0.5022329688072205, -0.6032313704490662, 9.43786334991455, 2.206897258758545, 0.9340049028396606, 0.3106110692024231, -5.285677433013916, 2.9861462116241455, -2.083984375, 0.43994140625, -0.277099609375, 0, 
358, 1034104462, 0.4287372827529907, -0.44757169485092163, -0.5022326707839966, -0.6030195951461792, 9.453471183776855, 2.182454824447632, 0.8816055655479431, 0.5579676628112793, -5.441923141479492, 3.5610828399658203, -2.084716796875, 0.4375, -0.277587890625, 0, 
359, 1034112795, 0.4287721812725067, -0.44785407185554504, -0.5022339820861816, -0.6027839183807373, 9.437201499938965, 2.0913302898406982, 0.8784310817718506, 1.3027015924453735, -4.906944751739502, 4.004312038421631, -2.08447265625, 0.43994140625, -0.2783203125, 0, 
360, 1034121128, 0.4288839101791382, -0.448103666305542, -0.5022226572036743, -0.6025283932685852, 9.458767890930176, 2.1664175987243652, 0.8063122630119324, 2.003199338912964, -4.161288738250732, 4.615389823913574, -2.08203125, 0.44189453125, -0.276611328125, 0, 
361, 1034129461, 0.42905327677726746, -0.4483354091644287, -0.5022218227386475, -0.6022360324859619, 9.41680908203125, 2.0862033367156982, 0.9476655125617981, 2.804950714111328, -3.902174949645996, 5.124934673309326, -2.083251953125, 0.4443359375, -0.275146484375, 0, 
362, 1034137794, 0.4292743504047394, -0.448513388633728, -0.5022566318511963, -0.6019168496131897, 9.486053466796875, 2.091567277908325, 0.8370266556739807, 3.924395799636841, -3.4694740772247314, 5.112307071685791, -2.081298828125, 0.445068359375, -0.275390625, 0, 
363, 1034146127, 0.42956840991973877, -0.44861987233161926, -0.5023058652877808, -0.6015865206718445, 9.452394485473633, 2.0604448318481445, 0.7809928059577942, 4.989230632781982, -2.5325818061828613, 5.207079887390137, -2.083251953125, 0.4482421875, -0.274658203125, 0, 
364, 1034154460, 0.4299268126487732, -0.44861435890197754, -0.5023549795150757, -0.6012936234474182, 9.371444702148438, 1.8917591571807861, 0.8637833595275879, 5.786013126373291, -0.9253655672073364, 4.7361626625061035, -2.086181640625, 0.44873046875, -0.27587890625, 0, 
365, 1034162793, 0.430326372385025, -0.448458731174469, -0.5024462938308716, -0.6010475754737854, 9.309606552124023, 1.834563136100769, 0.9256212115287781, 6.956302165985107, 0.633043110370636, 3.512160539627075, -2.085205078125, 0.443115234375, -0.274658203125, 0, 
366, 1034171126, 0.43074312806129456, -0.4481664001941681, -0.5025629997253418, -0.6008694767951965, 9.273873329162598, 1.8867871761322021, 0.9844666123390198, 7.611819744110107, 2.1591391563415527, 2.141413688659668, -2.080078125, 0.44677734375, -0.27392578125, 0, 
367, 1034179459, 0.43111270666122437, -0.44778767228126526, -0.5026865005493164, -0.6007833480834961, 9.395895004272461, 1.9720287322998047, 1.0142853260040283, 7.252069473266602, 3.06596040725708, 0.57594895362854, -2.083251953125, 0.449951171875, -0.279052734375, 0, 
368, 1034187792, 0.431430846452713, -0.44741690158843994, -0.5028303265571594, -0.6007107496261597, 9.29195499420166, 2.2239935398101807, 1.2306195497512817, 6.959681987762451, 2.6120755672454834, -0.00683900061994791, -2.076904296875, 0.447509765625, -0.27783203125, 0, 
369, 1034196125, 0.4315687417984009, -0.44722580909729004, -0.5029401183128357, -0.600662112236023, 9.52886962890625, 2.2676146030426025, 0.9743980765342712, 4.340063095092773, 0.22746723890304565, -0.17837753891944885, -2.0849609375, 0.447021484375, -0.277099609375, 0, 
370, 1034204458, 0.4316570460796356, -0.4470961391925812, -0.503010630607605, -0.6006360650062561, 9.70104694366455, 2.2217650413513184, 0.7803829908370972, 3.191981792449951, -0.24587105214595795, -0.06459910422563553, -2.08251953125, 0.451171875, -0.281005859375, 0, 
371, 1034212791, 0.4317218065261841, -0.4470130205154419, -0.503037691116333, -0.6006287336349487, 9.621132850646973, 2.2206315994262695, 0.8561837077140808, 2.2830095291137695, -0.42796260118484497, 0.2288503795862198, -2.085693359375, 0.4462890625, -0.276611328125, 0, 
372, 1034221124, 0.4317655563354492, -0.44698116183280945, -0.5030452013015747, -0.6006149053573608, 9.569330215454102, 2.204827070236206, 0.92555171251297, 1.7289223670959473, -0.910662829875946, 0.5606827139854431, -2.081298828125, 0.445068359375, -0.27587890625, 0, 
373, 1034229457, 0.4318059980869293, -0.44696474075317383, -0.5030292272567749, -0.6006113886833191, 9.634432792663574, 2.1579885482788086, 0.7925620079040527, 1.3546217679977417, -0.8674773573875427, 0.7288146615028381, -2.085693359375, 0.44189453125, -0.279052734375, 0, 
374, 1034237790, 0.43188029527664185, -0.44691407680511475, -0.5029873847961426, -0.6006306409835815, 9.558100700378418, 2.1093590259552, 0.8064544200897217, 1.3921464681625366, -0.04989653080701828, 0.7905193567276001, -2.07763671875, 0.4462890625, -0.27783203125, 0, 
375, 1034246123, 0.4319954216480255, -0.44680899381637573, -0.5029621124267578, -0.6006471514701843, 9.488162994384766, 2.03414249420166, 0.8949205875396729, 2.123586654663086, 0.5616049766540527, 0.672412097454071, -2.081298828125, 0.4462890625, -0.279052734375, 0, 
376, 1034254456, 0.43218880891799927, -0.4466387629508972, -0.502960205078125, -0.60063636302948, 9.513178825378418, 2.0915162563323975, 0.7587712407112122, 3.3746111392974854, 1.3392786979675293, 0.8767111897468567, -2.080078125, 0.4462890625, -0.281005859375, 0, 
377, 1034262789, 0.4324435591697693, -0.44641515612602234, -0.5029779672622681, -0.6006042957305908, 9.416325569152832, 2.0883355140686035, 0.9899882078170776, 4.378791809082031, 1.9499731063842773, 1.0295257568359375, -2.08251953125, 0.44677734375, -0.279052734375, 0, 
378, 1034271122, 0.4327041208744049, -0.44622373580932617, -0.5030654072761536, -0.6004855632781982, 9.400774002075195, 2.09423565864563, 1.103314995765686, 5.394729137420654, 0.7859600186347961, 1.3801078796386719, -2.083740234375, 0.4443359375, -0.281005859375, 0, 
379, 1034279455, 0.4330037236213684, -0.44602474570274353, -0.5031824707984924, -0.6003192663192749, 9.506261825561523, 2.1434686183929443, 0.8529942631721497, 6.2559051513671875, 0.6424946784973145, 1.7591471672058105, -2.085693359375, 0.44873046875, -0.2802734375, 0, 
380, 1034287788, 0.433375746011734, -0.4458330273628235, -0.5033135414123535, -0.6000835299491882, 9.416535377502441, 2.2304818630218506, 0.9957431554794312, 7.256961822509766, 0.5830439925193787, 2.7281339168548584, -2.08056640625, 0.447998046875, -0.27978515625, 0, 
381, 1034296121, 0.43380796909332275, -0.4456698000431061, -0.5034961700439453, -0.5997391939163208, 9.465434074401855, 2.099907636642456, 1.0025161504745483, 8.631012916564941, -0.2167476862668991, 3.75954270362854, -2.08251953125, 0.44921875, -0.2841796875, 0, 
382, 1034304454, 0.43435099720954895, -0.4454503059387207, -0.5037543773651123, -0.5992922186851501, 9.390480995178223, 2.109309673309326, 0.9870693683624268, 10.978659629821777, -0.05555728077888489, 4.425436019897461, -2.08251953125, 0.44921875, -0.287353515625, 0, 
383, 1034312787, 0.43505117297172546, -0.4451887607574463, -0.5040599703788757, -0.5987215638160706, 9.315711975097656, 2.071377992630005, 1.0461195707321167, 13.438752174377441, 0.32895082235336304, 5.88572883605957, -2.081787109375, 0.451171875, -0.28173828125, 0, 
384, 1034321120, 0.4359299838542938, -0.4448295831680298, -0.5044482350349426, -0.5980217456817627, 9.10431957244873, 1.8216075897216797, 1.076269268989563, 16.690431594848633, 1.0931005477905273, 6.938373565673828, -2.0810546875, 0.45361328125, -0.2880859375, 0, 
385, 1034329453, 0.43698906898498535, -0.4443091154098511, -0.5050300359725952, -0.5971440076828003, 8.349747657775879, 1.607103705406189, 1.7227671146392822, 21.588542938232422, 1.4139958620071411, 7.192698001861572, -2.0849609375, 0.447998046875, -0.285400390625, 0, 
386, 1034337786, 0.43790915608406067, -0.44389766454696655, -0.5058398842811584, -0.5960894823074341, 8.196434020996094, 1.7755059003829956, 2.2150161266326904, 23.180137634277344, -2.890106678009033, 6.468634605407715, -2.08544921875, 0.453125, -0.28662109375, 0, 
387, 1034346119, 0.43851885199546814, -0.4438522458076477, -0.5067330598831177, -0.5949152112007141, 8.825319290161133, 2.098719358444214, 1.8833097219467163, 20.60065269470215, -9.288058280944824, 6.691221714019775, -2.077392578125, 0.453125, -0.282958984375, 0, 
388, 1034354452, 0.43889808654785156, -0.4441531300544739, -0.5076179504394531, -0.5936554670333862, 9.624232292175293, 2.377537965774536, 0.9695354104042053, 17.633447647094727, -14.195261001586914, 7.776523113250732, -2.07861328125, 0.457275390625, -0.288818359375, 0, 
389, 1034362785, 0.43916818499565125, -0.4447019696235657, -0.5084528923034668, -0.5923287868499756, 9.937336921691895, 2.425492286682129, 0.5925171375274658, 15.52880573272705, -17.091493606567383, 9.334766387939453, -2.082275390625, 0.463623046875, -0.28173828125, 0, 
390, 1034371118, 0.4394116699695587, -0.44535955786705017, -0.5092494487762451, -0.5909682512283325, 9.945679664611816, 2.225706100463867, 0.5063844323158264, 14.635278701782227, -18.138959884643555, 10.307673454284668, -2.079833984375, 0.463134765625, -0.278076171875, 0, 
391, 1034379451, 0.4396228790283203, -0.4460558295249939, -0.5100115537643433, -0.5896273851394653, 9.820935249328613, 2.2085509300231934, 0.5164408683776855, 13.784756660461426, -18.351505279541016, 10.41830062866211, -2.077392578125, 0.4599609375, -0.27734375, 0, 
392, 1034387784, 0.43975794315338135, -0.4468003511428833, -0.5107336044311523, -0.5883364677429199, 9.778786659240723, 2.047729253768921, 0.6501418948173523, 12.350846290588379, -18.722686767578125, 10.075249671936035, -2.079833984375, 0.4599609375, -0.2685546875, 0, 
393, 1034396117, 0.439860463142395, -0.44749951362609863, -0.5114392638206482, -0.5871143341064453, 9.606780052185059, 1.9545037746429443, 0.7024770379066467, 11.81181812286377, -18.069110870361328, 9.187331199645996, -2.077880859375, 0.4619140625, -0.269775390625, 0, 
394, 1034404450, 0.439853310585022, -0.448209285736084, -0.5121440291404724, -0.5859625339508057, 9.501202583312988, 1.8764686584472656, 0.7532026767730713, 10.571063041687012, -18.481319427490234, 7.945397853851318, -2.0791015625, 0.470703125, -0.267333984375, 0, 
395, 1034412783, 0.4397507607936859, -0.44887229800224304, -0.512827455997467, -0.5849332213401794, 9.57664966583252, 1.9300177097320557, 0.5896983742713928, 9.230977058410645, -17.898670196533203, 6.247429370880127, -2.0810546875, 0.47021484375, -0.265380859375, 0, 
396, 1034421116, 0.4396386444568634, -0.4494740068912506, -0.5134626626968384, -0.5839977264404297, 9.628166198730469, 1.8596198558807373, 0.5250871777534485, 8.487138748168945, -16.59825897216797, 5.459739685058594, -2.080322265625, 0.471435546875, -0.260498046875, 0, 
397, 1034429449, 0.4395032525062561, -0.44998306035995483, -0.514029324054718, -0.5832086801528931, 9.8488187789917, 2.0295820236206055, 0.3032092750072479, 7.323047161102295, -14.701881408691406, 4.164504051208496, -2.07470703125, 0.46875, -0.256591796875, 0, 
398, 1034437782, 0.4394153952598572, -0.4504464864730835, -0.5144983530044556, -0.5825030207633972, 9.967700004577637, 2.132289409637451, 0.29168805480003357, 6.518708229064941, -12.891134262084961, 4.317574501037598, -2.0791015625, 0.470703125, -0.256591796875, 0, 
399, 1034446115, 0.4393087327480316, -0.45087873935699463, -0.5148826241493225, -0.5819092988967896, 9.82671070098877, 2.044816493988037, 0.373696506023407, 5.120632171630859, -11.570642471313477, 3.801882743835449, -2.0771484375, 0.474609375, -0.256103515625, 0, 
400, 1034454448, 0.43920230865478516, -0.4512498378753662, -0.5151613354682922, -0.5814551115036011, 9.863364219665527, 2.0660440921783447, 0.29983144998550415, 3.66003155708313, -9.572834968566895, 3.1749234199523926, -2.0791015625, 0.47509765625, -0.25146484375, 0, 
401, 1034462781, 0.439164400100708, -0.45149776339530945, -0.5152856707572937, -0.5811809301376343, 9.862971305847168, 1.898300051689148, -0.003397581400349736, 2.320099115371704, -6.059047698974609, 2.72733998298645, -2.0771484375, 0.475830078125, -0.251708984375, 0, 
402, 1034471114, 0.4391942322254181, -0.4515734910964966, -0.5153405070304871, -0.5810509920120239, 9.406231880187988, 1.7476471662521362, 0.584311842918396, 2.199763298034668, -2.8808329105377197, 1.6038738489151, -2.0791015625, 0.473388671875, -0.2490234375, 0, 
403, 1034479447, 0.4392578899860382, -0.4515611529350281, -0.5153889656066895, -0.580969512462616, 9.402241706848145, 1.866634726524353, 0.5880743861198425, 2.550396680831909, -1.603604793548584, 1.0021953582763672, -2.07666015625, 0.47509765625, -0.252197265625, 0, 
404, 1034487780, 0.43935689330101013, -0.45152711868286133, -0.5154306888580322, -0.5808840990066528, 9.511024475097656, 2.002300977706909, 0.5663340091705322, 2.8812811374664307, -1.1573024988174438, 1.188846230506897, -2.078369140625, 0.47509765625, -0.2529296875, 0, 
405, 1034496113, 0.4394614100456238, -0.4515683054924011, -0.5155003070831299, -0.5807112455368042, 9.633065223693848, 2.1163439750671387, 0.7549048066139221, 3.2980504035949707, -2.437988758087158, 2.1306047439575195, -2.079833984375, 0.473876953125, -0.249755859375, 0, 
406, 1034504446, 0.43951746821403503, -0.4517457187175751, -0.5156242251396179, -0.5804204940795898, 9.593160629272461, 2.1135661602020264, 0.7444238662719727, 3.4498915672302246, -4.9200334548950195, 3.075514078140259, -2.0771484375, 0.475830078125, -0.24853515625, 0, 
407, 1034512779, 0.43949949741363525, -0.4520590007305145, -0.5157986283302307, -0.5800352692604065, 9.348489761352539, 2.0297834873199463, 0.8669499158859253, 3.234143018722534, -7.430485248565674, 3.7138211727142334, -2.078369140625, 0.47705078125, -0.249755859375, 0, 
408, 1034521112, 0.43940091133117676, -0.45248943567276, -0.5160391926765442, -0.5795601606369019, 9.296204566955566, 1.9118889570236206, 0.9978347420692444, 3.1942617893218994, -9.887531280517578, 4.023829936981201, -2.0791015625, 0.477783203125, -0.24853515625, 0, 
409, 1034529445, 0.43921443819999695, -0.45301365852355957, -0.5163296461105347, -0.5790330767631531, 9.387802124023438, 1.9423720836639404, 0.7508190870285034, 2.8435263633728027, -11.892050743103027, 4.00226354598999, -2.077880859375, 0.47900390625, -0.247802734375, 0, 
410, 1034537778, 0.4389968812465668, -0.45358288288116455, -0.5166211128234863, -0.5784921050071716, 9.521970748901367, 1.9308514595031738, 0.5642560720443726, 2.4894092082977295, -12.55720043182373, 4.144344806671143, -2.073974609375, 0.47900390625, -0.240234375, 0, 
411, 1034546111, 0.4387478232383728, -0.4541965126991272, -0.5169458389282227, -0.5779093503952026, 9.403474807739258, 1.897240161895752, 0.7546850442886353, 2.581620693206787, -13.600468635559082, 4.263553619384766, -2.0771484375, 0.4765625, -0.243408203125, 0, 
412, 1034554444, 0.4384884834289551, -0.4548417925834656, -0.5172809362411499, -0.5772984027862549, 9.5671968460083, 1.9508477449417114, 0.5612854361534119, 2.6004984378814697, -14.160192489624023, 4.498436450958252, -2.075439453125, 0.477783203125, -0.239501953125, 0, 
413, 1034562777, 0.4382021427154541, -0.45552322268486023, -0.5175873041152954, -0.5767037868499756, 9.633440971374512, 2.015336513519287, 0.4787176251411438, 1.879278302192688, -14.369255065917969, 4.634653568267822, -2.075927734375, 0.482666015625, -0.243408203125, 0, 
414, 1034571110, 0.43787574768066406, -0.4562651515007019, -0.5178715586662292, -0.5761095285415649, 9.663528442382812, 2.022960662841797, 0.5110148787498474, 1.0960204601287842, -14.991527557373047, 4.875913619995117, -2.078369140625, 0.4833984375, -0.23388671875, 0, 
415, 1034579443, 0.4375230669975281, -0.45700764656066895, -0.518099308013916, -0.5755839943885803, 9.659589767456055, 1.9292552471160889, 0.23746906220912933, -0.020517006516456604, -14.418281555175781, 4.620335102081299, -2.07470703125, 0.48291015625, -0.230224609375, 0, 
416, 1034587776, 0.4371800720691681, -0.4576664865016937, -0.5182440876960754, -0.5751907825469971, 9.735583305358887, 1.8256731033325195, 0.06886841356754303, -1.0577912330627441, -12.349034309387207, 3.8171746730804443, -2.073486328125, 0.484130859375, -0.2314453125, 0, 
417, 1034596109, 0.4368613660335541, -0.4582259953022003, -0.5182989239692688, -0.5749379992485046, 9.665776252746582, 1.8818682432174683, 0.25547662377357483, -2.017812967300415, -9.973082542419434, 3.0328664779663086, -2.075927734375, 0.486572265625, -0.23095703125, 0, 
418, 1034604442, 0.43655845522880554, -0.4587237536907196, -0.5182404518127441, -0.5748236179351807, 9.909398078918457, 2.0279312133789062, 0.05689478665590286, -3.4290802478790283, -7.812931537628174, 2.5903549194335938, -2.071533203125, 0.486572265625, -0.225830078125, 0, 
419, 1034612775, 0.436348557472229, -0.45908865332603455, -0.5179786086082458, -0.5749277472496033, 10.100812911987305, 1.9128291606903076, -0.3760908842086792, -5.2101149559021, -3.5077157020568848, 2.3592889308929443, -2.072265625, 0.484130859375, -0.22509765625, 0, 
420, 1034621108, 0.4362230896949768, -0.45929139852523804, -0.51762855052948, -0.5751761198043823, 9.712347030639648, 1.8265340328216553, 0.3352842926979065, -5.429013729095459, -0.17753225564956665, 1.5548993349075317, -2.080322265625, 0.4873046875, -0.225830078125, 0, 
421, 1034629441, 0.4360578954219818, -0.4594982862472534, -0.5172237753868103, -0.5755001902580261, 9.735440254211426, 1.9996099472045898, 0.4983154833316803, -6.677528381347656, 0.3079983592033386, 1.1696611642837524, -2.080810546875, 0.490478515625, -0.221435546875, 0, 
422, 1034637774, 0.4358401298522949, -0.4597204029560089, -0.5167241096496582, -0.5759365558624268, 9.893828392028809, 1.8956395387649536, 0.20036859810352325, -8.648159980773926, 1.0980695486068726, 0.7805298566818237, -2.076416015625, 0.4873046875, -0.224609375, 0, 
423, 1034646107, 0.43563199043273926, -0.45988187193870544, -0.5161579847335815, -0.5764726400375366, 9.664554595947266, 1.8913390636444092, 0.34179937839508057, -9.460847854614258, 2.6691181659698486, 0.25456708669662476, -2.073486328125, 0.48486328125, -0.220703125, 0, 
424, 1034654440, 0.4353768229484558, -0.4600554406642914, -0.5155599117279053, -0.5770617127418518, 9.65306568145752, 1.9263020753860474, 0.36862871050834656, -10.460163116455078, 2.7727794647216797, -0.1522766351699829, -2.078369140625, 0.488525390625, -0.227783203125, 0, 
425, 1034662773, 0.4350774586200714, -0.46024295687675476, -0.5149631500244141, -0.5776705145835876, 9.490272521972656, 1.7774568796157837, 0.5898823738098145, -10.951213836669922, 2.4576220512390137, -0.5259883999824524, -2.073486328125, 0.4853515625, -0.226318359375, 0, 
426, 1034671106, 0.43474632501602173, -0.46043336391448975, -0.5144311189651489, -0.5782418251037598, 9.358819007873535, 1.7622123956680298, 0.6290248036384583, -10.391798973083496, 1.5919889211654663, -0.9496734738349915, -2.07666015625, 0.4853515625, -0.226318359375, 0, 
427, 1034679439, 0.4344022274017334, -0.46060481667518616, -0.5139653086662292, -0.5787779092788696, 9.447423934936523, 1.7339640855789185, 0.5165009498596191, -9.584077835083008, 1.025888442993164, -1.3887780904769897, -2.071533203125, 0.4873046875, -0.22265625, 0, 
428, 1034687772, 0.4340425133705139, -0.4607608914375305, -0.5135632753372192, -0.5792803168296814, 9.381002426147461, 1.806864857673645, 0.7250794172286987, -8.846823692321777, 0.45171985030174255, -1.8291127681732178, -2.073486328125, 0.486572265625, -0.22509765625, 0, 
429, 1034696105, 0.43363088369369507, -0.4609612822532654, -0.5132237672805786, -0.5797298550605774, 9.393047332763672, 1.804976224899292, 0.5800864100456238, -8.56857681274414, -0.9827924966812134, -2.005671739578247, -2.072265625, 0.484130859375, -0.22705078125, 0, 
430, 1034704438, 0.43318790197372437, -0.46112847328186035, -0.5129355192184448, -0.5801827311515808, 9.443544387817383, 1.680748701095581, 0.5127033591270447, -8.182775497436523, -1.2204670906066895, -2.8414382934570312, -2.072265625, 0.4873046875, -0.21875, 0, 
431, 1034712771, 0.4328092932701111, -0.46114951372146606, -0.512627899646759, -0.5807202458381653, 9.582999229431152, 1.7515803575515747, 0.2833603620529175, -7.657299518585205, 1.048557162284851, -3.7338898181915283, -2.077880859375, 0.48291015625, -0.226318359375, 0, 
432, 1034721104, 0.43255293369293213, -0.4609801769256592, -0.5122713446617126, -0.5813603401184082, 9.554443359375, 1.813002586364746, -0.0357820987701416, -6.860440731048584, 4.37689733505249, -4.404957294464111, -2.075439453125, 0.482177734375, -0.22509765625, 0, 
433, 1034729437, 0.4324042797088623, -0.46065056324005127, -0.5119554400444031, -0.58201003074646, 9.450844764709473, 1.7489259243011475, 0.449350506067276, -4.9677019119262695, 6.230752944946289, -4.9830708503723145, -2.075439453125, 0.482177734375, -0.230224609375, 0, 
434, 1034737770, 0.43234533071517944, -0.4602162837982178, -0.5116958618164062, -0.5826252102851868, 9.584953308105469, 1.9138256311416626, 0.4159241020679474, -3.085183620452881, 7.151533603668213, -5.159117221832275, -2.077880859375, 0.48046875, -0.22509765625, 0, 
435, 1034746103, 0.432302862405777, -0.45983368158340454, -0.511462926864624, -0.5831630825996399, 9.521721839904785, 2.096353054046631, 0.6558986306190491, -2.529303789138794, 6.201015472412109, -4.3651018142700195, -2.07861328125, 0.478515625, -0.228759765625, 0, 
436, 1034754436, 0.4322277307510376, -0.4595857262611389, -0.5112859010696411, -0.5835694074630737, 9.578953742980957, 2.081611156463623, 0.7670816779136658, -2.1636345386505127, 3.731443405151367, -3.258847951889038, -2.077880859375, 0.48095703125, -0.22509765625, 0, 
437, 1034762769, 0.43209579586982727, -0.45947888493537903, -0.5111557841300964, -0.5838650465011597, 9.516666412353516, 2.052053213119507, 0.7822933197021484, -2.2054624557495117, 1.216304898262024, -2.35520339012146, -2.077392578125, 0.47216796875, -0.230712890625, 0, 
438, 1034771102, 0.4318888187408447, -0.45952683687210083, -0.5110143423080444, -0.5841042995452881, 9.597550392150879, 1.9728463888168335, 0.46823424100875854, -3.297192096710205, -0.8370731472969055, -1.4710766077041626, -2.0791015625, 0.475341796875, -0.234375, 0, 
439, 1034779435, 0.431840181350708, -0.45941367745399475, -0.5109056830406189, -0.5843243598937988, 9.64449405670166, 1.8718311786651611, 0.2904399335384369, -0.9396069645881653, 1.2479127645492554, -1.4157755374908447, -2.07666015625, 0.478515625, -0.22705078125, 0, 
440, 1034787768, 0.4318447709083557, -0.45917144417762756, -0.510755181312561, -0.5846428871154785, 9.621052742004395, 1.95151686668396, 0.39355891942977905, -0.8655818104743958, 3.5353410243988037, -2.2237000465393066, -2.077392578125, 0.47216796875, -0.233154296875, 0, 
441, 1034796101, 0.4318544268608093, -0.4588962197303772, -0.510517418384552, -0.5850592851638794, 9.774372100830078, 2.070078134536743, 0.27842792868614197, -2.0242159366607666, 4.966638565063477, -2.4356064796447754, -2.080322265625, 0.479248046875, -0.232666015625, 0, 
442, 1034804434, 0.43187761306762695, -0.4585571885108948, -0.5101866126060486, -0.5855962634086609, 9.857751846313477, 1.9759588241577148, 0.1936359852552414, -3.157543897628784, 6.893418788909912, -2.9127490520477295, -2.076171875, 0.472900390625, -0.237060546875, 0, 
443, 1034812767, 0.4319046139717102, -0.4581180214881897, -0.5097812414169312, -0.586272656917572, 9.73801040649414, 1.9267090559005737, 0.28991374373435974, -4.114671230316162, 9.043478012084961, -3.9342188835144043, -2.077392578125, 0.474609375, -0.236328125, 0, 
