PacketCounter,SampleTimeFine,Quat_W,Quat_X,Quat_Y,Quat_Z,Acc_X,Acc_Y,Acc_Z,Gyr_X,Gyr_Y,Gyr_Z,Mag_X,Mag_Y,Mag_Z,Status,
0, 1039429249, 0.41747963428497314, -0.4682265520095825, -0.49903425574302673, -0.5978675484657288, 0, 0, 0, 0, 0, 0, -2.048828125, 0.507568359375, -0.085205078125, 0, 
1, 1039437582, 0.4174762964248657, -0.46823710203170776, -0.49903154373168945, -0.5978639721870422, 9.4727144241333, 1.9975790977478027, 0.6942758560180664, 1.0349303483963013, -1.4656976461410522, 0.464322030544281, -2.04931640625, 0.5107421875, -0.087158203125, 0, 
2, 1039445915, 0.417460173368454, -0.4682477116584778, -0.49904030561447144, -0.5978595614433289, 9.488699913024902, 1.9571110010147095, 0.6509154438972473, 1.0551398992538452, -1.6320621967315674, 0.29964813590049744, -2.050537109375, 0.511962890625, -0.08837890625, 0, 
3, 1039454248, 0.41744130849838257, -0.46825045347213745, -0.4990443289279938, -0.5978673100471497, 9.530243873596191, 1.979790210723877, 0.5936693549156189, 0.9539124369621277, -1.47356116771698, 0.1752653867006302, -2.04931640625, 0.511962890625, -0.085205078125, 0, 
4, 1039462581, 0.4174155592918396, -0.4682474136352539, -0.4990535378456116, -0.597879946231842, 9.487157821655273, 1.9924026727676392, 0.6501471400260925, 0.9560640454292297, -1.4777108430862427, 0.02580634132027626, -2.046875, 0.511962890625, -0.08447265625, 0, 
5, 1039470914, 0.417372465133667, -0.4682457149028778, -0.49906787276268005, -0.5978994369506836, 9.457579612731934, 1.9469575881958008, 0.6849605441093445, 0.8344476819038391, -1.5854443311691284, -0.18829022347927094, -2.045654296875, 0.51123046875, -0.087158203125, 0, 
6, 1039479247, 0.41731274127960205, -0.46823927760124207, -0.49908363819122314, -0.5979328751564026, 9.48958683013916, 1.9610590934753418, 0.6212670803070068, 0.6682881116867065, -1.5873652696609497, -0.4381827116012573, -2.050048828125, 0.509521484375, -0.085693359375, 0, 
7, 1039487580, 0.4172363877296448, -0.46823975443840027, -0.499095618724823, -0.5979759097099304, 9.489908218383789, 1.9709641933441162, 0.643425703048706, 0.4255676865577698, -1.6654373407363892, -0.5660744905471802, -2.04931640625, 0.5107421875, -0.087646484375, 0, 
8, 1039495913, 0.4171452820301056, -0.46824055910110474, -0.4990995228290558, -0.5980355143547058, 9.478476524353027, 1.9632084369659424, 0.635735034942627, 0.1489083468914032, -1.6268625259399414, -0.7208101749420166, -2.048828125, 0.5087890625, -0.085693359375, 0, 
9, 1039504246, 0.4170392155647278, -0.46823883056640625, -0.49910590052604675, -0.5981056094169617, 9.491995811462402, 1.9840819835662842, 0.6042513251304626, 0.014587306417524815, -1.64673912525177, -0.9448578357696533, -2.050537109375, 0.511474609375, -0.08837890625, 0, 
10, 1039512579, 0.41694825887680054, -0.4682263135910034, -0.4991152286529541, -0.5981711149215698, 9.526839256286621, 1.9918347597122192, 0.6400004029273987, 0.2296956330537796, -1.5078076124191284, -0.8790805339813232, -2.047607421875, 0.500732421875, -0.088134765625, 0, 
11, 1039520912, 0.4168584942817688, -0.4682164490222931, -0.4991320073604584, -0.5982273817062378, 9.504874229431152, 2.0313220024108887, 0.6403178572654724, 0.3463684618473053, -1.6170778274536133, -0.8554641604423523, -2.050048828125, 0.50830078125, -0.085693359375, 0, 
12, 1039529245, 0.4167652726173401, -0.4682297706604004, -0.49914154410362244, -0.5982740521430969, 9.514650344848633, 2.0248873233795166, 0.6813174486160278, 0.1971399486064911, -1.8585944175720215, -0.6137682795524597, -2.046875, 0.505615234375, -0.0888671875, 0, 
13, 1039537578, 0.41666609048843384, -0.4682527184486389, -0.49916350841522217, -0.5983067750930786, 9.533771514892578, 2.0332541465759277, 0.6418253779411316, 0.2990846335887909, -2.132026195526123, -0.6041373610496521, -2.047607421875, 0.510009765625, -0.085693359375, 0, 
14, 1039545911, 0.41656494140625, -0.4682767987251282, -0.49918892979621887, -0.5983370542526245, 9.543954849243164, 2.019829273223877, 0.6248435378074646, 0.32925817370414734, -2.199903964996338, -0.6148440837860107, -2.053955078125, 0.504638671875, -0.085693359375, 0, 
15, 1039554244, 0.416469544172287, -0.4683031737804413, -0.4992166757583618, -0.5983595848083496, 9.524620056152344, 2.0112364292144775, 0.659157931804657, 0.42451751232147217, -2.2329208850860596, -0.5292156934738159, -2.04638671875, 0.5087890625, -0.083251953125, 0, 
16, 1039562577, 0.41635575890541077, -0.468334436416626, -0.4992501735687256, -0.5983863472938538, 9.460101127624512, 1.984521508216858, 0.6720200181007385, 0.2959596812725067, -2.413193941116333, -0.7011128664016724, -2.047607421875, 0.505126953125, -0.085205078125, 0, 
17, 1039570910, 0.4162393808364868, -0.46836838126182556, -0.4992680847644806, -0.5984258651733398, 9.458344459533691, 2.0016236305236816, 0.6281013488769531, 0.049806877970695496, -2.27262282371521, -0.6838487982749939, -2.04931640625, 0.50830078125, -0.083984375, 0, 
18, 1039579243, 0.4161199927330017, -0.46839895844459534, -0.4992750883102417, -0.5984790921211243, 9.459684371948242, 2.023670196533203, 0.6523666381835938, -0.13521753251552582, -2.1241371631622314, -0.7317473888397217, -2.050537109375, 0.5126953125, -0.085205078125, 0, 
19, 1039587576, 0.4159961938858032, -0.46843501925468445, -0.49927011132240295, -0.5985411405563354, 9.496094703674316, 2.0375332832336426, 0.6233071088790894, -0.3557817339897156, -2.066044330596924, -0.7122038006782532, -2.050048828125, 0.50634765625, -0.08447265625, 0, 
20, 1039595909, 0.4158926010131836, -0.4684559106826782, -0.49923908710479736, -0.5986225605010986, 9.545909881591797, 2.0068187713623047, 0.582297682762146, -0.485543429851532, -1.5352146625518799, -0.5844911932945251, -2.04638671875, 0.5087890625, -0.085205078125, 0, 
21, 1039604242, 0.4158153533935547, -0.46846264600753784, -0.49919217824935913, -0.5987100005149841, 9.557557106018066, 2.028210163116455, 0.5844516158103943, -0.4089568555355072, -1.1050492525100708, -0.4046792984008789, -2.050048828125, 0.505859375, -0.083251953125, 0, 
22, 1039612575, 0.41574883460998535, -0.46846792101860046, -0.4991450309753418, -0.5987913608551025, 9.538008689880371, 2.0299196243286133, 0.6598354578018188, -0.28992751240730286, -1.0607366561889648, -0.28362640738487244, -2.050048828125, 0.504638671875, -0.083740234375, 0, 
23, 1039620908, 0.4156991243362427, -0.4684629440307617, -0.4990992248058319, -0.5988680124282837, 9.553014755249023, 2.025649309158325, 0.6142074465751648, -0.07543391734361649, -0.8932707905769348, -0.20409421622753143, -2.045654296875, 0.509521484375, -0.082763671875, 0, 
24, 1039629241, 0.4156605005264282, -0.4684399664402008, -0.49904513359069824, -0.5989578366279602, 9.607462882995605, 2.0381524562835693, 0.5801313519477844, -0.06434296071529388, -0.5419971942901611, -0.25055843591690063, -2.053955078125, 0.50634765625, -0.08251953125, 0, 
25, 1039637574, 0.4156437814235687, -0.46840715408325195, -0.49897295236587524, -0.5990554094314575, 9.62796401977539, 2.065197229385376, 0.5263847708702087, -0.06928650289773941, -0.15219978988170624, -0.07277003675699234, -2.048828125, 0.505859375, -0.08447265625, 0, 
26, 1039645907, 0.4156609773635864, -0.46835967898368835, -0.49888816475868225, -0.5991511344909668, 9.622784614562988, 2.0799319744110107, 0.5542234778404236, 0.14240235090255737, 0.25507935881614685, 0.20431195199489594, -2.04638671875, 0.505126953125, -0.083251953125, 0, 
27, 1039654240, 0.4156889021396637, -0.46832820773124695, -0.498782753944397, -0.5992441177368164, 9.599937438964844, 2.116948366165161, 0.5514340996742249, -0.032069019973278046, 0.30487340688705444, 0.5444177389144897, -2.05078125, 0.50830078125, -0.083740234375, 0, 
28, 1039662573, 0.41571250557899475, -0.468347430229187, -0.4986956715583801, -0.5992852449417114, 9.542994499206543, 2.07859468460083, 0.6744272708892822, 0.15920527279376984, -0.5892042517662048, 1.0423328876495361, -2.05126953125, 0.50634765625, -0.083740234375, 0, 
29, 1039670906, 0.41571569442749023, -0.4684261381626129, -0.49863386154174805, -0.5992727875709534, 9.523758888244629, 2.071683168411255, 0.7578938007354736, 0.25792253017425537, -1.702168345451355, 1.4167616367340088, -2.048828125, 0.5087890625, -0.087158203125, 0, 
30, 1039679239, 0.415687620639801, -0.4685659408569336, -0.4985716938972473, -0.5992347598075867, 9.52232837677002, 2.038949966430664, 0.6838222146034241, -0.11516159027814865, -2.589829683303833, 1.7357357740402222, -2.048828125, 0.50634765625, -0.08203125, 0, 
31, 1039687572, 0.4156339764595032, -0.468738853931427, -0.49850815534591675, -0.5991896390914917, 9.5131196975708, 2.026054620742798, 0.675940990447998, -0.42747601866722107, -3.066049814224243, 1.7929069995880127, -2.05078125, 0.50634765625, -0.083251953125, 0, 
32, 1039695905, 0.41558247804641724, -0.46892350912094116, -0.4984520673751831, -0.5991275310516357, 9.495146751403809, 2.047302722930908, 0.6889789700508118, -0.3082416355609894, -3.3086414337158203, 1.9482053518295288, -2.047607421875, 0.50634765625, -0.08251953125, 0, 
33, 1039704238, 0.41549745202064514, -0.46916985511779785, -0.49839651584625244, -0.5990397334098816, 9.475337982177734, 2.0745792388916016, 0.7786365747451782, -0.6942993998527527, -4.209545612335205, 2.231525182723999, -2.04931640625, 0.5087890625, -0.08203125, 0, 
34, 1039712571, 0.41535502672195435, -0.4695078730583191, -0.4982675313949585, -0.5989809632301331, 9.511664390563965, 1.9802049398422241, 0.6805112957954407, -2.3931636810302734, -4.759637355804443, 2.7027244567871094, -2.049560546875, 0.50390625, -0.08251953125, 0, 
35, 1039720904, 0.4152212142944336, -0.4698055684566498, -0.4981788098812103, -0.5989140868186951, 9.565034866333008, 1.9627853631973267, 0.5828406810760498, -1.716153860092163, -4.64278507232666, 2.2740702629089355, -2.048095703125, 0.507568359375, -0.081298828125, 0, 
36, 1039729237, 0.41510963439941406, -0.4700905978679657, -0.498085618019104, -0.5988451838493347, 9.566696166992188, 2.045081615447998, 0.5615498423576355, -1.528119683265686, -4.3794965744018555, 2.4201483726501465, -2.047607421875, 0.507080078125, -0.08251953125, 0, 
37, 1039737570, 0.41502076387405396, -0.4703863859176636, -0.4980001747608185, -0.5987457633018494, 9.595958709716797, 2.043097734451294, 0.5673449635505676, -1.1700838804244995, -4.548678398132324, 2.7959349155426025, -2.050048828125, 0.509521484375, -0.074462890625, 0, 
38, 1039745903, 0.41495776176452637, -0.47068214416503906, -0.4979458451271057, -0.598602294921875, 9.611781120300293, 2.0153911113739014, 0.4829466938972473, -0.4440227448940277, -4.83922004699707, 3.067445755004883, -2.05126953125, 0.511474609375, -0.078125, 0, 
39, 1039754236, 0.41494038701057434, -0.47094613313674927, -0.4979574978351593, -0.5983968377113342, 9.674964904785156, 2.0475852489471436, 0.43829345703125, 0.9923595786094666, -5.0378594398498535, 3.143059015274048, -2.044921875, 0.511474609375, -0.076416015625, 0, 
40, 1039762569, 0.41494831442832947, -0.47122859954833984, -0.4979986548423767, -0.5981346964836121, 9.67508316040039, 2.119818687438965, 0.5369475483894348, 1.688733696937561, -5.557751178741455, 3.618663787841797, -2.043701171875, 0.511474609375, -0.07373046875, 0, 
41, 1039770902, 0.4149433374404907, -0.4715648889541626, -0.49805307388305664, -0.5978277921676636, 9.679893493652344, 2.0635135173797607, 0.5577929615974426, 1.7110440731048584, -6.447385787963867, 4.043528079986572, -2.047607421875, 0.5107421875, -0.07373046875, 0, 
42, 1039779235, 0.41493460536003113, -0.4719354212284088, -0.4981212317943573, -0.5974845886230469, 9.678915023803711, 2.058518648147583, 0.5319822430610657, 1.855712890625, -7.076162815093994, 4.372951984405518, -2.047607421875, 0.513916015625, -0.07373046875, 0, 
43, 1039787568, 0.41490963101387024, -0.47233349084854126, -0.4981963634490967, -0.5971246361732483, 9.678318977355957, 2.03560733795166, 0.5117610096931458, 1.7650129795074463, -7.554022789001465, 4.47072172164917, -2.046875, 0.5126953125, -0.0732421875, 0, 
44, 1039795901, 0.4148777723312378, -0.47273528575897217, -0.4982761740684509, -0.59676194190979, 9.612844467163086, 2.010960817337036, 0.48587438464164734, 1.7565603256225586, -7.684502601623535, 4.430430889129639, -2.041748046875, 0.520751953125, -0.07470703125, 0, 
45, 1039804234, 0.4148502051830292, -0.47314879298210144, -0.4983777701854706, -0.5963686108589172, 9.593400001525879, 1.9703435897827148, 0.5505005717277527, 2.1041200160980225, -8.067179679870605, 4.574741840362549, -2.045654296875, 0.5107421875, -0.0712890625, 0, 
46, 1039812567, 0.4148133397102356, -0.4735839366912842, -0.4984939694404602, -0.5959515571594238, 9.646082878112793, 2.0054378509521484, 0.4815782606601715, 2.2038872241973877, -8.552002906799316, 4.693103790283203, -2.045654296875, 0.515869140625, -0.0712890625, 0, 
47, 1039820900, 0.4147683382034302, -0.4740481972694397, -0.4986172318458557, -0.5955106019973755, 9.664031028747559, 1.9961583614349365, 0.49420931935310364, 2.2056546211242676, -9.03603744506836, 4.908494472503662, -2.045654296875, 0.5146484375, -0.065673828125, 0, 
48, 1039829233, 0.4147294759750366, -0.47450995445251465, -0.49875861406326294, -0.5950514674186707, 9.701883316040039, 1.9630227088928223, 0.4581083357334137, 2.5347208976745605, -9.202632904052734, 4.935646057128906, -2.040771484375, 0.513427734375, -0.06494140625, 0, 
49, 1039837566, 0.41468584537506104, -0.4749656021595001, -0.4989379942417145, -0.5945675373077393, 9.675854682922363, 1.9776235818862915, 0.4158332347869873, 3.0205206871032715, -9.555801391601562, 4.738979816436768, -2.038818359375, 0.518310546875, -0.059326171875, 0, 
50, 1039845899, 0.41468101739883423, -0.4754106402397156, -0.4991360902786255, -0.5940489172935486, 9.752687454223633, 2.0419023036956787, 0.3346855938434601, 3.7253735065460205, -9.544787406921387, 5.069557189941406, -2.046875, 0.51904296875, -0.061767578125, 0, 
51, 1039854232, 0.4147261679172516, -0.4758422374725342, -0.4993552565574646, -0.5934872031211853, 9.797880172729492, 2.0563321113586426, 0.31433916091918945, 4.595130443572998, -9.484542846679688, 5.484687805175781, -2.043212890625, 0.520263671875, -0.06005859375, 0, 
52, 1039862565, 0.41485196352005005, -0.4762391448020935, -0.4996117353439331, -0.5928646922111511, 9.912562370300293, 2.14308762550354, 0.21580447256565094, 6.043487548828125, -9.266130447387695, 6.013800621032715, -2.046142578125, 0.526611328125, -0.056884765625, 0, 
53, 1039870898, 0.41521161794662476, -0.4765479862689972, -0.4999091327190399, -0.5921136140823364, 10.122645378112793, 2.3390023708343506, -0.0072573209181427956, 9.292346000671387, -8.012568473815918, 7.774829864501953, -2.044921875, 0.524169921875, -0.0537109375, 0, 
54, 1039879231, 0.4162786602973938, -0.4764587879180908, -0.5004034042358398, -0.5910177826881409, 10.249713897705078, 2.428720235824585, -0.037442777305841446, 20.17481803894043, -3.29624605178833, 11.483238220214844, -2.046875, 0.524658203125, -0.057373046875, 0, 
55, 1039887564, 0.41767433285713196, -0.47618865966796875, -0.5009633302688599, -0.5897751450538635, 10.102121353149414, 2.2071571350097656, 0.25550949573516846, 24.910640716552734, -0.8930665850639343, 13.311713218688965, -2.035888671875, 0.531494140625, -0.062255859375, 0, 
56, 1039895897, 0.4191504418849945, -0.4759780764579773, -0.5014724135398865, -0.5884638428688049, 10.296172142028809, 2.2701547145843506, 0.3754882216453552, 25.153854370117188, -0.9887615442276001, 15.110477447509766, -2.04150390625, 0.53271484375, -0.064697265625, 0, 
57, 1039904230, 0.4209648668766022, -0.47565650939941406, -0.5019260048866272, -0.5870400071144104, 10.328420639038086, 2.4456138610839844, 0.30809304118156433, 28.337778091430664, 1.8341213464736938, 18.08603286743164, -2.042236328125, 0.53515625, -0.06201171875, 0, 
58, 1039912563, 0.42298951745033264, -0.47533273696899414, -0.5022950172424316, -0.5855292677879333, 10.479373931884766, 2.2511940002441406, 0.5574480891227722, 29.640094757080078, 3.2153966426849365, 20.832014083862305, -2.041015625, 0.535888671875, -0.065185546875, 0, 
59, 1039920896, 0.424934446811676, -0.4752376973628998, -0.5024484992027283, -0.5840649008750916, 10.46216869354248, 2.304487466812134, 0.7999789118766785, 25.73189353942871, 2.389413356781006, 22.9021053314209, -2.03955078125, 0.54638671875, -0.06298828125, 0, 
60, 1039929229, 0.4268139600753784, -0.475557416677475, -0.5025569796562195, -0.5823383927345276, 10.61467456817627, 2.552039384841919, 0.8022541999816895, 24.3311824798584, -2.8541977405548096, 27.07498550415039, -2.040771484375, 0.55029296875, -0.0673828125, 0, 
61, 1039937562, 0.4288753867149353, -0.4762491285800934, -0.5026398301124573, -0.5801831483840942, 10.684773445129395, 2.4949862957000732, 0.565874457359314, 26.096710205078125, -7.219512462615967, 33.780941009521484, -2.039306640625, 0.5595703125, -0.070068359375, 0, 
62, 1039945895, 0.43070095777511597, -0.4775024950504303, -0.5024232268333435, -0.577984094619751, 11.257498741149902, 2.8094377517700195, 0.7586968541145325, 19.152143478393555, -11.861052513122559, 38.006736755371094, -2.0361328125, 0.564453125, -0.06689453125, 0, 
63, 1039954228, 0.43307995796203613, -0.47888556122779846, -0.5019610524177551, -0.5754578709602356, 11.460792541503906, 3.1044631004333496, 0.2750251889228821, 22.320363998413086, -9.754180908203125, 46.846641540527344, -2.03271484375, 0.576416015625, -0.064697265625, 0, 
64, 1039962561, 0.43579426407814026, -0.4805542528629303, -0.5014467239379883, -0.5724582076072693, 11.794384002685547, 2.802119255065918, 0.30262303352355957, 25.690256118774414, -12.516437530517578, 54.639686584472656, -2.031982421875, 0.58642578125, -0.0634765625, 0, 
65, 1039970894, 0.43892112374305725, -0.48236703872680664, -0.5006014704704285, -0.5692755579948425, 12.376211166381836, 2.9698150157928467, 0.3837611675262451, 26.201202392578125, -10.022660255432129, 62.15994644165039, -2.032470703125, 0.59521484375, -0.0634765625, 0, 
66, 1039979227, 0.44250965118408203, -0.48429542779922485, -0.49922749400138855, -0.5660575032234192, 12.709512710571289, 3.1385083198547363, 0.48147323727607727, 24.67658042907715, -4.800105094909668, 70.29591369628906, -2.025390625, 0.606201171875, -0.063232421875, 0, 
67, 1039987560, 0.44674038887023926, -0.486245721578598, -0.49729403853416443, -0.5627548694610596, 13.035957336425781, 3.2437140941619873, 0.1262311488389969, 25.041868209838867, 2.2840988636016846, 79.68213653564453, -2.02880859375, 0.621826171875, -0.069580078125, 0, 
68, 1039995893, 0.45165640115737915, -0.48831233382225037, -0.4949311316013336, -0.559112548828125, 13.40192699432373, 3.270737409591675, -0.20556966960430145, 27.913909912109375, 6.432130813598633, 90.74360656738281, -2.022216796875, 0.639404296875, -0.06982421875, 0, 
69, 1040004226, 0.4571850895881653, -0.49045953154563904, -0.49188750982284546, -0.5554137825965881, 13.650938987731934, 3.1156604290008545, -0.29642942547798157, 26.673633575439453, 13.837778091430664, 100.92356872558594, -2.016845703125, 0.655517578125, -0.073974609375, 0, 
70, 1040012559, 0.46293026208877563, -0.49299612641334534, -0.4878075420856476, -0.5519970655441284, 13.661230087280273, 3.303119659423828, -0.744253396987915, 15.867904663085938, 20.73922348022461, 110.4276123046875, -2.01708984375, 0.676025390625, -0.081787109375, 0, 
71, 1040020892, 0.46886295080184937, -0.4960196912288666, -0.4827638268470764, -0.5487052798271179, 13.891860008239746, 3.601550817489624, -0.2735985219478607, 5.880352020263672, 25.292104721069336, 120.86067962646484, -2.0078125, 0.698486328125, -0.08349609375, 0, 
72, 1040029225, 0.47519776225090027, -0.499344140291214, -0.47684651613235474, -0.5454047918319702, 13.938940048217773, 3.7587995529174805, -0.21420782804489136, 0.15226629376411438, 31.255441665649414, 131.90399169921875, -1.999267578125, 0.72265625, -0.095947265625, 0, 
73, 1040037558, 0.4819892644882202, -0.5030032992362976, -0.47043129801750183, -0.5416409373283386, 13.838762283325195, 3.456447124481201, -0.1612769216299057, 0.4064416289329529, 31.822694778442383, 143.97637939453125, -1.991943359375, 0.749267578125, -0.1044921875, 0, 
74, 1040045891, 0.4888371229171753, -0.5074169039726257, -0.46353083848953247, -0.5373193025588989, 14.803915977478027, 3.2631638050079346, 0.006327887997031212, -4.210484027862549, 25.914377212524414, 156.32688903808594, -1.989501953125, 0.778076171875, -0.109375, 0, 
75, 1040054224, 0.4958347976207733, -0.5122026205062866, -0.45575815439224243, -0.5329982042312622, 15.940120697021484, 2.7744011878967285, -0.5117723941802979, -12.116198539733887, 30.000776290893555, 165.89979553222656, -1.980712890625, 0.80908203125, -0.1142578125, 0, 
76, 1040062557, 0.5026519894599915, -0.5173578858375549, -0.44738537073135376, -0.528710126876831, 17.5970401763916, 1.6230449676513672, -1.3025081157684326, -20.511560440063477, 30.472118377685547, 170.88348388671875, -1.962646484375, 0.83447265625, -0.124267578125, 0, 
77, 1040070890, 0.5091835856437683, -0.5227558016777039, -0.43877580761909485, -0.5243476629257202, 17.51617431640625, -0.386189341545105, -1.7635209560394287, -25.48627471923828, 28.072473526000977, 172.51510620117188, -1.953369140625, 0.869873046875, -0.127197265625, 0, 
78, 1040079223, 0.5165103673934937, -0.5278110504150391, -0.43020790815353394, -0.5191917419433594, 15.191535949707031, -2.2800683975219727, -4.93654727935791, -12.280675888061523, 29.332210540771484, 181.4215850830078, -1.939453125, 0.89794921875, -0.134033203125, 0, 
79, 1040087556, 0.5227729082107544, -0.534457266330719, -0.4235573709011078, -0.5115362405776978, 16.4483699798584, -4.806685447692871, -5.8200860023498535, -2.829923391342163, -20.068456649780273, 187.09158325195312, -1.924560546875, 0.931396484375, -0.13525390625, 0, 
80, 1040095889, 0.5279500484466553, -0.5419411063194275, -0.4182549715042114, -0.5026307106018066, 21.822118759155273, -5.116654872894287, -4.093940258026123, -0.06203966215252876, -51.18036651611328, 183.3949737548828, -1.906494140625, 0.96435546875, -0.130126953125, 0, 
81, 1040104222, 0.5360164642333984, -0.544262170791626, -0.41213274002075195, -0.4966062605381012, 17.363666534423828, -5.981456756591797, -2.9007081985473633, 36.711578369140625, 28.57840347290039, 158.87701416015625, -1.88525390625, 0.990966796875, -0.135986328125, 0, 
82, 1040112555, 0.5449386835098267, -0.5448611974716187, -0.4067789316177368, -0.49061715602874756, 12.364076614379883, -7.368529319763184, -6.620209693908691, 60.86000442504883, 39.75874710083008, 148.9346160888672, -1.870361328125, 1.013916015625, -0.1572265625, 0, 
83, 1040120888, 0.5510441064834595, -0.547252357006073, -0.40466049313545227, -0.4828265309333801, 17.874338150024414, -8.667438507080078, -0.40658628940582275, 58.2310791015625, -25.794830322265625, 129.22335815429688, -1.856689453125, 1.039306640625, -0.161376953125, 0, 
84, 1040129221, 0.5582865476608276, -0.5450328588485718, -0.4043603837490082, -0.4772360920906067, 15.232109069824219, -6.958322048187256, -2.471276044845581, 101.55519104003906, 13.885056495666504, 80.74737548828125, -1.845703125, 1.05712890625, -0.172607421875, 0, 
85, 1040137554, 0.5635325908660889, -0.544049084186554, -0.4054420292377472, -0.4712373614311218, 18.290250778198242, -5.025083541870117, -2.335529088973999, 88.45408630371094, -18.947650909423828, 67.29705047607422, -1.838623046875, 1.06640625, -0.185546875, 0, 
86, 1040145887, 0.569075882434845, -0.5430277585983276, -0.4052724838256836, -0.46586906909942627, 19.523706436157227, -3.619762420654297, -1.8775832653045654, 79.33477783203125, -2.678687334060669, 73.490234375, -1.82958984375, 1.07568359375, -0.197021484375, 0, 
87, 1040154220, 0.5748668909072876, -0.542227029800415, -0.4036228656768799, -0.4610995352268219, 18.39556312561035, -3.671168327331543, -1.650590419769287, 66.65198516845703, 13.390013694763184, 82.66680145263672, -1.8193359375, 1.087158203125, -0.2099609375, 0, 
88, 1040162553, 0.5805736184120178, -0.5417482852935791, -0.40115854144096375, -0.4566412568092346, 17.1662540435791, -4.397787570953369, -1.274641990661621, 56.57168960571289, 19.59366226196289, 87.5380859375, -1.80712890625, 1.10205078125, -0.219970703125, 0, 
89, 1040170886, 0.5860210657119751, -0.5415355563163757, -0.3985660970211029, -0.45218348503112793, 16.254453659057617, -4.181360244750977, -1.291968822479248, 51.72237777709961, 17.57310676574707, 88.32649230957031, -1.79443359375, 1.10986328125, -0.23095703125, 0, 
90, 1040179219, 0.5911522507667542, -0.5417028665542603, -0.3961617648601532, -0.4473915696144104, 15.863475799560547, -3.7831084728240967, -1.5241811275482178, 49.29342269897461, 9.418889045715332, 89.73616790771484, -1.789794921875, 1.122802734375, -0.23876953125, 0, 
91, 1040187552, 0.5960304141044617, -0.5422006249427795, -0.394034743309021, -0.4421641230583191, 15.666548728942871, -3.6575815677642822, -1.6088600158691406, 48.81810760498047, 0.5649144649505615, 91.4522705078125, -1.773681640625, 1.1357421875, -0.249755859375, 0, 
92, 1040195885, 0.600597083568573, -0.5430354475975037, -0.3921268880367279, -0.43662169575691223, 15.518072128295898, -3.2334156036376953, -1.5684993267059326, 46.75481414794922, -7.374459743499756, 92.33345794677734, -1.7626953125, 1.148193359375, -0.25830078125, 0, 
93, 1040204218, 0.6048188805580139, -0.5441733002662659, -0.3902391791343689, -0.43103283643722534, 15.009576797485352, -2.4251084327697754, -1.4455474615097046, 42.07087707519531, -11.507145881652832, 92.12936401367188, -1.75048828125, 1.16552734375, -0.261962890625, 0, 
94, 1040212551, 0.6085435152053833, -0.545584499835968, -0.3884252905845642, -0.42561104893684387, 13.878277778625488, -1.5709621906280518, -1.2153550386428833, 35.59474182128906, -15.218541145324707, 88.70744323730469, -1.74169921875, 1.1748046875, -0.263427734375, 0, 
95, 1040220884, 0.6113282442092896, -0.5472157001495361, -0.3869946599006653, -0.42080193758010864, 12.76577091217041, -0.8211119174957275, -0.6286919116973877, 25.69839096069336, -20.07184410095215, 76.38191986083984, -1.732666015625, 1.1884765625, -0.262451171875, 0, 
96, 1040229217, 0.6131724715232849, -0.5487292408943176, -0.38615286350250244, -0.4169031083583832, 11.359186172485352, 0.9301111698150635, -0.33493390679359436, 18.14720344543457, -22.56133460998535, 58.22651672363281, -1.71875, 1.195068359375, -0.264404296875, 0, 
97, 1040237550, 0.6143469214439392, -0.5500160455703735, -0.385893851518631, -0.41370585560798645, 10.015559196472168, 1.6991817951202393, 0.19480209052562714, 14.644420623779297, -24.37000274658203, 42.87539291381836, -1.71484375, 1.201171875, -0.26513671875, 0, 
98, 1040245883, 0.6147817969322205, -0.5515392422676086, -0.38595807552337646, -0.41096293926239014, 8.848084449768066, 2.5029375553131104, 0.4268905520439148, 6.458396911621094, -29.00094985961914, 33.634765625, -1.705322265625, 1.206298828125, -0.262939453125, 0, 
99, 1040254216, 0.6149317026138306, -0.5532517433166504, -0.386113703250885, -0.4082818627357483, 7.521833419799805, 2.964261293411255, 0.7646944522857666, 2.9088218212127686, -31.818239212036133, 31.825834274291992, -1.7060546875, 1.210693359375, -0.2578125, 0, 
100, 1040262549, 0.614477813243866, -0.5555333495140076, -0.38639992475509644, -0.40558749437332153, 6.242018222808838, 2.6596872806549072, 1.2192460298538208, -5.717827320098877, -39.4952392578125, 30.56436538696289, -1.69580078125, 1.21435546875, -0.25048828125, 0, 
101, 1040270882, 0.6133180856704712, -0.5584543943405151, -0.38686081767082214, -0.4028831124305725, 5.4272050857543945, 3.1855380535125732, 1.2604128122329712, -15.460232734680176, -48.2923698425293, 28.79753875732422, -1.696044921875, 1.21826171875, -0.2353515625, 0, 
102, 1040279215, 0.6116241216659546, -0.5617654919624329, -0.38737714290618896, -0.4003509283065796, 5.297929286956787, 3.213127613067627, 1.5266939401626587, -23.48700523376465, -52.51342010498047, 26.011362075805664, -1.6904296875, 1.219482421875, -0.22900390625, 0, 
103, 1040287548, 0.6093351244926453, -0.565342903137207, -0.38807213306427, -0.39812642335891724, 4.36061954498291, 3.4463720321655273, 1.3845200538635254, -30.956388473510742, -56.20453643798828, 20.216129302978516, -1.689697265625, 1.22021484375, -0.214599609375, 0, 
104, 1040295881, 0.6064687371253967, -0.5690678358078003, -0.38918259739875793, -0.3961070477962494, 3.6792306900024414, 3.3394763469696045, 1.2160035371780396, -35.523983001708984, -62.04933166503906, 12.862746238708496, -1.687255859375, 1.224853515625, -0.197998046875, 0, 
105, 1040304214, 0.6029855608940125, -0.572907030582428, -0.3907890021800995, -0.39430469274520874, 3.219385862350464, 3.395413875579834, 0.7174340486526489, -39.73944854736328, -68.34376525878906, 4.463112831115723, -1.682373046875, 1.222900390625, -0.18359375, 0, 
106, 1040312547, 0.5990620255470276, -0.5766642093658447, -0.39285802841186523, -0.39274919033050537, 3.1947970390319824, 3.1763548851013184, 0.5637264847755432, -41.370399475097656, -72.22341918945312, -4.095664978027344, -1.685546875, 1.226318359375, -0.1708984375, 0, 
107, 1040320880, 0.5946134328842163, -0.5803142786026001, -0.39545777440071106, -0.391522079706192, 2.8076748847961426, 3.162879705429077, 0.5307033061981201, -43.53822326660156, -76.18535614013672, -14.378803253173828, -1.686279296875, 1.22265625, -0.146728515625, 0, 
108, 1040329213, 0.5895692706108093, -0.5838769674301147, -0.39863166213035583, -0.39063388109207153, 2.7035744190216064, 3.121450901031494, 0.7012608051300049, -46.35082244873047, -81.0076904296875, -25.459041595458984, -1.685302734375, 1.216552734375, -0.127197265625, 0, 
109, 1040337546, 0.5840021371841431, -0.5872772336006165, -0.4023153781890869, -0.3901226222515106, 2.1168196201324463, 3.7435200214385986, 0.5632483959197998, -48.53733444213867, -84.04633331298828, -36.25583267211914, -1.686767578125, 1.211181640625, -0.107421875, 0, 
110, 1040345879, 0.5781898498535156, -0.5902719497680664, -0.4064217805862427, -0.3900042176246643, 2.0719099044799805, 3.7982144355773926, 0.6822073459625244, -47.18834686279297, -83.51031494140625, -46.43523406982422, -1.689453125, 1.20263671875, -0.087646484375, 0, 
111, 1040354212, 0.5719541311264038, -0.592820405960083, -0.41098254919052124, -0.39055368304252625, 1.8669568300247192, 3.957024097442627, 0.678787887096405, -48.350135803222656, -81.61541748046875, -60.140445709228516, -1.701171875, 1.189208984375, -0.06884765625, 0, 
112, 1040362545, 0.5654310584068298, -0.5947529673576355, -0.4159255027770996, -0.39187872409820557, 1.6076968908309937, 4.051382541656494, 0.49497002363204956, -48.203372955322266, -76.67582702636719, -74.43793487548828, -1.701416015625, 1.1787109375, -0.0498046875, 0, 
113, 1040370878, 0.5585417747497559, -0.5961257219314575, -0.4212943911552429, -0.3939320743083954, 1.3115012645721436, 4.088535308837891, 0.250641405582428, -48.69114685058594, -73.05097961425781, -88.69654083251953, -1.710693359375, 1.163330078125, -0.032470703125, 0, 
114, 1040379211, 0.5516469478607178, -0.5967787504196167, -0.427054226398468, -0.3964487910270691, 0.891789972782135, 4.139107704162598, 0.10661279410123825, -43.8006477355957, -68.44586944580078, -99.72522735595703, -1.72802734375, 1.1474609375, -0.013671875, 0, 
115, 1040387544, 0.5446153283119202, -0.5967680215835571, -0.43329906463623047, -0.39939990639686584, 0.6062609553337097, 4.204832553863525, 0.22360101342201233, -39.77193832397461, -65.68753814697266, -111.57062530517578, -1.73779296875, 1.127685546875, 0.00634765625, 0, 
116, 1040395877, 0.5371142029762268, -0.5962737202644348, -0.44000378251075745, -0.402950257062912, 0.6208370923995972, 4.502131462097168, 0.5186963081359863, -41.06913757324219, -64.41496276855469, -125.36660766601562, -1.74755859375, 1.111083984375, 0.023681640625, 0, 
117, 1040404210, 0.5296531319618225, -0.595060408115387, -0.4469436705112457, -0.40696239471435547, -0.12963370978832245, 5.072231292724609, 0.3807022273540497, -36.90022277832031, -58.078704833984375, -134.7552032470703, -1.762451171875, 1.087646484375, 0.04248046875, 0, 
118, 1040412543, 0.5221509337425232, -0.5932983160018921, -0.4542771875858307, -0.4110890030860901, -0.48975422978401184, 4.552628517150879, 0.546062171459198, -31.76165008544922, -57.25061798095703, -142.49172973632812, -1.771728515625, 1.06103515625, 0.046875, 0, 
119, 1040420876, 0.5144497752189636, -0.5911859273910522, -0.4620550274848938, -0.4151533842086792, -0.29498812556266785, 4.270838260650635, 0.580708384513855, -27.946733474731445, -60.15385055541992, -148.8977813720703, -1.79052734375, 1.036865234375, 0.0712890625, 0, 
120, 1040429209, 0.5066162347793579, -0.5887055993080139, -0.4700644016265869, -0.41929900646209717, 0.19917289912700653, 4.311090469360352, 0.7647877335548401, -25.638051986694336, -59.93033981323242, -154.53416442871094, -1.805419921875, 1.011474609375, 0.081298828125, 0, 
121, 1040437542, 0.49871471524238586, -0.5858080387115479, -0.47812017798423767, -0.42369788885116577, 0.4356653690338135, 4.15629768371582, 0.8909375667572021, -24.62602996826172, -56.17932891845703, -159.6699676513672, -1.82421875, 0.9775390625, 0.095947265625, 0, 
122, 1040445875, 0.4907165765762329, -0.5825477242469788, -0.4862799048423767, -0.4282216727733612, 0.33568474650382996, 3.6608173847198486, 0.8785021305084229, -23.156227111816406, -54.46294021606445, -164.40867614746094, -1.836669921875, 0.95654296875, 0.107177734375, 0, 
123, 1040454208, 0.4825396239757538, -0.5790302753448486, -0.49463894963264465, -0.43268728256225586, 0.6452044248580933, 3.134329319000244, 0.9887385368347168, -21.269481658935547, -55.90077209472656, -168.28102111816406, -1.8505859375, 0.921142578125, 0.122802734375, 0, 
124, 1040462541, 0.4742182195186615, -0.5752766728401184, -0.5032376646995544, -0.4369579255580902, 0.804745078086853, 2.590275764465332, 1.2633380889892578, -18.121681213378906, -58.678245544433594, -171.4657745361328, -1.864990234375, 0.890869140625, 0.137939453125, 0, 
125, 1040470874, 0.46565988659858704, -0.5714417695999146, -0.5121080875396729, -0.440870463848114, 1.3446578979492188, 2.287550210952759, 2.011033296585083, -15.334094047546387, -64.37877655029297, -173.1583251953125, -1.87548828125, 0.856689453125, 0.1494140625, 0, 
126, 1040479207, 0.4569239020347595, -0.5676406025886536, -0.52098548412323, -0.44450536370277405, 2.53285551071167, 2.2479405403137207, 2.8677384853363037, -14.968928337097168, -68.11632537841797, -172.38238525390625, -1.89013671875, 0.824462890625, 0.168212890625, 0, 
127, 1040487540, 0.44813793897628784, -0.5638377666473389, -0.5295054912567139, -0.4482071101665497, 3.4814910888671875, 2.169060230255127, 3.515846014022827, -17.990535736083984, -65.64405059814453, -170.2202911376953, -1.9013671875, 0.79541015625, 0.178955078125, 0, 
128, 1040495873, 0.4393466114997864, -0.5599960088729858, -0.5375091433525085, -0.45218273997306824, 3.8487212657928467, 1.8305044174194336, 3.981712818145752, -22.993017196655273, -60.18906784057617, -168.32960510253906, -1.9033203125, 0.758544921875, 0.197021484375, 0, 
129, 1040504206, 0.43054524064064026, -0.5560974478721619, -0.5450233221054077, -0.45644548535346985, 4.040597438812256, 1.424299716949463, 4.182145118713379, -27.863611221313477, -54.69636154174805, -166.66465759277344, -1.911865234375, 0.732666015625, 0.20947265625, 0, 
130, 1040512539, 0.42174920439720154, -0.5521036386489868, -0.5521147847175598, -0.4609610140323639, 4.186305999755859, 0.9246639013290405, 4.14367151260376, -31.83487319946289, -49.668426513671875, -165.72195434570312, -1.92626953125, 0.698486328125, 0.22265625, 0, 
131, 1040520872, 0.4129953682422638, -0.5479357242584229, -0.558853030204773, -0.4657154381275177, 4.488831520080566, 0.4808102548122406, 3.790363073348999, -34.539852142333984, -44.34293746948242, -165.36148071289062, -1.93408203125, 0.6630859375, 0.2353515625, 0, 
132, 1040529205, 0.4044771194458008, -0.5434150695800781, -0.5653124451637268, -0.4706658720970154, 4.634195804595947, -0.25999489426612854, 3.300823450088501, -34.07221603393555, -37.25043487548828, -165.6949005126953, -1.942138671875, 0.6337890625, 0.243896484375, 0, 
133, 1040537538, 0.3962600827217102, -0.5385218858718872, -0.5716843605041504, -0.47555819153785706, 4.663319110870361, -1.3055994510650635, 2.7266194820404053, -29.842636108398438, -32.41619110107422, -165.54409790039062, -1.94140625, 0.59765625, 0.259521484375, 0, 
134, 1040545871, 0.38843679428100586, -0.5332530736923218, -0.5779552459716797, -0.48034602403640747, 5.390683650970459, -1.9092724323272705, 2.05148983001709, -24.739667892456055, -27.117267608642578, -164.72344970703125, -1.958251953125, 0.569091796875, 0.261962890625, 0, 
135, 1040554204, 0.38130301237106323, -0.5273827910423279, -0.5840122699737549, -0.4851921796798706, 5.866900444030762, -2.523139238357544, 1.4395204782485962, -18.324609756469727, -16.069990158081055, -163.57757568359375, -1.96142578125, 0.532958984375, 0.271240234375, 0, 
136, 1040562537, 0.3748238682746887, -0.5209486484527588, -0.5899947881698608, -0.4899308681488037, 5.969021320343018, -3.4287397861480713, 1.3001670837402344, -10.276748657226562, -7.461960315704346, -162.74794006347656, -1.964599609375, 0.50634765625, 0.278076171875, 0, 
137, 1040570870, 0.3687971532344818, -0.5140854716300964, -0.5959531664848328, -0.49452072381973267, 6.113478660583496, -3.7915139198303223, 1.1417409181594849, -3.7584381103515625, -1.822853446006775, -162.13258361816406, -1.97314453125, 0.4775390625, 0.276611328125, 0, 
138, 1040579203, 0.3630981743335724, -0.506904125213623, -0.6018036603927612, -0.49904537200927734, 6.095026016235352, -3.5376052856445312, 1.2739286422729492, -0.04725935682654381, 3.0925164222717285, -161.5269317626953, -1.97998046875, 0.447021484375, 0.275146484375, 0, 
139, 1040587536, 0.35757264494895935, -0.4995904862880707, -0.607395350933075, -0.5036152005195618, 6.16597318649292, -2.9567971229553223, 1.6951930522918701, -0.30176812410354614, 7.059300899505615, -159.75111389160156, -1.98193359375, 0.41455078125, 0.28173828125, 0, 
140, 1040595869, 0.3520800471305847, -0.49246594309806824, -0.6124702095985413, -0.5083340406417847, 6.553360462188721, -2.1142539978027344, 1.7806332111358643, -5.855283260345459, 9.573512077331543, -155.22816467285156, -1.99365234375, 0.379150390625, 0.276611328125, 0, 
141, 1040604202, 0.34666699171066284, -0.4857073128223419, -0.6169838905334473, -0.5130766034126282, 6.8582916259765625, -2.1946523189544678, 1.4755940437316895, -11.190949440002441, 10.577130317687988, -147.80918884277344, -1.994873046875, 0.352783203125, 0.27392578125, 0, 
142, 1040612535, 0.3410874903202057, -0.4797208905220032, -0.6211060285568237, -0.5174562335014343, 7.747725963592529, -2.957447052001953, 1.3782334327697754, -15.686039924621582, 3.144136667251587, -138.17959594726562, -1.995849609375, 0.3271484375, 0.276123046875, 0, 
143, 1040620868, 0.33544349670410156, -0.47452375292778015, -0.6246011257171631, -0.5217133164405823, 9.361648559570312, -3.0915091037750244, 0.8254115581512451, -23.213911056518555, -0.8815269470214844, -127.09750366210938, -1.998291015625, 0.301025390625, 0.277587890625, 0, 
144, 1040629201, 0.32996442914009094, -0.4698452353477478, -0.6274251341819763, -0.5260353088378906, 9.690829277038574, -3.5454883575439453, 0.3015211224555969, -29.917455673217773, 0.32480552792549133, -117.46880340576172, -1.998046875, 0.27490234375, 0.27978515625, 0, 
145, 1040637534, 0.3245326280593872, -0.4657597839832306, -0.6298068761825562, -0.5301849246025085, 10.34992504119873, -4.274040699005127, 0.012958811596035957, -33.99810791015625, -2.660247564315796, -108.29022979736328, -2.0029296875, 0.25048828125, 0.279541015625, 0, 
146, 1040645867, 0.31926724314689636, -0.46230071783065796, -0.6318327188491821, -0.5339853763580322, 11.080108642578125, -4.6067681312561035, -0.17479179799556732, -35.31686019897461, -6.437149524688721, -97.89279174804688, -2.003173828125, 0.229736328125, 0.279052734375, 0, 
147, 1040654200, 0.31449753046035767, -0.45950356125831604, -0.633741021156311, -0.5369603633880615, 11.891932487487793, -5.7284440994262695, -0.06708712875843048, -28.74452018737793, -11.723743438720703, -84.06289672851562, -2.00537109375, 0.21435546875, 0.278076171875, 0, 
148, 1040662533, 0.3097536861896515, -0.4575589597225189, -0.6351320147514343, -0.5397277474403381, 13.579864501953125, -6.327374458312988, 0.051484301686286926, -34.296688079833984, -16.86753273010254, -72.34398651123047, -2.003662109375, 0.20166015625, 0.281982421875, 0, 
149, 1040670866, 0.3056560754776001, -0.45585381984710693, -0.6357635259628296, -0.5427548289299011, 15.175848007202148, -6.334372043609619, -0.22470995783805847, -39.135765075683594, -8.134786605834961, -61.72890090942383, -1.999755859375, 0.18603515625, 0.287109375, 0, 
150, 1040679199, 0.30268585681915283, -0.45410215854644775, -0.635574996471405, -0.5460982918739319, 16.045549392700195, -6.639151096343994, -0.4525126814842224, -40.779109954833984, 7.502628326416016, -49.96448516845703, -2.00048828125, 0.171142578125, 0.28369140625, 0, 
151, 1040687532, 0.30004483461380005, -0.45265913009643555, -0.634300172328949, -0.5502203106880188, 16.885499954223633, -7.141158580780029, -0.10557283461093903, -54.957759857177734, 17.432676315307617, -41.217994689941406, -2.00244140625, 0.1630859375, 0.278564453125, 0, 
152, 1040695865, 0.297934889793396, -0.45143166184425354, -0.6321789026260376, -0.5547977685928345, 16.692293167114258, -6.9624342918396, -0.3550608456134796, -62.93067932128906, 26.774221420288086, -31.963321685791016, -2.00390625, 0.153564453125, 0.269775390625, 0, 
153, 1040704198, 0.29616135358810425, -0.4505690038204193, -0.6294487118721008, -0.5595324039459229, 16.3134822845459, -6.834189414978027, -0.6351011991500854, -68.33963012695312, 30.370201110839844, -23.078136444091797, -2.0087890625, 0.15234375, 0.262939453125, 0, 
154, 1040712531, 0.2950206696987152, -0.4501294493675232, -0.6262493133544922, -0.5640605688095093, 16.700199127197266, -6.441292762756348, -1.4883246421813965, -67.97393035888672, 33.24054718017578, -10.809288024902344, -2.005859375, 0.14404296875, 0.254150390625, 0, 
155, 1040720864, 0.29478514194488525, -0.4499873220920563, -0.6226001977920532, -0.5683206915855408, 17.544273376464844, -7.15611457824707, -2.3798160552978516, -64.75255584716797, 38.87262725830078, 2.6330666542053223, -2.009521484375, 0.145751953125, 0.242919921875, 0, 
156, 1040729197, 0.2955706715583801, -0.4501379728317261, -0.6186333298683167, -0.5721126794815063, 17.663192749023438, -8.101859092712402, -3.0907506942749023, -58.10102462768555, 43.7379150390625, 16.993961334228516, -2.014404296875, 0.142578125, 0.229736328125, 0, 
157, 1040737530, 0.29700344800949097, -0.45073679089546204, -0.614342212677002, -0.5755131840705872, 17.67717170715332, -9.591023445129395, -3.00400710105896, -55.132293701171875, 44.58984375, 29.463274002075195, -2.01416015625, 0.150634765625, 0.216796875, 0, 
158, 1040745863, 0.29855453968048096, -0.4519805312156677, -0.6096957325935364, -0.5786678194999695, 17.36503791809082, -9.518805503845215, -3.146682024002075, -57.7734375, 40.436893463134766, 39.09073257446289, -2.012939453125, 0.153564453125, 0.2021484375, 0, 
159, 1040754196, 0.3005213141441345, -0.45370614528656006, -0.6052404046058655, -0.5809716582298279, 16.22777557373047, -9.265792846679688, -3.068155288696289, -48.51374053955078, 33.991844177246094, 48.67958068847656, -2.014404296875, 0.166015625, 0.19189453125, 0, 
160, 1040762529, 0.3025110363960266, -0.45597806572914124, -0.60148024559021, -0.5820643305778503, 15.447918891906738, -8.911408424377441, -2.9782145023345947, -34.9935417175293, 19.41179084777832, 54.140480041503906, -2.014892578125, 0.180419921875, 0.182373046875, 0, 
161, 1040770862, 0.304425448179245, -0.4586978852748871, -0.5984944701194763, -0.5820069909095764, 15.662795066833496, -8.115163803100586, -3.1374423503875732, -21.622175216674805, 4.748241424560547, 57.08406066894531, -2.000244140625, 0.186279296875, 0.173828125, 0, 
162, 1040779195, 0.3065008223056793, -0.4616507887840271, -0.5960535407066345, -0.5810871720314026, 16.529787063598633, -7.237276077270508, -3.0415778160095215, -10.121241569519043, -3.4907193183898926, 60.551902770996094, -1.99755859375, 0.2001953125, 0.17041015625, 0, 
163, 1040787528, 0.3090263903141022, -0.4648153781890869, -0.5938804745674133, -0.5794495344161987, 17.517566680908203, -6.890252113342285, -2.4293034076690674, -0.13895778357982635, -7.200267791748047, 67.09663391113281, -1.995849609375, 0.21435546875, 0.16259765625, 0, 
164, 1040795861, 0.3119719922542572, -0.4681508541107178, -0.5916215777397156, -0.5774933695793152, 18.19295883178711, -6.459716320037842, -1.9101086854934692, 3.7468035221099854, -6.781502723693848, 73.8538818359375, -1.986328125, 0.227294921875, 0.162353515625, 0, 
165, 1040804194, 0.3153707981109619, -0.47158685326576233, -0.5890399217605591, -0.5754870176315308, 17.969419479370117, -5.805838584899902, -1.3424121141433716, 4.062299728393555, -2.8494462966918945, 80.42973327636719, -1.977783203125, 0.239013671875, 0.152099609375, 0, 
166, 1040812527, 0.3191278576850891, -0.47501033544540405, -0.5860627293586731, -0.5736368894577026, 17.860891342163086, -5.142943859100342, -0.9665412306785583, 2.058821439743042, 2.898486852645874, 85.18414306640625, -1.969482421875, 0.252197265625, 0.1474609375, 0, 
167, 1040820860, 0.3232250213623047, -0.47829458117485046, -0.5825254917144775, -0.57221519947052, 17.9875431060791, -4.4985127449035645, -0.9500699639320374, -2.9945807456970215, 11.974186897277832, 88.3682861328125, -1.96875, 0.261962890625, 0.143310546875, 0, 
168, 1040829193, 0.327731192111969, -0.4813629388809204, -0.5782175660133362, -0.5714479684829712, 18.19818687438965, -4.137324333190918, -1.2116159200668335, -10.635294914245605, 24.69824981689453, 92.17354583740234, -1.958984375, 0.2744140625, 0.133544921875, 0, 
169, 1040837526, 0.3328469395637512, -0.48423153162002563, -0.5730133652687073, -0.5713097453117371, 18.078079223632812, -3.9847846031188965, -1.8113715648651123, -17.76249885559082, 39.29856491088867, 98.29975128173828, -1.955078125, 0.278564453125, 0.1220703125, 0, 
170, 1040845859, 0.3386699855327606, -0.48715806007385254, -0.5669760704040527, -0.5714229345321655, 17.520788192749023, -4.061781883239746, -2.4248993396759033, -21.826738357543945, 49.924015045166016, 108.88278198242188, -1.95849609375, 0.287353515625, 0.111328125, 0, 
171, 1040854192, 0.34520480036735535, -0.4906403720378876, -0.5603302717208862, -0.5710885524749756, 16.94635772705078, -4.287437915802002, -2.6909310817718506, -20.956449508666992, 50.92292022705078, 124.78001403808594, -1.955810546875, 0.2958984375, 0.093994140625, 0, 
172, 1040862525, 0.3524096608161926, -0.49514323472976685, -0.5533219575881958, -0.5696331858634949, 16.775325775146484, -4.229422092437744, -2.6981728076934814, -15.473467826843262, 42.24956130981445, 145.8654327392578, -1.9560546875, 0.3095703125, 0.080078125, 0, 
173, 1040870858, 0.3603352904319763, -0.5008484125137329, -0.5460414290428162, -0.5667049884796143, 17.40329360961914, -3.7594785690307617, -2.6888267993927, -7.332675933837891, 29.58594512939453, 169.44357299804688, -1.95947265625, 0.33056640625, 0.0703125, 0, 
174, 1040879191, 0.3687008321285248, -0.5076892375946045, -0.5384775996208191, -0.5624586343765259, 18.31679916381836, -3.462517499923706, -2.4237537384033203, -2.2233870029449463, 16.38355827331543, 190.09388732910156, -1.966552734375, 0.35888671875, 0.0625, 0, 
175, 1040887524, 0.37695765495300293, -0.5151644945144653, -0.5308297276496887, -0.5574356913566589, 19.63524627685547, -3.0283520221710205, -1.9889376163482666, -1.1186124086380005, 5.657138347625732, 198.2501678466797, -1.970947265625, 0.391357421875, 0.0576171875, 0, 
176, 1040895857, 0.3846849799156189, -0.522189736366272, -0.5236256122589111, -0.5524109601974487, 20.847837448120117, -2.2159364223480225, -1.9077293872833252, 0.8970768451690674, 2.9476115703582764, 187.9961395263672, -1.980224609375, 0.42578125, 0.054931640625, 0, 
177, 1040904190, 0.3920234441757202, -0.5279526114463806, -0.5169771313667297, -0.548018753528595, 22.15118980407715, -1.4120151996612549, -1.9673606157302856, 4.42733907699585, 11.324913024902344, 168.37722778320312, -1.982177734375, 0.462646484375, 0.053955078125, 0, 
178, 1040912523, 0.39934200048446655, -0.5326982140541077, -0.5103350877761841, -0.5443554520606995, 22.853458404541016, -0.344249427318573, -2.1731815338134766, 4.6548380851745605, 24.121503829956055, 157.25592041015625, -1.982666015625, 0.50390625, 0.049560546875, 0, 
179, 1040920856, 0.4071863293647766, -0.5372823476791382, -0.5030973553657532, -0.540764570236206, 23.684200286865234, 1.216943383216858, -2.087216377258301, 4.406999111175537, 32.80842971801758, 163.77700805664062, -1.98193359375, 0.54052734375, 0.03662109375, 0, 
180, 1040929189, 0.4151812195777893, -0.5419924259185791, -0.49487295746803284, -0.5375646948814392, 23.195331573486328, 3.8460540771484375, -2.342045307159424, -5.209078788757324, 41.34170150756836, 171.11557006835938, -1.976318359375, 0.582275390625, 0.040283203125, 0, 
181, 1040937522, 0.41806137561798096, -0.5443679094314575, -0.4814484417438507, -0.5450707077980042, 41.302303314208984, 13.426729202270508, 1.8555705547332764, -141.3209228515625, 133.26841735839844, 94.80171203613281, -1.969482421875, 0.6123046875, 0.036865234375, 0, 
182, 1040945855, 0.42786523699760437, -0.5381301045417786, -0.4659830629825592, -0.5569682121276855, 17.041488647460938, 12.419955253601074, 2.9922056198120117, -84.32868957519531, 288.3041076660156, 79.95729064941406, -1.971435546875, 0.62451171875, -0.005859375, 0, 
183, 1040954188, 0.4409905672073364, -0.5315706133842468, -0.4595939517021179, -0.5583364367485046, 5.781951904296875, 0.2086314857006073, -5.225009441375732, 79.13646697998047, 180.70704650878906, 97.8791732788086, -1.97705078125, 0.64404296875, -0.03955078125, 0, 
184, 1040962521, 0.4503095746040344, -0.5356127619743347, -0.45821499824523926, -0.5480743646621704, 10.586774826049805, -2.9792420864105225, -6.153888702392578, 98.99847412109375, -40.14674377441406, 169.8056182861328, -1.968994140625, 0.67333984375, -0.060791015625, 0, 
185, 1040970854, 0.45283856987953186, -0.5465211272239685, -0.4555773138999939, -0.5373150706291199, 25.289073944091797, 8.94124984741211, -2.3705050945281982, 0.10716162621974945, -130.56642150878906, 174.0161895751953, -1.9599609375, 0.70654296875, -0.024658203125, 0, 
186, 1040979187, 0.465400367975235, -0.5487723350524902, -0.4488236904144287, -0.5299198031425476, 30.284900665283203, 11.985584259033203, 1.8247637748718262, 77.93579864501953, 47.18875503540039, 204.1281280517578, -1.94482421875, 0.7470703125, -0.02783203125, 0, 
187, 1040987520, 0.47959691286087036, -0.5507212281227112, -0.4396785795688629, -0.5228593349456787, 22.555875778198242, 9.758967399597168, -1.9182873964309692, 72.71488952636719, 77.30558776855469, 229.85755920410156, -1.935791015625, 0.789794921875, -0.054443359375, 0, 
188, 1040995853, 0.4945387840270996, -0.5527737140655518, -0.430451363325119, -0.5143835544586182, 18.905166625976562, 7.313101768493652, -0.8077327609062195, 85.64522552490234, 70.89991760253906, 246.0283660888672, -1.92529296875, 0.835205078125, -0.072021484375, 0, 
189, 1041004186, 0.508780300617218, -0.5567329525947571, -0.4214947521686554, -0.5035269856452942, 21.69524574279785, 7.516460418701172, -2.4906225204467773, 83.36788177490234, 33.31256866455078, 266.2943115234375, -1.905517578125, 0.8916015625, -0.0927734375, 0, 
190, 1041012519, 0.5233740210533142, -0.5614298582077026, -0.41088640689849854, -0.4919905662536621, 25.768896102905273, 8.683847427368164, -0.26630285382270813, 73.40013122558594, 36.61181640625, 290.61944580078125, -1.8857421875, 0.94580078125, -0.10498046875, 0, 
191, 1041020852, 0.5388198494911194, -0.5658631920814514, -0.39863497018814087, -0.480175256729126, 22.53895378112793, 7.034794807434082, -1.2562199831008911, 72.3386001586914, 52.8708610534668, 309.4075622558594, -1.854248046875, 1.00634765625, -0.13134765625, 0, 
192, 1041029185, 0.5536971688270569, -0.5711613893508911, -0.38520383834838867, -0.46778011322021484, 24.302724838256836, 7.083890914916992, -0.6958616971969604, 56.89054489135742, 48.286476135253906, 324.05755615234375, -1.822509765625, 1.062255859375, -0.1494140625, 0, 
193, 1041037518, 0.5677487254142761, -0.5769456624984741, -0.3708663582801819, -0.4552578032016754, 22.70838737487793, 6.264925479888916, -1.1906628608703613, 41.553592681884766, 46.672569274902344, 329.24737548828125, -1.781494140625, 1.118408203125, -0.161376953125, 0, 
194, 1041045851, 0.5802507400512695, -0.5829153656959534, -0.35592976212501526, -0.44366586208343506, 21.358718872070312, 6.337934970855713, -2.3044779300689697, 19.307104110717773, 49.68376159667969, 318.13922119140625, -1.742919921875, 1.173095703125, -0.176513671875, 0, 
195, 1041054184, 0.5911555886268616, -0.5878454446792603, -0.34223201870918274, -0.4334239959716797, 20.686460494995117, 4.4552788734436035, -0.45420682430267334, 15.752861976623535, 49.1320915222168, 282.45672607421875, -1.699951171875, 1.226318359375, -0.187744140625, 0, 
196, 1041062517, 0.5997558236122131, -0.5905175805091858, -0.33183401823043823, -0.4259982705116272, 18.905065536499023, 4.853114128112793, -0.7300609946250916, 21.88860321044922, 47.69643020629883, 208.6535186767578, -1.662841796875, 1.259521484375, -0.199462890625, 0, 
197, 1041070850, 0.6061692237854004, -0.592512845993042, -0.32378333806991577, -0.4203073978424072, 19.540699005126953, 5.582481384277344, -1.9521845579147339, 15.553216934204102, 36.3969612121582, 159.26748657226562, -1.640380859375, 1.287353515625, -0.2109375, 0, 
198, 1041079183, 0.6115322113037109, -0.594380259513855, -0.3161672353744507, -0.41567468643188477, 20.405109405517578, 5.546551704406738, -1.9930930137634277, 5.8535380363464355, 37.469879150390625, 140.37632751464844, -1.61376953125, 1.3056640625, -0.212646484375, 0, 
199, 1041087516, 0.6168954968452454, -0.5963608622550964, -0.30814918875694275, -0.4109060764312744, 20.020599365234375, 5.059006214141846, -2.3667984008789062, 3.2048535346984863, 39.08891296386719, 145.21112060546875, -1.59326171875, 1.325439453125, -0.223876953125, 0, 
200, 1041095849, 0.6225857138633728, -0.5987958312034607, -0.29951876401901245, -0.4051235020160675, 18.936851501464844, 4.278624057769775, -2.427276611328125, 2.8610644340515137, 34.791141510009766, 162.6975555419922, -1.571533203125, 1.346435546875, -0.228759765625, 0, 
201, 1041104182, 0.6285672187805176, -0.6017301082611084, -0.29037410020828247, -0.39813756942749023, 18.216327667236328, 3.8946313858032227, -2.1855313777923584, 3.0834944248199463, 27.703880310058594, 180.8501739501953, -1.5380859375, 1.363525390625, -0.235107421875, 0, 
202, 1041112515, 0.6347178816795349, -0.6048544049263, -0.28103992342948914, -0.3902660608291626, 17.47563934326172, 3.8501389026641846, -1.6307889223098755, 5.3331990242004395, 21.649234771728516, 191.82339477539062, -1.51123046875, 1.39013671875, -0.240234375, 0, 
203, 1041120848, 0.6406329870223999, -0.6079670190811157, -0.27199822664260864, -0.38208484649658203, 16.642730712890625, 4.001286506652832, -1.2031466960906982, 6.250881671905518, 15.678760528564453, 190.74185180664062, -1.476318359375, 1.412841796875, -0.238525390625, 0, 
204, 1041129181, 0.6459324955940247, -0.6109606027603149, -0.26365065574645996, -0.37415653467178345, 15.93196964263916, 4.114025115966797, -0.6758252382278442, 4.845850467681885, 9.99366283416748, 179.07315063476562, -1.44580078125, 1.434326171875, -0.23974609375, 0, 
205, 1041137514, 0.6504644155502319, -0.6137576103210449, -0.25624901056289673, -0.36679741740226746, 15.44559097290039, 4.039835453033447, -0.4829634726047516, 2.9540164470672607, 4.610296726226807, 161.38674926757812, -1.414794921875, 1.45166015625, -0.241455078125, 0, 
206, 1041145847, 0.6541848182678223, -0.616417646408081, -0.24974140524864197, -0.3601487874984741, 15.394800186157227, 3.9069936275482178, -0.6708712577819824, -0.6720014810562134, 0.4334902763366699, 142.92779541015625, -1.388427734375, 1.4619140625, -0.237548828125, 0, 
207, 1041154180, 0.6572732925415039, -0.6189273595809937, -0.24370038509368896, -0.3543122112751007, 15.467991828918457, 3.802422523498535, -1.1378793716430664, -5.147664546966553, 1.709121584892273, 128.02134704589844, -1.37255859375, 1.476806640625, -0.239990234375, 0, 
208, 1041162513, 0.6599301695823669, -0.6212376952171326, -0.23785042762756348, -0.3492698669433594, 14.093286514282227, 3.3325634002685547, -1.6617640256881714, -8.757046699523926, 6.251010894775391, 116.44437408447266, -1.34521484375, 1.495361328125, -0.23974609375, 0, 
209, 1041170846, 0.6621963381767273, -0.6235052943229675, -0.23218950629234314, -0.34471940994262695, 13.417248725891113, 2.9068007469177246, -1.555554986000061, -12.39857292175293, 7.681212902069092, 108.36881256103516, -1.322509765625, 1.501220703125, -0.239013671875, 0, 
210, 1041179179, 0.6641192436218262, -0.625648558139801, -0.22708600759506226, -0.3405112326145172, 12.49276065826416, 2.4681575298309326, -1.5130409002304077, -12.670933723449707, 5.016603469848633, 98.4290771484375, -1.3037109375, 1.512451171875, -0.236083984375, 0, 
211, 1041187512, 0.6656413674354553, -0.6276483535766602, -0.2228819876909256, -0.33661389350891113, 10.429408073425293, 2.1601920127868652, -1.3998534679412842, -11.554245948791504, -1.0821571350097656, 85.56510925292969, -1.289794921875, 1.5166015625, -0.22998046875, 0, 
212, 1041195845, 0.6666304469108582, -0.6295279264450073, -0.21981900930404663, -0.33314335346221924, 10.372288703918457, 2.2543282508850098, -1.182093858718872, -11.093830108642578, -8.942429542541504, 68.93354797363281, -1.275146484375, 1.525390625, -0.22705078125, 0, 
213, 1041204178, 0.6670766472816467, -0.6311486959457397, -0.21782168745994568, -0.33048468828201294, 10.09617805480957, 2.448403835296631, -1.2574349641799927, -10.978338241577148, -12.11248779296875, 49.04946517944336, -1.26708984375, 1.5283203125, -0.221435546875, 0, 
214, 1041212511, 0.667051374912262, -0.6323910355567932, -0.21668219566345215, -0.32890602946281433, 8.633659362792969, 2.3429243564605713, -1.6916334629058838, -10.950349807739258, -10.3251314163208, 28.367441177368164, -1.257080078125, 1.529541015625, -0.2216796875, 0, 
215, 1041220844, 0.6666014194488525, -0.6333758234977722, -0.21626216173171997, -0.3281993567943573, 8.139874458312988, 2.2115249633789062, -1.621751308441162, -11.609501838684082, -9.417128562927246, 11.488871574401855, -1.259521484375, 1.53076171875, -0.218505859375, 0, 
216, 1041229177, 0.6658422946929932, -0.634016752243042, -0.2167051136493683, -0.3282105028629303, 6.89511775970459, 2.0418806076049805, -1.6643627882003784, -9.405882835388184, -10.469488143920898, -5.090676784515381, -1.257080078125, 1.529541015625, -0.212890625, 0, 
217, 1041237510, 0.6647562980651855, -0.6344680786132812, -0.21808305382728577, -0.3286267817020416, 5.141432285308838, 1.8313984870910645, -1.7821154594421387, -7.486378192901611, -15.591291427612305, -18.918838500976562, -1.2578125, 1.526611328125, -0.207763671875, 0, 
218, 1041245843, 0.6633526086807251, -0.6346555352210999, -0.22071094810962677, -0.3293459415435791, 4.474241256713867, 1.9229999780654907, -1.509230375289917, -3.126708984375, -24.159231185913086, -34.89253234863281, -1.26416015625, 1.52783203125, -0.203125, 0, 
219, 1041254176, 0.6615498065948486, -0.634676992893219, -0.2245190292596817, -0.3303549885749817, 3.8766791820526123, 2.291642189025879, -1.1993522644042969, -0.6089292168617249, -32.83076858520508, -50.07150650024414, -1.2705078125, 1.519775390625, -0.19873046875, 0, 
220, 1041262509, 0.6592275500297546, -0.6345280408859253, -0.22928398847579956, -0.3320067524909973, 3.860969305038452, 2.968317985534668, -0.9843807816505432, -1.2501858472824097, -36.78004837036133, -67.23281860351562, -1.28369140625, 1.513916015625, -0.194580078125, 0, 
221, 1041270842, 0.6562435626983643, -0.6341686844825745, -0.23496460914611816, -0.3346225619316101, 3.137394428253174, 3.459390163421631, -1.0840564966201782, -3.9568417072296143, -37.76506423950195, -87.56747436523438, -1.297607421875, 1.50830078125, -0.1923828125, 0, 
222, 1041279175, 0.6526807546615601, -0.6335346698760986, -0.24138492345809937, -0.3382027745246887, 3.045257568359375, 3.7798218727111816, -1.121834635734558, -6.257678031921387, -36.66654586791992, -106.35211181640625, -1.3134765625, 1.497314453125, -0.183349609375, 0, 
223, 1041287508, 0.6484216451644897, -0.6326756477355957, -0.24855658411979675, -0.3427780270576477, 2.565122365951538, 3.977534294128418, -1.3020347356796265, -10.094032287597656, -35.97397232055664, -125.73135375976562, -1.333984375, 1.48193359375, -0.17529296875, 0, 
224, 1041295841, 0.6436241269111633, -0.6315811276435852, -0.2565057575702667, -0.3479432463645935, 1.4621106386184692, 4.092151641845703, -1.2666057348251343, -11.049190521240234, -38.53627014160156, -141.18399047851562, -1.363037109375, 1.466064453125, -0.1689453125, 0, 
225, 1041304174, 0.6382160782814026, -0.6304035782814026, -0.26552483439445496, -0.35323426127433777, 1.2536636590957642, 4.250945091247559, -0.6772775053977966, -10.922830581665039, -48.63908004760742, -154.71725463867188, -1.384033203125, 1.45068359375, -0.1640625, 0, 
226, 1041312507, 0.6321536898612976, -0.6291904449462891, -0.2755421996116638, -0.35858598351478577, 1.9620097875595093, 4.629570960998535, -0.4614444077014923, -11.673986434936523, -59.12150192260742, -167.3003692626953, -1.41455078125, 1.430419921875, -0.1533203125, 0, 
227, 1041320840, 0.6253979206085205, -0.6279276609420776, -0.28610384464263916, -0.3643283247947693, 2.6832242012023926, 4.951404094696045, -0.25429829955101013, -16.021190643310547, -62.8272705078125, -178.92596435546875, -1.445068359375, 1.412841796875, -0.142578125, 0, 
228, 1041329173, 0.6180014610290527, -0.6265175938606262, -0.29688704013824463, -0.37069451808929443, 2.7371442317962646, 4.871151924133301, -0.2585729956626892, -21.647871017456055, -61.15741729736328, -190.08267211914062, -1.474365234375, 1.390625, -0.128662109375, 0, 
229, 1041337506, 0.6098880171775818, -0.6250028014183044, -0.30797719955444336, -0.37757712602615356, 2.7706222534179688, 4.525398254394531, -0.17937423288822174, -27.46554183959961, -61.67931365966797, -201.108642578125, -1.502197265625, 1.369873046875, -0.119873046875, 0, 
230, 1041345839, 0.6011037826538086, -0.6233032941818237, -0.3193361461162567, -0.38496482372283936, 3.231069803237915, 4.155855178833008, -0.25468477606773376, -32.438880920410156, -61.50649642944336, -212.01268005371094, -1.534912109375, 1.33837890625, -0.099365234375, 0, 
231, 1041354172, 0.5917357802391052, -0.621312141418457, -0.3308662176132202, -0.3928791582584381, 3.248840570449829, 3.5828189849853516, -0.5229553580284119, -36.423744201660156, -59.39711380004883, -222.11093139648438, -1.5712890625, 1.305908203125, -0.080810546875, 0, 
232, 1041362505, 0.5818474888801575, -0.6190164089202881, -0.34262514114379883, -0.40110692381858826, 3.2990970611572266, 2.6348297595977783, -0.5675912499427795, -38.59605407714844, -59.3339958190918, -230.90802001953125, -1.6044921875, 1.273193359375, -0.072998046875, 0, 
233, 1041370838, 0.5715580582618713, -0.6163768768310547, -0.3546958565711975, -0.4093876779079437, 3.28617262840271, 1.7198933362960815, -0.6326119303703308, -37.77959442138672, -61.33926010131836, -237.72479248046875, -1.6396484375, 1.24365234375, -0.0576171875, 0, 
234, 1041379171, 0.5609980225563049, -0.6133822798728943, -0.36701688170433044, -0.41755059361457825, 3.2464306354522705, 0.9668347239494324, -0.6072794795036316, -35.3087272644043, -63.658390045166016, -242.2708282470703, -1.669677734375, 1.20654296875, -0.041748046875, 0, 
235, 1041387504, 0.55035799741745, -0.6099924445152283, -0.37953752279281616, -0.42540907859802246, 3.208101511001587, 0.27980104088783264, -0.4888709485530853, -30.23879051208496, -65.87342834472656, -243.96563720703125, -1.69873046875, 1.167724609375, -0.0263671875, 0, 
236, 1041395837, 0.5396938323974609, -0.606361985206604, -0.3920444846153259, -0.4328545331954956, 3.121230125427246, -0.35182031989097595, -0.24385160207748413, -26.556283950805664, -67.97988891601562, -242.2156982421875, -1.728271484375, 1.124267578125, -0.00634765625, 0, 
237, 1041404170, 0.5292364954948425, -0.6024145483970642, -0.4045187830924988, -0.4397457242012024, 3.2409210205078125, -0.9606481194496155, -0.06491909921169281, -19.66963005065918, -69.33216857910156, -238.2150421142578, -1.759765625, 1.088623046875, 0.00830078125, 0, 
238, 1041412503, 0.5191762447357178, -0.5981006026268005, -0.41697293519973755, -0.44595032930374146, 3.1349093914031982, -1.4660249948501587, 0.19934561848640442, -10.031468391418457, -70.47230529785156, -232.78126525878906, -1.78125, 1.053955078125, 0.025390625, 0, 
239, 1041420836, 0.5093151330947876, -0.5936322808265686, -0.4291461408138275, -0.4517066776752472, 2.891277313232422, -1.886238932609558, 0.5083327293395996, -6.426162242889404, -70.04014587402344, -226.84320068359375, -1.808349609375, 1.01318359375, 0.03759765625, 0, 
240, 1041429169, 0.49986016750335693, -0.5888291597366333, -0.44110801815986633, -0.45700153708457947, 2.577040195465088, -2.333108425140381, 0.7940727472305298, 0.6291024684906006, -67.87605285644531, -221.42942810058594, -1.832275390625, 0.97216796875, 0.054931640625, 0, 
241, 1041437502, 0.4907316565513611, -0.5837247371673584, -0.4530535936355591, -0.4617323577404022, 2.561720132827759, -2.6279983520507812, 1.1077027320861816, 8.673056602478027, -68.43217468261719, -217.11032104492188, -1.852294921875, 0.933837890625, 0.064453125, 0, 
242, 1041445835, 0.48178234696388245, -0.5783026814460754, -0.46476617455482483, -0.46631598472595215, 2.551239252090454, -3.2781577110290527, 1.530009150505066, 11.681522369384766, -64.93273162841797, -215.1708984375, -1.8681640625, 0.8984375, 0.08154296875, 0, 
243, 1041454168, 0.4730150103569031, -0.5724811553955078, -0.4762125611305237, -0.4709034860134125, 2.745622158050537, -3.552957773208618, 1.6809290647506714, 14.05449104309082, -59.38861083984375, -214.38719177246094, -1.8876953125, 0.86181640625, 0.089111328125, 0, 
244, 1041462501, 0.46448850631713867, -0.5662519931793213, -0.48734796047210693, -0.47550758719444275, 2.6638355255126953, -3.9688496589660645, 1.8378338813781738, 16.468263626098633, -53.04259490966797, -213.2362060546875, -1.906494140625, 0.819580078125, 0.09765625, 0, 
245, 1041470834, 0.45639362931251526, -0.5596204996109009, -0.49811097979545593, -0.48002249002456665, 2.3960964679718018, -4.288991928100586, 1.5911813974380493, 20.573026657104492, -45.81395721435547, -209.5712890625, -1.916748046875, 0.782470703125, 0.10888671875, 0, 
246, 1041479167, 0.4491092264652252, -0.552520751953125, -0.5087933540344238, -0.48389822244644165, 1.8225680589675903, -5.15262508392334, 1.696420431137085, 33.58418273925781, -41.6040153503418, -202.86404418945312, -1.935546875, 0.745849609375, 0.116455078125, 0, 
247, 1041487500, 0.44179216027259827, -0.5458141565322876, -0.5188601613044739, -0.4875417649745941, 2.478407621383667, -5.2620463371276855, 1.8427642583847046, 28.443044662475586, -42.393497467041016, -194.15496826171875, -1.945556640625, 0.712890625, 0.125244140625, 0, 
248, 1041495833, 0.43500030040740967, -0.5391542911529541, -0.5282950401306152, -0.4909154176712036, 2.770418405532837, -5.005423069000244, 2.0403590202331543, 29.784170150756836, -37.16379928588867, -183.9824676513672, -1.953857421875, 0.676025390625, 0.134033203125, 0, 
249, 1041504166, 0.42862018942832947, -0.5326310992240906, -0.5370884537696838, -0.49409639835357666, 2.6015570163726807, -4.782493591308594, 2.3495359420776367, 29.096790313720703, -32.66950225830078, -174.24490356445312, -1.970703125, 0.645751953125, 0.1396484375, 0, 
250, 1041512499, 0.4225517809391022, -0.526443362236023, -0.5453663468360901, -0.49687957763671875, 2.1926417350769043, -4.628748416900635, 2.3810791969299316, 28.829486846923828, -32.53901672363281, -163.58132934570312, -1.972412109375, 0.616943359375, 0.146240234375, 0, 
251, 1041520832, 0.41657039523124695, -0.5208533406257629, -0.5532755255699158, -0.4990726709365845, 2.340301036834717, -4.617008209228516, 2.4504201412200928, 27.894512176513672, -38.087066650390625, -152.35963439941406, -1.97607421875, 0.5859375, 0.15185546875, 0, 
252, 1041529165, 0.4107295870780945, -0.5158126950263977, -0.5607457756996155, -0.5008084774017334, 2.8548429012298584, -4.545558452606201, 2.337846040725708, 26.21841812133789, -41.56086730957031, -141.49798583984375, -1.9873046875, 0.561767578125, 0.16357421875, 0, 
253, 1041537498, 0.4051364064216614, -0.5111951231956482, -0.567727267742157, -0.5022311806678772, 3.1367313861846924, -4.618729114532471, 2.0003130435943604, 24.635488510131836, -42.01333999633789, -131.25421142578125, -1.989013671875, 0.53564453125, 0.171630859375, 0, 
254, 1041545831, 0.3996593654155731, -0.5071101784706116, -0.574332594871521, -0.5032496452331543, 3.8376407623291016, -5.086357593536377, 2.058175802230835, 23.04167366027832, -45.544925689697266, -121.43815612792969, -1.99267578125, 0.51318359375, 0.181396484375, 0, 
255, 1041554164, 0.394214928150177, -0.5035315155982971, -0.580527663230896, -0.5040282011032104, 4.958949089050293, -5.06364631652832, 2.439694881439209, 19.54583740234375, -48.1986083984375, -113.00077056884766, -1.99560546875, 0.49462890625, 0.1884765625, 0, 
256, 1041562497, 0.38886502385139465, -0.5002065896987915, -0.5862694382667542, -0.5048481822013855, 4.904108047485352, -4.7816643714904785, 2.5409696102142334, 15.347071647644043, -46.467506408691406, -107.43729400634766, -1.997314453125, 0.472900390625, 0.2021484375, 0, 
257, 1041570830, 0.38336995244026184, -0.4972279965877533, -0.5917742252349854, -0.5055704116821289, 4.842226505279541, -4.808753490447998, 2.7712950706481934, 11.643433570861816, -49.44112777709961, -103.47625732421875, -2.001953125, 0.456787109375, 0.2099609375, 0, 
258, 1041579163, 0.3778163194656372, -0.49462050199508667, -0.5970890522003174, -0.5060596466064453, 5.608233451843262, -4.82826566696167, 2.668187141418457, 9.859193801879883, -53.096561431884766, -98.35987854003906, -2.0009765625, 0.43798828125, 0.2177734375, 0, 
259, 1041587496, 0.37228965759277344, -0.49232348799705505, -0.6022875905036926, -0.5062351822853088, 5.930706024169922, -5.427526473999023, 2.5740585327148438, 10.19650650024414, -56.56417465209961, -93.18515014648438, -2.000244140625, 0.42236328125, 0.230712890625, 0, 
260, 1041595829, 0.3667326271533966, -0.49038034677505493, -0.6072363257408142, -0.5062654614448547, 7.4008469581604, -5.390731334686279, 2.709599733352661, 7.642120361328125, -58.9836311340332, -88.04754638671875, -2, 0.4033203125, 0.245361328125, 0, 
261, 1041604162, 0.36167970299720764, -0.48835036158561707, -0.6114750504493713, -0.5067604184150696, 8.761041641235352, -4.424386978149414, 2.1482300758361816, 2.6531565189361572, -47.459129333496094, -82.8100357055664, -1.995361328125, 0.386962890625, 0.25439453125, 0, 
262, 1041612495, 0.3574507534503937, -0.4860883951187134, -0.6150779724121094, -0.5075749158859253, 8.400529861450195, -4.837874889373779, 1.6803356409072876, 2.225058078765869, -33.60139083862305, -76.34599304199219, -1.996826171875, 0.377197265625, 0.261474609375, 0, 
263, 1041620828, 0.353806734085083, -0.4840497672557831, -0.6183654069900513, -0.5080817341804504, 9.480439186096191, -5.628684043884277, 1.5288057327270508, 5.439785003662109, -30.725984573364258, -66.75153350830078, -1.997802734375, 0.36279296875, 0.26806640625, 0, 
264, 1041629161, 0.35058102011680603, -0.48215386271476746, -0.6211867928504944, -0.5086784958839417, 10.468729972839355, -5.7142415046691895, 0.6520596742630005, 3.5069732666015625, -25.292232513427734, -59.95216369628906, -2.002197265625, 0.353515625, 0.273193359375, 0, 
265, 1041637494, 0.3480049967765808, -0.4802347421646118, -0.6239036917686462, -0.5089377164840698, 10.619582176208496, -5.8780198097229, 0.3066428601741791, 10.077553749084473, -21.324270248413086, -53.29003143310547, -1.99853515625, 0.347900390625, 0.279052734375, 0, 
266, 1041645827, 0.34546223282814026, -0.4786997139453888, -0.6265368461608887, -0.5088814496994019, 12.558353424072266, -6.140486717224121, 1.3091405630111694, 10.581562042236328, -25.4003963470459, -47.69539260864258, -2.003662109375, 0.341796875, 0.28173828125, 0, 
267, 1041654160, 0.34252387285232544, -0.47750088572502136, -0.6286426782608032, -0.5093968510627747, 13.986867904663086, -4.643527507781982, 1.7716835737228394, -2.231748342514038, -24.906475067138672, -46.82375717163086, -1.99658203125, 0.3310546875, 0.287353515625, 0, 
268, 1041662493, 0.3395169973373413, -0.4762994349002838, -0.6300453543663025, -0.5107997059822083, 14.762179374694824, -3.261791467666626, 1.788927674293518, -15.272086143493652, -16.327293395996094, -46.877567291259766, -2.0009765625, 0.322509765625, 0.288818359375, 0, 
269, 1041670826, 0.33635038137435913, -0.47515976428985596, -0.6305756568908691, -0.513295590877533, 15.143503189086914, -2.2539608478546143, 1.870837926864624, -32.20394515991211, -6.927978992462158, -46.87228775024414, -1.99853515625, 0.316162109375, 0.288818359375, 0, 
270, 1041679159, 0.3332589268684387, -0.47413772344589233, -0.6303125023841858, -0.5165699124336243, 14.961928367614746, -2.3773653507232666, 1.3743938207626343, -44.6061897277832, 1.6639447212219238, -43.71685791015625, -1.9951171875, 0.306640625, 0.283203125, 0, 
271, 1041687492, 0.33015090227127075, -0.4736509919166565, -0.62961745262146, -0.5198491811752319, 14.592035293579102, -3.454385757446289, 0.9202521443367004, -50.275917053222656, -0.2884428799152374, -36.429176330566406, -1.9970703125, 0.300537109375, 0.283203125, 0, 
272, 1041695825, 0.3269774913787842, -0.47406625747680664, -0.6286196112632751, -0.5226762890815735, 16.145612716674805, -4.217856407165527, 1.197331190109253, -53.05070495605469, -8.854893684387207, -25.036224365234375, -1.997314453125, 0.28857421875, 0.28466796875, 0, 
273, 1041704158, 0.3237709701061249, -0.4752354323863983, -0.6269694566726685, -0.5255846977233887, 17.579164505004883, -3.6104824542999268, 0.812951385974884, -62.05158615112305, -11.119589805603027, -14.900444030761719, -2.0009765625, 0.291015625, 0.2802734375, 0, 
274, 1041712491, 0.3212662637233734, -0.47681325674057007, -0.6243223547935486, -0.5288336277008057, 19.040679931640625, -2.7679054737091064, 0.18910706043243408, -69.42204284667969, -1.3350707292556763, -1.2765419483184814, -1.99462890625, 0.28662109375, 0.281005859375, 0, 
275, 1041720824, 0.31974419951438904, -0.478489488363266, -0.6203901171684265, -0.5328544974327087, 20.571168899536133, -2.5642497539520264, -0.5772366523742676, -79.38716888427734, 17.0989990234375, 11.695977210998535, -1.992919921875, 0.281494140625, 0.26708984375, 0, 
276, 1041729157, 0.3193245530128479, -0.47991591691970825, -0.6150173544883728, -0.5380265712738037, 21.386211395263672, -2.8153493404388428, -1.7286750078201294, -91.41101837158203, 42.26740264892578, 22.094778060913086, -1.9921875, 0.281494140625, 0.2587890625, 0, 
277, 1041737490, 0.3197658061981201, -0.4809044897556305, -0.6085120439529419, -0.5442426800727844, 20.23592758178711, -3.5178215503692627, -3.0036487579345703, -101.01551055908203, 64.63166046142578, 27.60896110534668, -1.99658203125, 0.28076171875, 0.24365234375, 0, 
278, 1041745823, 0.3205695152282715, -0.48149266839027405, -0.6018393039703369, -0.5506322383880615, 19.221664428710938, -5.058264255523682, -4.177270412445068, -99.5638198852539, 72.56594848632812, 27.360137939453125, -1.99072265625, 0.28173828125, 0.22900390625, 0, 
279, 1041754156, 0.32098203897476196, -0.48174768686294556, -0.5958683490753174, -0.5566299557685852, 18.916318893432617, -6.417098045349121, -4.805635452270508, -92.12760925292969, 66.13965606689453, 18.66777992248535, -1.994384765625, 0.282958984375, 0.206787109375, 0, 
280, 1041762489, 0.3207414448261261, -0.48174965381622314, -0.5909692049026489, -0.5619644522666931, 17.909645080566406, -6.649158954620361, -5.275245666503906, -81.6988525390625, 53.62345504760742, 7.474847316741943, -1.9931640625, 0.279541015625, 0.19287109375, 0, 
281, 1041770822, 0.32023152709007263, -0.4815978407859802, -0.5872986316680908, -0.566217303276062, 17.285816192626953, -6.411459922790527, -5.333449840545654, -64.52184295654297, 40.01802444458008, 0.7152938842773438, -1.989990234375, 0.2744140625, 0.1796875, 0, 
282, 1041779155, 0.319449245929718, -0.4816219210624695, -0.584433376789093, -0.5695935487747192, 17.893342971801758, -6.125944137573242, -4.713271617889404, -53.748130798339844, 27.11665916442871, -1.3985673189163208, -1.981689453125, 0.2705078125, 0.1630859375, 0, 
283, 1041787488, 0.3187655210494995, -0.48194819688796997, -0.5817485451698303, -0.572441577911377, 18.326351165771484, -5.313010215759277, -4.152628421783447, -48.76657485961914, 21.234394073486328, 2.8637681007385254, -1.9755859375, 0.265380859375, 0.161865234375, 0, 
284, 1041795821, 0.31845641136169434, -0.4826374053955078, -0.578904390335083, -0.5749109387397766, 17.543107986450195, -4.904984474182129, -3.5631721019744873, -46.09817886352539, 19.580324172973633, 11.496042251586914, -1.971923828125, 0.2607421875, 0.14599609375, 0, 
285, 1041804154, 0.31852245330810547, -0.4838666319847107, -0.5758927464485168, -0.5768626928329468, 16.6392879486084, -4.309462070465088, -3.0819759368896484, -43.180084228515625, 15.581698417663574, 22.06854248046875, -1.96875, 0.253173828125, 0.138427734375, 0, 
286, 1041812487, 0.3189355731010437, -0.48591041564941406, -0.5727242231369019, -0.5780697464942932, 16.667896270751953, -4.0261359214782715, -2.1336138248443604, -39.78049850463867, 7.6137871742248535, 35.649227142333984, -1.9619140625, 0.248779296875, 0.132080078125, 0, 
287, 1041820820, 0.31988346576690674, -0.48904168605804443, -0.5693454146385193, -0.578242838382721, 17.111669540405273, -4.166016101837158, -1.2329065799713135, -34.51338577270508, -2.817473888397217, 54.32774353027344, -1.95947265625, 0.24755859375, 0.12890625, 0, 
288, 1041829153, 0.3216933608055115, -0.49328237771987915, -0.5656140446662903, -0.5772980451583862, 18.239713668823242, -4.643953323364258, -0.6465412378311157, -27.640535354614258, -10.84559154510498, 77.23509979248047, -1.951171875, 0.247314453125, 0.117919921875, 0, 
289, 1041837486, 0.3242034316062927, -0.49844932556152344, -0.5610337257385254, -0.5759236216545105, 19.582660675048828, -4.675963401794434, -0.8570704460144043, -30.392852783203125, -11.920388221740723, 97.57723999023438, -1.95556640625, 0.249267578125, 0.12255859375, 0, 
290, 1041845819, 0.328066349029541, -0.50396728515625, -0.5553187727928162, -0.574471116065979, 21.116296768188477, -5.040641784667969, -0.9078390598297119, -31.06146812438965, 0.26896587014198303, 119.2051773071289, -1.95849609375, 0.25732421875, 0.117919921875, 0, 
291, 1041854152, 0.3328234851360321, -0.5095068216323853, -0.5483092069625854, -0.5735803842544556, 21.80670928955078, -5.4384050369262695, -1.3806463479995728, -39.48478698730469, 16.65162467956543, 132.7884063720703, -1.96435546875, 0.275390625, 0.1103515625, 0, 
292, 1041862485, 0.33860504627227783, -0.5146368145942688, -0.5403718948364258, -0.5731491446495056, 21.5576114654541, -5.369390964508057, -2.052201986312866, -41.209102630615234, 35.081295013427734, 142.2626495361328, -1.970458984375, 0.285400390625, 0.099365234375, 0, 
293, 1041870818, 0.3453056812286377, -0.5193769335746765, -0.5318456888198853, -0.5728506445884705, 21.100059509277344, -5.114945411682129, -2.7034475803375244, -38.525264739990234, 48.65824890136719, 150.0714874267578, -1.982421875, 0.310302734375, 0.084716796875, 0, 
294, 1041879151, 0.3527935743331909, -0.5241430401802063, -0.5231521725654602, -0.5719517469406128, 20.91596221923828, -4.915220737457275, -3.235598564147949, -29.944963455200195, 50.72511291503906, 160.59716796875, -1.99755859375, 0.339111328125, 0.072021484375, 0, 
295, 1041887484, 0.3610025942325592, -0.5293601155281067, -0.5148023366928101, -0.5695962309837341, 21.17870330810547, -4.648436546325684, -3.673649787902832, -13.76084041595459, 40.19172286987305, 174.0129852294922, -2.001953125, 0.376708984375, 0.060791015625, 0, 
296, 1041895817, 0.36988145112991333, -0.5351113677024841, -0.5069414377212524, -0.5655619502067566, 22.13216209411621, -3.86897349357605, -4.099653720855713, 4.184154033660889, 26.111351013183594, 187.9087677001953, -2.00732421875, 0.419677734375, 0.055419921875, 0, 
297, 1041904150, 0.37939900159835815, -0.5412609577178955, -0.4995421767234802, -0.5599614381790161, 23.25283432006836, -2.577867031097412, -4.1714606285095215, 21.36015510559082, 13.58344554901123, 200.1300048828125, -2.005859375, 0.470458984375, 0.057861328125, 0, 
298, 1041912483, 0.3854740858078003, -0.546713650226593, -0.49015089869499207, -0.558813214302063, 35.602603912353516, 6.3065643310546875, -2.6420516967773438, -46.54288864135742, 38.84134292602539, 160.52243041992188, -1.99365234375, 0.520751953125, 0.05712890625, 0, 
299, 1041920816, 0.3924317955970764, -0.5431455373764038, -0.47891563177108765, -0.5671299695968628, 31.488693237304688, 15.031811714172363, 3.328967809677124, -70.06556701660156, 195.04786682128906, 70.09908294677734, -1.99462890625, 0.53955078125, 0.043701171875, 0, 
300, 1041929149, 0.40648388862609863, -0.538856029510498, -0.4714096784591675, -0.5676128268241882, 12.852958679199219, -0.46737992763519287, -3.6613786220550537, 67.50505828857422, 168.7628173828125, 135.1935272216797, -1.99462890625, 0.56103515625, 0.0029296875, 0, 
301, 1041937482, 0.4188797175884247, -0.5424835681915283, -0.4679144024848938, -0.5579549074172974, 14.568326950073242, -4.629318714141846, -4.81775426864624, 108.02244567871094, -1.3482412099838257, 200.4726104736328, -1.986328125, 0.598876953125, -0.004638671875, 0, 
302, 1041945815, 0.429636150598526, -0.5497068762779236, -0.4651263952255249, -0.5448842644691467, 24.68534278869629, 3.4138219356536865, -3.45963716506958, 102.46876525878906, -69.01598358154297, 225.4999237060547, -1.976318359375, 0.643310546875, 0.01123046875, 0, 
303, 1041954148, 0.44332173466682434, -0.5546101331710815, -0.4607140123844147, -0.5325620174407959, 34.13878631591797, 8.939247131347656, -1.5232317447662354, 121.3544692993164, -17.644420623779297, 240.38600158691406, -1.9609375, 0.69384765625, 0.012939453125, 0, 
304, 1041962481, 0.4600207805633545, -0.5581376552581787, -0.45367422699928284, -0.520624041557312, 30.625507354736328, 8.019495964050293, -1.7169891595840454, 131.05706787109375, 30.48013687133789, 271.5235900878906, -1.946044921875, 0.749755859375, 0.00634765625, 0, 
305, 1041970814, 0.4780268371105194, -0.5616958141326904, -0.4446907937526703, -0.5081776976585388, 27.680620193481445, 7.0536065101623535, -1.795702576637268, 130.15455627441406, 46.80402374267578, 299.13775634765625, -1.9287109375, 0.808349609375, -0.0146484375, 0, 
306, 1041979147, 0.4967913329601288, -0.5655902028083801, -0.4344027042388916, -0.49457719922065735, 26.560365676879883, 6.918342113494873, -2.1140947341918945, 131.74403381347656, 48.760284423828125, 324.240234375, -1.9091796875, 0.870849609375, -0.037841796875, 0, 
307, 1041987480, 0.5155418515205383, -0.5700241923332214, -0.42249464988708496, -0.48041006922721863, 27.400522232055664, 8.075508117675781, -2.9269859790802, 120.31232452392578, 51.65981674194336, 343.7773132324219, -1.881103515625, 0.93603515625, -0.05810546875, 0, 
308, 1041995813, 0.5342156291007996, -0.5739912986755371, -0.4088467061519623, -0.46690309047698975, 28.282501220703125, 9.821990013122559, -2.4480600357055664, 107.69221496582031, 71.81941223144531, 349.5858459472656, -1.848388671875, 1.006103515625, -0.087158203125, 0, 
309, 1042004146, 0.5526735782623291, -0.5762292146682739, -0.3947022259235382, -0.4546739161014557, 25.27398681640625, 9.229484558105469, -1.8028202056884766, 108.32119750976562, 95.43515014648438, 332.9493103027344, -1.81201171875, 1.074951171875, -0.112548828125, 0, 
310, 1042012479, 0.5684835314750671, -0.5785449147224426, -0.38050881028175354, -0.44422024488449097, 23.063718795776367, 9.754318237304688, -2.1639745235443115, 76.79801940917969, 95.0241470336914, 303.75701904296875, -1.777099609375, 1.12744140625, -0.143798828125, 0, 
311, 1042020812, 0.5830545425415039, -0.5804045796394348, -0.3669394850730896, -0.43421146273612976, 21.499887466430664, 9.720259666442871, -2.3038766384124756, 71.9897689819336, 89.9786605834961, 285.3077392578125, -1.739013671875, 1.175537109375, -0.1689453125, 0, 
312, 1042029145, 0.5958093404769897, -0.5823729634284973, -0.3542846441268921, -0.4246666729450226, 20.18391990661621, 8.769780158996582, -2.8044919967651367, 59.740135192871094, 76.54068756103516, 264.0333557128906, -1.701171875, 1.216064453125, -0.197265625, 0, 
313, 1042037478, 0.6067260503768921, -0.5847245454788208, -0.34258025884628296, -0.41548264026641846, 19.58534049987793, 8.30703353881836, -3.273387908935547, 45.67037582397461, 60.44272994995117, 244.56448364257812, -1.662353515625, 1.253662109375, -0.210205078125, 0, 
314, 1042045811, 0.6164095401763916, -0.587268590927124, -0.3313961625099182, -0.4066177308559418, 19.80070686340332, 8.094590187072754, -3.517077684402466, 35.617286682128906, 51.76242446899414, 231.60581970214844, -1.62890625, 1.2939453125, -0.22998046875, 0, 
315, 1042054144, 0.6250684857368469, -0.5900726914405823, -0.32033443450927734, -0.3981150984764099, 19.58692169189453, 7.573381423950195, -3.7631871700286865, 24.16885757446289, 47.52505111694336, 222.980224609375, -1.592041015625, 1.32275390625, -0.236572265625, 0, 
316, 1042062477, 0.632925271987915, -0.5931396484375, -0.30924010276794434, -0.38983049988746643, 18.857810974121094, 6.414516925811768, -3.8108444213867188, 14.263155937194824, 44.60390090942383, 218.15817260742188, -1.550537109375, 1.353515625, -0.251953125, 0, 
317, 1042070810, 0.6401288509368896, -0.5964345335960388, -0.29832693934440613, -0.3814556896686554, 18.054475784301758, 5.3321213722229, -3.8512818813323975, 8.308518409729004, 38.29241943359375, 214.92230224609375, -1.5224609375, 1.38134765625, -0.259765625, 0, 
318, 1042079143, 0.6467837691307068, -0.5999124646186829, -0.2878824472427368, -0.37270107865333557, 17.075109481811523, 4.567019462585449, -3.6536083221435547, 6.211280822753906, 27.839380264282227, 212.30360412597656, -1.487548828125, 1.406494140625, -0.262939453125, 0, 
319, 1042087476, 0.6529115438461304, -0.6035194993019104, -0.2781480848789215, -0.3634704053401947, 16.481443405151367, 4.091421604156494, -3.448423147201538, 6.241417407989502, 14.853793144226074, 208.48870849609375, -1.4521484375, 1.432373046875, -0.260498046875, 0, 
320, 1042095809, 0.6584555506706238, -0.607136607170105, -0.26914182305336, -0.3541054129600525, 16.529903411865234, 4.213547229766846, -3.4249155521392822, 5.457832336425781, 4.9106926918029785, 200.7718505859375, -1.416748046875, 1.4501953125, -0.267578125, 0, 
321, 1042104142, 0.6634207367897034, -0.6105007529258728, -0.2605641186237335, -0.34536123275756836, 16.431324005126953, 4.423809051513672, -3.369347333908081, 2.7056007385253906, 5.309061050415039, 187.82386779785156, -1.38134765625, 1.468505859375, -0.271240234375, 0, 
322, 1042112475, 0.6677104830741882, -0.6135689616203308, -0.2524845004081726, -0.3375701904296875, 15.694931983947754, 4.254052639007568, -3.131171226501465, -1.3164006471633911, 7.748312473297119, 170.66995239257812, -1.350830078125, 1.48828125, -0.267578125, 0, 
323, 1042120808, 0.6713206768035889, -0.6163128018379211, -0.2451050579547882, -0.330782413482666, 14.62501335144043, 3.833559989929199, -3.21712327003479, -4.303560256958008, 8.938100814819336, 151.28268432617188, -1.324951171875, 1.501708984375, -0.267333984375, 0, 
324, 1042129141, 0.6743367314338684, -0.6186606287956238, -0.2385433316230774, -0.3250114321708679, 13.990267753601074, 3.21775484085083, -3.5537943840026855, -5.392338752746582, 9.797476768493652, 130.9130401611328, -1.2958984375, 1.51318359375, -0.26904296875, 0, 
325, 1042137474, 0.6769914627075195, -0.6204792261123657, -0.232961967587471, -0.3200361728668213, 12.859746932983398, 2.5457773208618164, -3.786020517349243, -1.7824888229370117, 8.667555809020996, 111.86430358886719, -1.271240234375, 1.529296875, -0.267822265625, 0, 
326, 1042145807, 0.6792599558830261, -0.6221342086791992, -0.22822022438049316, -0.3153993487358093, 11.733705520629883, 2.307443141937256, -3.852262496948242, -0.9500402808189392, 3.2078142166137695, 99.3010482788086, -1.251708984375, 1.5341796875, -0.267333984375, 0, 
327, 1042154140, 0.6813912391662598, -0.6234532594680786, -0.22436833381652832, -0.3109298348426819, 10.684025764465332, 2.5051040649414062, -3.8313353061676025, 4.357203006744385, -2.6343395709991455, 88.50627899169922, -1.236572265625, 1.538330078125, -0.265869140625, 0, 
328, 1042162473, 0.6832367777824402, -0.624650239944458, -0.22155895829200745, -0.3064597249031067, 8.294184684753418, 2.6707088947296143, -3.6033987998962402, 7.502437591552734, -12.777833938598633, 77.94696044921875, -1.221435546875, 1.543701171875, -0.26416015625, 0, 
329, 1042170806, 0.6845954656600952, -0.6258224844932556, -0.2200322151184082, -0.3021048307418823, 7.896843910217285, 3.325281858444214, -3.0937230587005615, 8.618033409118652, -25.209861755371094, 63.750328063964844, -1.212646484375, 1.552001953125, -0.260498046875, 0, 
330, 1042179139, 0.685361385345459, -0.6269024610519409, -0.2196780890226364, -0.29836395382881165, 6.429633140563965, 4.355198383331299, -2.9539635181427, 7.388535976409912, -32.383731842041016, 45.1057014465332, -1.20068359375, 1.5537109375, -0.26123046875, 0, 
331, 1042187472, 0.6854897141456604, -0.6279386878013611, -0.2203131914138794, -0.29540711641311646, 5.830526351928711, 4.8749589920043945, -2.6288397312164307, 4.00595760345459, -36.68382263183594, 26.47498321533203, -1.18994140625, 1.55419921875, -0.253173828125, 0, 
332, 1042195805, 0.6846643686294556, -0.6291241645812988, -0.2220640480518341, -0.29348158836364746, 4.526029109954834, 5.3007097244262695, -2.4665415287017822, -4.239367485046387, -41.80255126953125, 3.660292863845825, -1.191162109375, 1.55859375, -0.253173828125, 0, 
333, 1042204138, 0.6831421852111816, -0.6302594542503357, -0.22497110068798065, -0.29237639904022217, 3.264817714691162, 5.606282711029053, -2.2882113456726074, -7.624990940093994, -47.50022506713867, -16.99049949645996, -1.193115234375, 1.5537109375, -0.248779296875, 0, 
334, 1042212471, 0.6807152628898621, -0.6314801573753357, -0.2292008399963379, -0.2921178340911865, 2.9383201599121094, 5.963232040405273, -2.245208978652954, -13.580341339111328, -55.747135162353516, -39.82323455810547, -1.20263671875, 1.552490234375, -0.23974609375, 0, 
335, 1042220804, 0.6775283813476562, -0.6326916813850403, -0.2345065176486969, -0.29269373416900635, 1.957966923713684, 6.529036045074463, -2.4375720024108887, -18.388839721679688, -60.91554641723633, -60.016456604003906, -1.212158203125, 1.5458984375, -0.22998046875, 0, 
336, 1042229137, 0.6735314726829529, -0.6339383125305176, -0.24081048369407654, -0.2940990924835205, 1.54918372631073, 6.828788757324219, -1.999825358390808, -24.43278694152832, -65.77044677734375, -79.61914825439453, -1.220703125, 1.5361328125, -0.220458984375, 0, 
337, 1042237470, 0.6686962246894836, -0.6352580785751343, -0.24810054898262024, -0.29621773958206177, 0.7168521881103516, 7.404408931732178, -1.4403727054595947, -30.783283233642578, -71.74359893798828, -97.92816925048828, -1.240234375, 1.527099609375, -0.21044921875, 0, 
338, 1042245803, 0.6630368828773499, -0.6366520524024963, -0.25634485483169556, -0.2989148497581482, 0.340615451335907, 8.389556884765625, -1.0696367025375366, -36.760711669921875, -78.5938491821289, -114.73126220703125, -1.262451171875, 1.522216796875, -0.195556640625, 0, 
339, 1042254136, 0.6564956307411194, -0.6380901336669922, -0.2653222680091858, -0.3024316430091858, 0.7921261191368103, 9.330388069152832, -0.8851714730262756, -44.751251220703125, -81.37173461914062, -132.0500030517578, -1.281005859375, 1.504638671875, -0.1787109375, 0, 
340, 1042262469, 0.6489996314048767, -0.6395353674888611, -0.274885356426239, -0.3069828152656555, 1.1271297931671143, 9.740050315856934, -0.6780264973640442, -54.54180908203125, -81.1165771484375, -150.5155792236328, -1.304443359375, 1.496337890625, -0.156005859375, 0, 
341, 1042270802, 0.6404989957809448, -0.6409136056900024, -0.2851490080356598, -0.3125497102737427, 1.3893930912017822, 9.849552154541016, -0.6598083972930908, -63.647911071777344, -81.93688201904297, -170.19358825683594, -1.334228515625, 1.47802734375, -0.1396484375, 0, 
342, 1042279135, 0.6310235857963562, -0.6421155333518982, -0.29621243476867676, -0.31900086998939514, 1.7954249382019043, 9.832345008850098, -0.7625880241394043, -70.72956848144531, -84.26608276367188, -189.9583740234375, -1.36669921875, 1.452880859375, -0.11669921875, 0, 
343, 1042287468, 0.6206599473953247, -0.6430180668830872, -0.30802983045578003, -0.3262404799461365, 2.7213988304138184, 9.417688369750977, -1.043674349784851, -75.86370086669922, -86.14299774169922, -208.52874755859375, -1.40234375, 1.4296875, -0.09326171875, 0, 
344, 1042295801, 0.609502375125885, -0.6435258984565735, -0.3203861117362976, -0.33427560329437256, 4.123017311096191, 8.5513916015625, -1.1358344554901123, -80.4849624633789, -85.30934143066406, -225.3659210205078, -1.432373046875, 1.40771484375, -0.068603515625, 0, 
345, 1042304134, 0.5976839065551758, -0.6434770226478577, -0.33294788002967834, -0.3433120846748352, 5.0899882316589355, 7.692745685577393, -1.2812397480010986, -85.12490844726562, -78.5075454711914, -241.0197296142578, -1.467529296875, 1.377685546875, -0.045654296875, 0, 
346, 1042312467, 0.5853590965270996, -0.6427111029624939, -0.34558168053627014, -0.35335075855255127, 5.495799541473389, 6.554269313812256, -1.5422261953353882, -87.97184753417969, -69.18092346191406, -255.6220703125, -1.509521484375, 1.3408203125, -0.017333984375, 0, 
347, 1042320800, 0.5726794004440308, -0.6411193013191223, -0.35845935344696045, -0.36402952671051025, 5.660818099975586, 5.075116157531738, -1.6909949779510498, -86.30372619628906, -63.14437484741211, -268.5269775390625, -1.5517578125, 1.305908203125, 0.00634765625, 0, 
348, 1042329133, 0.559810221195221, -0.638701319694519, -0.37159469723701477, -0.37496253848075867, 6.0921950340271, 3.671394109725952, -1.8534643650054932, -81.44483947753906, -59.747127532958984, -277.87652587890625, -1.587646484375, 1.265869140625, 0.03271484375, 0, 
349, 1042337466, 0.546920895576477, -0.6354401707649231, -0.3848639726638794, -0.3859784007072449, 6.3044586181640625, 2.4069037437438965, -2.0193402767181396, -74.84376525878906, -55.79511642456055, -284.05029296875, -1.626708984375, 1.2255859375, 0.048828125, 0, 
350, 1042345799, 0.5341108441352844, -0.6313678026199341, -0.3982120156288147, -0.39690542221069336, 6.373269081115723, 1.2098755836486816, -2.026583194732666, -67.18118286132812, -52.446109771728516, -287.99761962890625, -1.663330078125, 1.1806640625, 0.06884765625, 0, 
351, 1042354132, 0.5215897560119629, -0.6263787150382996, -0.4116906225681305, -0.4075671136379242, 6.395232200622559, 0.0366007499396801, -2.0416908264160156, -55.75700759887695, -49.11286544799805, -290.5701904296875, -1.70556640625, 1.1337890625, 0.08935546875, 0, 
352, 1042362465, 0.5093761086463928, -0.6205937266349792, -0.4252696633338928, -0.41779354214668274, 6.00010871887207, -1.3950772285461426, -1.5944898128509521, -44.38751983642578, -47.39153289794922, -291.15252685546875, -1.736083984375, 1.084716796875, 0.104248046875, 0, 
353, 1042370798, 0.4972172975540161, -0.6143974661827087, -0.4387558400630951, -0.42754000425338745, 5.696810722351074, -1.9386889934539795, -1.2285351753234863, -38.752403259277344, -48.14194869995117, -289.0326843261719, -1.768798828125, 1.03662109375, 0.11865234375, 0, 
354, 1042379131, 0.48536217212677, -0.6077967882156372, -0.452161967754364, -0.4365346133708954, 5.282423973083496, -2.4601492881774902, -0.7224413752555847, -29.36673927307129, -49.749778747558594, -283.92169189453125, -1.800537109375, 0.987548828125, 0.13037109375, 0, 
355, 1042387464, 0.4739069938659668, -0.6008924841880798, -0.4655887186527252, -0.4444926083087921, 5.505805969238281, -2.8115594387054443, -0.21797148883342743, -17.41644287109375, -54.228477478027344, -276.60894775390625, -1.822265625, 0.935546875, 0.145751953125, 0, 
356, 1042395797, 0.4625239670276642, -0.5939093232154846, -0.47862982749938965, -0.4519546627998352, 5.875515460968018, -3.3792710304260254, 0.3158963620662689, -15.49854850769043, -54.88343811035156, -270.3062438964844, -1.846923828125, 0.89013671875, 0.163818359375, 0, 
357, 1042404130, 0.451341837644577, -0.5867500901222229, -0.49111995100975037, -0.4591541290283203, 5.903443813323975, -3.6465134620666504, 0.6909262537956238, -14.424681663513184, -51.0906982421875, -263.9920654296875, -1.872802734375, 0.84375, 0.17724609375, 0, 
358, 1042412463, 0.4404218792915344, -0.5794814229011536, -0.5030457973480225, -0.466027170419693, 5.47223424911499, -4.278092384338379, 1.360474944114685, -12.998724937438965, -47.77528762817383, -256.54669189453125, -1.893798828125, 0.79150390625, 0.183837890625, 0, 
359, 1042420796, 0.42971736192703247, -0.5723530054092407, -0.5143706202507019, -0.4724237322807312, 5.269343852996826, -4.55155611038208, 1.882210612297058, -12.67780590057373, -47.32811737060547, -246.47543334960938, -1.9072265625, 0.749267578125, 0.197265625, 0, 
360, 1042429129, 0.4193243086338043, -0.5654885768890381, -0.5248774290084839, -0.4784347414970398, 5.345273494720459, -4.516191482543945, 2.028078556060791, -14.381781578063965, -45.05229187011719, -233.91046142578125, -1.916748046875, 0.70068359375, 0.2099609375, 0, 
361, 1042437462, 0.4094803035259247, -0.5588415861129761, -0.5346041321754456, -0.4839700162410736, 4.670495986938477, -4.6904120445251465, 1.7006351947784424, -13.055563926696777, -41.707916259765625, -219.8738555908203, -1.932861328125, 0.65673828125, 0.221923828125, 0, 
362, 1042445795, 0.4006229639053345, -0.5522997379302979, -0.5441702604293823, -0.48821255564689636, 3.5973148345947266, -5.813289642333984, 1.807070255279541, 2.3595330715179443, -44.19621658325195, -204.06253051757812, -1.94287109375, 0.61865234375, 0.230224609375, 0, 
363, 1042454128, 0.39139655232429504, -0.5467244386672974, -0.5532402396202087, -0.49176493287086487, 3.6553049087524414, -6.028806686401367, 1.8833792209625244, -3.924802303314209, -55.947113037109375, -191.69821166992188, -1.945556640625, 0.580078125, 0.243408203125, 0, 
364, 1042462461, 0.38239094614982605, -0.5417184829711914, -0.5622626543045044, -0.4941510260105133, 4.341047286987305, -6.278353214263916, 2.480077028274536, 3.2143189907073975, -66.63978576660156, -179.2758026123047, -1.95068359375, 0.5458984375, 0.263427734375, 0, 
365, 1042470794, 0.37364205718040466, -0.5371170043945312, -0.570931077003479, -0.49592435359954834, 5.964816093444824, -5.7208380699157715, 3.1534175872802734, 5.345578670501709, -70.0958023071289, -168.51026916503906, -1.954345703125, 0.517333984375, 0.27197265625, 0, 
366, 1042479127, 0.36542609333992004, -0.5325088500976562, -0.5787277221679688, -0.4979745149612427, 6.903170585632324, -4.87950325012207, 3.6463658809661865, 1.1827292442321777, -59.352294921875, -159.9451141357422, -1.9619140625, 0.485107421875, 0.29150390625, 0, 
367, 1042487460, 0.3579055070877075, -0.5278030037879944, -0.5853937268257141, -0.5006479024887085, 6.786147117614746, -4.466230869293213, 3.9747345447540283, -5.931027889251709, -42.89652633666992, -150.78086853027344, -1.959228515625, 0.455810546875, 0.30078125, 0, 
368, 1042495793, 0.35093623399734497, -0.5233181715011597, -0.5910820960998535, -0.5035974383354187, 6.087100505828857, -4.165609836578369, 4.008459091186523, -11.977383613586426, -33.170475006103516, -139.5003204345703, -1.96435546875, 0.424072265625, 0.309326171875, 0, 
369, 1042504126, 0.3445139527320862, -0.5191711187362671, -0.5960897207260132, -0.5064136981964111, 5.385782241821289, -4.028071880340576, 3.2819879055023193, -13.2876615524292, -28.732868194580078, -127.39756774902344, -1.97021484375, 0.401611328125, 0.3134765625, 0, 
370, 1042512459, 0.33857229351997375, -0.5152966380119324, -0.6010546088218689, -0.5085057616233826, 4.231865882873535, -4.937346458435059, 2.2544808387756348, -5.523090839385986, -31.662452697753906, -118.104736328125, -1.966552734375, 0.37744140625, 0.3251953125, 0, 
371, 1042520792, 0.3330450654029846, -0.511579155921936, -0.6067324876785278, -0.5091659426689148, 4.897266864776611, -5.901560306549072, 1.7504441738128662, 13.510440826416016, -42.802425384521484, -112.27246856689453, -1.96875, 0.358154296875, 0.33349609375, 0, 
372, 1042529125, 0.32708582282066345, -0.5080235600471497, -0.6124750971794128, -0.5097132921218872, 7.711920738220215, -5.599234580993652, 2.043128252029419, 11.119302749633789, -48.63087463378906, -113.90970611572266, -1.9677734375, 0.3388671875, 0.343994140625, 0, 
373, 1042537458, 0.3216865062713623, -0.5034753680229187, -0.6176438331604004, -0.5114223957061768, 9.720243453979492, -4.124660968780518, 1.9613306522369385, 5.69392728805542, -26.258371353149414, -119.5397720336914, -1.965087890625, 0.318115234375, 0.351806640625, 0, 
374, 1042545791, 0.31706923246383667, -0.4977647662162781, -0.6220414638519287, -0.5145564079284668, 8.726899147033691, -4.2307047843933105, 1.782391905784607, -1.2813698053359985, 1.8347601890563965, -124.89765930175781, -1.968017578125, 0.295166015625, 0.353271484375, 0, 
375, 1042554124, 0.3126637041568756, -0.4918179512023926, -0.6260929107666016, -0.5180447697639465, 7.456391334533691, -5.101138591766357, 1.495225429534912, -4.278840065002441, 9.24805736541748, -124.58067321777344, -1.971435546875, 0.27587890625, 0.35546875, 0, 
376, 1042562457, 0.3081532120704651, -0.48639819025993347, -0.6300217509269714, -0.5210922360420227, 7.9699506759643555, -5.042391777038574, 0.9255024790763855, -4.337438583374023, 2.140363931655884, -118.07964324951172, -1.971435546875, 0.24951171875, 0.3505859375, 0, 
377, 1042570790, 0.3036653399467468, -0.4816026985645294, -0.6338889598846436, -0.5234857201576233, 8.623693466186523, -5.238202095031738, 0.6202442646026611, -1.592146396636963, -6.253320217132568, -109.31848907470703, -1.974365234375, 0.2265625, 0.354248046875, 0, 
378, 1042579123, 0.29911690950393677, -0.4775065779685974, -0.637575626373291, -0.5253763198852539, 9.782173156738281, -5.467367172241211, 0.6233301758766174, -1.843472957611084, -14.389796257019043, -100.36831665039062, -1.97021484375, 0.210205078125, 0.35546875, 0, 
379, 1042587456, 0.29457417130470276, -0.47397375106811523, -0.6406895518302917, -0.5273501873016357, 10.933561325073242, -4.402711391448975, 0.6825752854347229, -8.98298168182373, -15.512434005737305, -91.96831512451172, -1.9755859375, 0.19091796875, 0.359130859375, 0, 
380, 1042595789, 0.2903304696083069, -0.470832496881485, -0.6429071426391602, -0.5298129916191101, 11.76822566986084, -3.336186647415161, 0.43863511085510254, -19.436742782592773, -8.89500904083252, -82.49055480957031, -1.973876953125, 0.1748046875, 0.364990234375, 0, 
381, 1042604122, 0.28650617599487305, -0.4681892693042755, -0.6441826224327087, -0.5326802134513855, 12.041647911071777, -3.094564437866211, 0.027551110833883286, -29.14851188659668, -2.4429190158843994, -70.54571533203125, -1.972900390625, 0.1591796875, 0.36376953125, 0, 
382, 1042612455, 0.2828633785247803, -0.46641719341278076, -0.6446684002876282, -0.5355861186981201, 12.233201026916504, -3.3501455783843994, 0.022125016897916794, -37.53840255737305, -3.849656105041504, -56.56768035888672, -1.975830078125, 0.146728515625, 0.365966796875, 0, 
383, 1042620788, 0.279130220413208, -0.46563175320625305, -0.6445735692977905, -0.538334846496582, 12.321087837219238, -3.2006585597991943, -0.28039711713790894, -44.83974838256836, -10.673054695129395, -44.155513763427734, -1.978271484375, 0.13916015625, 0.36474609375, 0, 
384, 1042629121, 0.2752849757671356, -0.46572768688201904, -0.6441174149513245, -0.5407723784446716, 12.772378921508789, -2.805966854095459, -0.5942850112915039, -48.85519790649414, -18.790769577026367, -33.661495208740234, -1.972900390625, 0.129150390625, 0.36474609375, 0, 
385, 1042637454, 0.2712940275669098, -0.46633198857307434, -0.6433764100074768, -0.5431455373764038, 14.235295295715332, -2.622330904006958, -0.770433783531189, -53.26460647583008, -23.205121994018555, -28.18113899230957, -1.9775390625, 0.117919921875, 0.369384765625, 0, 
386, 1042645787, 0.26738905906677246, -0.46687883138656616, -0.6422899961471558, -0.5458909869194031, 15.178803443908691, -2.239699602127075, -1.640712022781372, -58.37065887451172, -18.329078674316406, -27.21405029296875, -1.97705078125, 0.1142578125, 0.3701171875, 0, 
387, 1042654120, 0.2633810043334961, -0.4671684801578522, -0.6408919095993042, -0.549224853515625, 16.732757568359375, -2.5769639015197754, -1.7666385173797607, -65.62190246582031, -12.3961181640625, -30.433876037597656, -1.975341796875, 0.1015625, 0.371337890625, 0, 
388, 1042662453, 0.2593323886394501, -0.46687671542167664, -0.639349102973938, -0.553183376789093, 17.233781814575195, -2.7826621532440186, -2.2140228748321533, -70.3755874633789, -3.8149282932281494, -37.18551254272461, -1.97216796875, 0.095947265625, 0.36767578125, 0, 
389, 1042670786, 0.25517624616622925, -0.46593421697616577, -0.637801468372345, -0.5576792359352112, 17.237703323364258, -3.0413684844970703, -2.393049478530884, -73.5052261352539, 3.6466329097747803, -45.62726974487305, -1.976806640625, 0.082275390625, 0.361572265625, 0, 
390, 1042679119, 0.25107547640800476, -0.464569628238678, -0.6362740993499756, -0.562403678894043, 17.20832061767578, -2.888146162033081, -2.514833450317383, -73.5197525024414, 8.773819923400879, -49.81782913208008, -1.97509765625, 0.073974609375, 0.3603515625, 0, 
391, 1042687452, 0.24717633426189423, -0.46298205852508545, -0.6346084475517273, -0.5673003196716309, 17.98544692993164, -3.414337396621704, -2.467268943786621, -74.03617095947266, 13.827573776245117, -49.944435119628906, -1.977783203125, 0.057861328125, 0.351806640625, 0, 
392, 1042695785, 0.24399617314338684, -0.46130651235580444, -0.6326708197593689, -0.5721852779388428, 18.64385223388672, -3.3167669773101807, -3.333550214767456, -71.1834716796875, 21.651329040527344, -43.309852600097656, -1.96875, 0.0439453125, 0.34228515625, 0, 
393, 1042704118, 0.24193280935287476, -0.45960506796836853, -0.6303340196609497, -0.5769895315170288, 20.049701690673828, -4.4916300773620605, -3.5137767791748047, -66.44695281982422, 32.3887825012207, -31.972307205200195, -1.969970703125, 0.0380859375, 0.33349609375, 0, 
394, 1042712451, 0.24043598771095276, -0.45808345079421997, -0.6272773146629333, -0.5821333527565002, 19.909927368164062, -4.9726433753967285, -3.902811288833618, -72.12184143066406, 40.423072814941406, -22.46892738342285, -1.9755859375, 0.03125, 0.317138671875, 0, 
395, 1042720784, 0.239658921957016, -0.4568506181240082, -0.6238446831703186, -0.5870905518531799, 18.177274703979492, -5.105248928070068, -3.951777935028076, -69.9493179321289, 44.37253952026367, -11.26474666595459, -1.97607421875, 0.02978515625, 0.298095703125, 0, 
396, 1042729117, 0.2391868233680725, -0.45626458525657654, -0.6205049157142639, -0.5912635326385498, 16.721210479736328, -5.022280216217041, -3.7571747303009033, -62.68194580078125, 36.549827575683594, -1.218987226486206, -1.976806640625, 0.025390625, 0.284912109375, 0, 
397, 1042737450, 0.23885227739810944, -0.4565317630767822, -0.6173640489578247, -0.5944713950157166, 16.41922378540039, -4.845118045806885, -3.5858476161956787, -54.77711486816406, 24.062334060668945, 9.06586742401123, -1.9736328125, 0.027099609375, 0.27294921875, 0, 
398, 1042745783, 0.23880408704280853, -0.4576609134674072, -0.6142595410346985, -0.5968338847160339, 16.61857032775879, -4.389937400817871, -3.5659656524658203, -48.33229446411133, 14.034627914428711, 21.312341690063477, -1.967041015625, 0.03125, 0.26123046875, 0, 
399, 1042754116, 0.23932814598083496, -0.4595017731189728, -0.6109795570373535, -0.5985736846923828, 16.654390335083008, -4.020173072814941, -3.4965670108795166, -43.25124740600586, 9.673282623291016, 35.12496566772461, -1.965087890625, 0.034912109375, 0.2529296875, 0, 
400, 1042762449, 0.2405722439289093, -0.461965411901474, -0.6073647737503052, -0.5998561382293701, 16.568395614624023, -3.7436845302581787, -3.489870548248291, -39.6605339050293, 8.81964111328125, 49.95079803466797, -1.958740234375, 0.041015625, 0.24267578125, 0, 
401, 1042770782, 0.24237501621246338, -0.4650605618953705, -0.6034430861473083, -0.6006959676742554, 16.15424156188965, -3.788111925125122, -2.9916014671325684, -37.047733306884766, 6.467278957366943, 63.19774627685547, -1.9560546875, 0.0458984375, 0.231201171875, 0, 
402, 1042779115, 0.24417546391487122, -0.46876928210258484, -0.5996134877204895, -0.6009188890457153, 15.45938491821289, -4.228518009185791, -1.9209357500076294, -33.2160758972168, -2.8602285385131836, 69.78741455078125, -1.948974609375, 0.056396484375, 0.224609375, 0, 
403, 1042787448, 0.2454506754875183, -0.4726565480232239, -0.5963538885116577, -0.6005979776382446, 16.034313201904297, -4.273603916168213, -1.4515963792800903, -28.014419555664062, -14.094657897949219, 65.0150375366211, -1.943603515625, 0.06640625, 0.221923828125, 0, 
404, 1042795781, 0.24643874168395996, -0.47586333751678467, -0.5937244892120361, -0.6002660989761353, 17.616104125976562, -4.163292407989502, -1.6499539613723755, -22.2801456451416, -13.019933700561523, 53.059226989746094, -1.935546875, 0.0673828125, 0.215576171875, 0, 
405, 1042804114, 0.24882104992866516, -0.4776921570301056, -0.5915249586105347, -0.6000023484230042, 19.650388717651367, -4.277115821838379, -2.266681671142578, -5.502155303955078, 8.721014022827148, 50.21405029296875, -1.92236328125, 0.068359375, 0.208984375, 0, 
406, 1042812447, 0.2527586817741394, -0.4786289632320404, -0.5886229872703552, -0.6004636883735657, 20.565319061279297, -5.243674278259277, -2.7160251140594482, -3.919813632965088, 35.90583419799805, 57.98495864868164, -1.9228515625, 0.065185546875, 0.200927734375, 0, 
407, 1042820780, 0.25900882482528687, -0.47970715165138245, -0.5845974683761597, -0.6008722186088562, 20.336265563964844, -5.778423309326172, -3.0130844116210938, 1.9504271745681763, 57.006744384765625, 85.73844146728516, -1.917724609375, 0.06884765625, 0.18359375, 0, 
408, 1042829113, 0.26717501878738403, -0.4821353554725647, -0.5792462229728699, -0.6005355715751648, 19.516700744628906, -6.113382816314697, -2.936880350112915, 4.827865123748779, 61.069522857666016, 123.88892364501953, -1.927490234375, 0.07177734375, 0.160888671875, 0, 
409, 1042837446, 0.27717384696006775, -0.48648178577423096, -0.5730869770050049, -0.5984043478965759, 20.057537078857422, -5.462521076202393, -2.28548002243042, 17.541471481323242, 50.88776779174805, 166.1859893798828, -1.93603515625, 0.088134765625, 0.14697265625, 0, 
410, 1042845779, 0.288553923368454, -0.4922544062137604, -0.5663920044898987, -0.5946668982505798, 21.695003509521484, -3.93831729888916, -2.197817802429199, 29.60724449157715, 41.342872619628906, 198.5692901611328, -1.949951171875, 0.109375, 0.13037109375, 0, 
411, 1042854112, 0.30101603269577026, -0.49831700325012207, -0.5591862797737122, -0.5902429819107056, 23.393943786621094, -2.030144691467285, -2.7818541526794434, 36.94628143310547, 44.770751953125, 215.7875213623047, -1.965576171875, 0.14111328125, 0.11376953125, 0, 
412, 1042862445, 0.31413736939430237, -0.5040467381477356, -0.5514054894447327, -0.5858439803123474, 24.512046813964844, -0.5705161094665527, -3.1275336742401123, 37.98655319213867, 55.102516174316406, 222.4888458251953, -1.984130859375, 0.188720703125, 0.1025390625, 0, 
413, 1042870778, 0.3276412785053253, -0.5094977021217346, -0.5433098077774048, -0.5812780857086182, 24.972021102905273, 0.6825185418128967, -3.082052230834961, 40.562705993652344, 60.444522857666016, 226.2846221923828, -1.99951171875, 0.23876953125, 0.087158203125, 0, 
414, 1042879111, 0.34135743975639343, -0.5150057077407837, -0.5351813435554504, -0.5760483145713806, 25.52436065673828, 1.543466567993164, -3.239847421646118, 46.50040817260742, 57.08010482788086, 231.70570373535156, -2.013427734375, 0.291748046875, 0.0732421875, 0, 
415, 1042887444, 0.35532787442207336, -0.5207751989364624, -0.5270031690597534, -0.5699203610420227, 26.78725814819336, 2.6259350776672363, -3.5579447746276855, 53.2820930480957, 50.741634368896484, 240.1352996826172, -2.00927734375, 0.354248046875, 0.0693359375, 0, 
416, 1042895777, 0.3697095811367035, -0.5267573595046997, -0.5185247659683228, -0.5630096793174744, 27.867616653442383, 3.240039825439453, -3.417468547821045, 58.5169563293457, 47.92670822143555, 250.95631408691406, -2.0048828125, 0.42041015625, 0.0634765625, 0, 
417, 1042904110, 0.38100939989089966, -0.5325888991355896, -0.5070776343345642, -0.5604099035263062, 36.59255599975586, 9.765337944030762, -2.65376615524292, -16.775625228881836, 73.43073272705078, 225.5258331298828, -1.9990234375, 0.474609375, 0.064697265625, 0, 
418, 1042912443, 0.39243605732917786, -0.5311686396598816, -0.4925376772880554, -0.5668037533760071, 37.65506362915039, 22.05795669555664, 0.9128376245498657, -64.3961410522461, 212.29208374023438, 151.54473876953125, -1.993896484375, 0.50634765625, 0.04833984375, 0, 
419, 1042920776, 0.4125111699104309, -0.5275910496711731, -0.4806138277053833, -0.5661261081695557, 16.584049224853516, 2.227565288543701, -3.8415513038635254, 78.70976257324219, 221.91058349609375, 223.32669067382812, -1.9892578125, 0.54541015625, 0.0029296875, 0, 
420, 1042929109, 0.42792263627052307, -0.5336480736732483, -0.47096705436706543, -0.5570441484451294, 17.41175079345703, 0.38884589076042175, -6.599035739898682, 63.49685287475586, 42.18250274658203, 281.92999267578125, -1.987548828125, 0.596923828125, -0.02294921875, 0, 
421, 1042937442, 0.4430101811885834, -0.5412325263023376, -0.46372106671333313, -0.5438550710678101, 26.252695083618164, 6.747824192047119, -3.141251564025879, 97.120361328125, -15.894661903381348, 295.824462890625, -1.975830078125, 0.655517578125, -0.01806640625, 0, 
422, 1042945775, 0.4592062532901764, -0.5486595630645752, -0.45466357469558716, -0.5304617285728455, 33.89219284057617, 10.894819259643555, -4.254030704498291, 94.090576171875, 1.8755666017532349, 317.9138488769531, -1.9609375, 0.714111328125, -0.028564453125, 0, 
423, 1042954108, 0.4778648316860199, -0.5539865493774414, -0.4434279203414917, -0.5178051590919495, 31.292482376098633, 10.8507661819458, -3.2708542346954346, 105.43498229980469, 51.901615142822266, 334.469970703125, -1.94091796875, 0.782470703125, -0.041015625, 0, 
424, 1042962441, 0.49711182713508606, -0.5591291785240173, -0.43060630559921265, -0.5048158764839172, 28.438766479492188, 10.123802185058594, -3.92167329788208, 101.86912536621094, 64.69892120361328, 351.87420654296875, -1.920654296875, 0.85009765625, -0.0654296875, 0, 
425, 1042970774, 0.5165009498596191, -0.5642300844192505, -0.4153708517551422, -0.4922850728034973, 30.517868041992188, 10.64955997467041, -3.7962098121643066, 83.76836395263672, 85.85383605957031, 367.9868469238281, -1.895263671875, 0.933349609375, -0.09326171875, 0, 
426, 1042979107, 0.5356417298316956, -0.5678707361221313, -0.39950042963027954, -0.4806419610977173, 27.519515991210938, 9.747858047485352, -2.1373069286346436, 82.8492431640625, 105.72869873046875, 356.64129638671875, -1.859619140625, 1.000244140625, -0.124267578125, 0, 
427, 1042987440, 0.5528803467750549, -0.5712630152702332, -0.38336244225502014, -0.4701293408870697, 26.92960548400879, 10.492109298706055, -2.6754496097564697, 61.842315673828125, 107.7096176147461, 336.41192626953125, -1.820556640625, 1.06787109375, -0.14892578125, 0, 
428, 1042995773, 0.5688416957855225, -0.5746362209320068, -0.36693984270095825, -0.4599718451499939, 25.158199310302734, 10.958304405212402, -2.5668137073516846, 48.2387809753418, 106.05813598632812, 327.6344299316406, -1.78759765625, 1.11962890625, -0.17724609375, 0, 
429, 1043004106, 0.5836306214332581, -0.5780866742134094, -0.3509829342365265, -0.44945329427719116, 23.298397064208984, 10.051656723022461, -2.452312469482422, 43.13705062866211, 93.15447998046875, 319.71148681640625, -1.743896484375, 1.17578125, -0.202392578125, 0, 
430, 1043012439, 0.5967549085617065, -0.5819783210754395, -0.3357981741428375, -0.43866902589797974, 22.077861785888672, 9.608048439025879, -2.5611002445220947, 32.41659164428711, 74.08171081542969, 307.5818786621094, -1.696533203125, 1.22509765625, -0.224609375, 0, 
431, 1043020772, 0.6085918545722961, -0.5860329866409302, -0.3212934732437134, -0.4277360141277313, 21.38843536376953, 9.687688827514648, -2.5829689502716064, 25.565889358520508, 60.38081359863281, 296.31488037109375, -1.654296875, 1.26904296875, -0.234619140625, 0, 
432, 1043029105, 0.6193318963050842, -0.5901167988777161, -0.3073098063468933, -0.4168420135974884, 21.35500144958496, 9.281905174255371, -2.6625757217407227, 19.372451782226562, 51.317115783691406, 285.490478515625, -1.60595703125, 1.305908203125, -0.243896484375, 0, 
433, 1043037438, 0.6291791796684265, -0.5940328240394592, -0.2935771942138672, -0.40629714727401733, 21.136911392211914, 8.397727012634277, -3.432455062866211, 13.520315170288086, 49.20186233520508, 274.6347351074219, -1.56396484375, 1.3447265625, -0.2568359375, 0, 
434, 1043045771, 0.6382943987846375, -0.597746729850769, -0.2802426218986511, -0.3959158957004547, 20.499191284179688, 7.222530364990234, -3.7504708766937256, 10.851458549499512, 45.26573944091797, 265.0778503417969, -1.518798828125, 1.378662109375, -0.2646484375, 0, 
435, 1043054104, 0.646763026714325, -0.6013379693031311, -0.26752084493637085, -0.3853948414325714, 20.08042335510254, 6.781498432159424, -3.4741997718811035, 10.491511344909668, 36.91891098022461, 257.2637023925781, -1.479248046875, 1.41064453125, -0.275146484375, 0, 
436, 1043062437, 0.6546444296836853, -0.6047964096069336, -0.25539085268974304, -0.374758243560791, 19.676515579223633, 6.848503112792969, -3.0600662231445312, 10.374178886413574, 29.238630294799805, 249.8027801513672, -1.431884765625, 1.4345703125, -0.270263671875, 0, 
437, 1043070770, 0.6618669033050537, -0.6081098914146423, -0.24366235733032227, -0.3643757104873657, 19.36113166809082, 6.932236194610596, -2.961799383163452, 7.381289005279541, 26.174909591674805, 240.27505493164062, -1.387451171875, 1.466552734375, -0.28125, 0, 
438, 1043079103, 0.6684439182281494, -0.6111758351325989, -0.23214617371559143, -0.35462871193885803, 18.743833541870117, 6.39059591293335, -2.9785282611846924, 3.165107250213623, 28.62956428527832, 228.6453857421875, -1.349609375, 1.485595703125, -0.287109375, 0, 
439, 1043087436, 0.6743330955505371, -0.6141191720962524, -0.22102536261081696, -0.3453788459300995, 17.82255744934082, 5.592613220214844, -3.196967601776123, -1.1429295539855957, 27.58732032775879, 217.02023315429688, -1.30908203125, 1.507568359375, -0.28662109375, 0, 
440, 1043095769, 0.6796978712081909, -0.6169105172157288, -0.21049189567565918, -0.3363504707813263, 16.53249168395996, 4.757981777191162, -3.361619234085083, -2.050318717956543, 23.126480102539062, 207.0361785888672, -1.271728515625, 1.524658203125, -0.28662109375, 0, 
441, 1043104102, 0.6843663454055786, -0.619697093963623, -0.20099955797195435, -0.32745033502578735, 15.652058601379395, 4.150035381317139, -3.237112522125244, -3.4606237411499023, 12.5009183883667, 193.79515075683594, -1.234619140625, 1.538818359375, -0.28857421875, 0, 
442, 1043112435, 0.6883856058120728, -0.6223418116569519, -0.1926395297050476, -0.3189237713813782, 13.91848087310791, 4.24357271194458, -3.249847412109375, -3.5997705459594727, 3.8608250617980957, 177.29034423828125, -1.19873046875, 1.553466796875, -0.2861328125, 0, 
