PacketCounter,SampleTimeFine,Quat_W,Quat_X,Quat_Y,Quat_Z,Acc_X,Acc_Y,Acc_Z,Gyr_X,Gyr_Y,Gyr_Z,Mag_X,Mag_Y,Mag_Z,Status,
0, 3629233986, 0.07366793602705002, 0.6773454546928406, 0.08083375543355942, 0.727494478225708, 0, 0, 0, 0, 0, 0, -1.985107421875, 0.03173828125, 0.14306640625, 0, 
1, 3629242319, 0.07367116212844849, 0.6773483157157898, 0.08082838356494904, 0.727492094039917, 9.510619163513184, 2.055009603500366, 0.734850287437439, 0.995625376701355, -1.3578236103057861, 0.3675386607646942, -1.984619140625, 0.0302734375, 0.141845703125, 0, 
2, 3629250652, 0.07367271184921265, 0.6773487329483032, 0.08082166314125061, 0.7274923920631409, 9.514961242675781, 2.0702075958251953, 0.727992057800293, 1.0081508159637451, -1.3579258918762207, 0.3481743335723877, -1.982666015625, 0.033447265625, 0.137939453125, 0, 
3, 3629258985, 0.0736813098192215, 0.6773496866226196, 0.08081959187984467, 0.7274909019470215, 9.533801078796387, 2.0759477615356445, 0.7219507098197937, 0.9758511185646057, -1.3347193002700806, 0.2821151912212372, -1.982666015625, 0.0341796875, 0.14111328125, 0, 
4, 3629267318, 0.07368073612451553, 0.677351713180542, 0.08081555366516113, 0.7274894714355469, 9.519879341125488, 2.068842887878418, 0.7337496280670166, 1.0544739961624146, -1.3874974250793457, 0.3437558114528656, -1.989013671875, 0.0341796875, 0.138671875, 0, 
5, 3629275651, 0.07368218153715134, 0.6773481965065002, 0.08080738037824631, 0.7274935841560364, 9.519574165344238, 2.0701825618743896, 0.7377728819847107, 0.9706514477729797, -1.2354642152786255, 0.41182565689086914, -1.9833984375, 0.031005859375, 0.14111328125, 0, 
6, 3629283984, 0.07367852330207825, 0.6773544549942017, 0.08079639822244644, 0.727489173412323, 9.525606155395508, 2.086181402206421, 0.7004625797271729, 1.0201380252838135, -1.4573860168457031, 0.4401549994945526, -1.990234375, 0.031005859375, 0.141845703125, 0, 
7, 3629292317, 0.07368246465921402, 0.6773532629013062, 0.08078580349683762, 0.7274911403656006, 9.51927661895752, 2.056206703186035, 0.750941276550293, 0.9276964664459229, -1.2842849493026733, 0.40859827399253845, -1.989013671875, 0.030517578125, 0.14306640625, 0, 
8, 3629300650, 0.07368072867393494, 0.6773533821105957, 0.08077859878540039, 0.7274920344352722, 9.512105941772461, 2.075488328933716, 0.7256335616111755, 1.030806303024292, -1.347129464149475, 0.3857375383377075, -1.985107421875, 0.031005859375, 0.141845703125, 0, 
9, 3629308983, 0.07368194311857224, 0.6773536801338196, 0.08076970279216766, 0.7274924516677856, 9.49742603302002, 2.07353138923645, 0.7439969778060913, 0.9730208516120911, -1.3095535039901733, 0.4197276532649994, -1.987060546875, 0.0361328125, 0.14306640625, 0, 
10, 3629317316, 0.07368557155132294, 0.6773519515991211, 0.0807671844959259, 0.7274941802024841, 9.523350715637207, 2.0757927894592285, 0.718584418296814, 1.0266441106796265, -1.319606900215149, 0.287109911441803, -1.97900390625, 0.027099609375, 0.138671875, 0, 
11, 3629325649, 0.07368924468755722, 0.677349865436554, 0.08076603710651398, 0.7274959087371826, 9.493324279785156, 2.0746891498565674, 0.7599537968635559, 1.024031639099121, -1.2677382230758667, 0.32184287905693054, -1.984619140625, 0.0322265625, 0.143798828125, 0, 
12, 3629333982, 0.073693186044693, 0.6773425340652466, 0.08075729757547379, 0.72750324010849, 9.499340057373047, 2.0506703853607178, 0.741542398929596, 0.9454469680786133, -1.2185842990875244, 0.3423086106777191, -1.98828125, 0.032958984375, 0.141845703125, 0, 
13, 3629342315, 0.07369515299797058, 0.6773341298103333, 0.08075481653213501, 0.7275111079216003, 9.498689651489258, 2.0719711780548096, 0.7435523271560669, 1.0135807991027832, -1.146557092666626, 0.35135042667388916, -1.984619140625, 0.0341796875, 0.13916015625, 0, 
14, 3629350648, 0.07368874549865723, 0.6773260831832886, 0.08075395971536636, 0.7275193333625793, 9.5104341506958, 2.07324481010437, 0.7868770360946655, 1.1195212602615356, -1.1832623481750488, 0.37089410424232483, -1.9833984375, 0.03466796875, 0.14697265625, 0, 
15, 3629358981, 0.07368039339780807, 0.6773175597190857, 0.08076784014701843, 0.7275265455245972, 9.509710311889648, 2.05773663520813, 0.7302897572517395, 1.2740007638931274, -1.1253998279571533, 0.30068549513816833, -1.987060546875, 0.034912109375, 0.144287109375, 0, 
16, 3629367314, 0.07367849349975586, 0.6773021221160889, 0.08077939599752426, 0.7275398373603821, 9.501714706420898, 2.0646114349365234, 0.7643742561340332, 1.1890896558761597, -1.0548069477081299, 0.2075265347957611, -1.98583984375, 0.0341796875, 0.14111328125, 0, 
17, 3629375647, 0.07368022203445435, 0.677291989326477, 0.08080030977725983, 0.7275468111038208, 9.509140014648438, 2.068838119506836, 0.743573784828186, 1.2493598461151123, -1.1125414371490479, 0.13347576558589935, -1.984619140625, 0.0341796875, 0.141845703125, 0, 
18, 3629383980, 0.07367563992738724, 0.6772822737693787, 0.08081287145614624, 0.7275548577308655, 9.527250289916992, 2.0758330821990967, 0.7363519668579102, 1.2373980283737183, -1.1576225757598877, 0.22461122274398804, -1.98583984375, 0.031005859375, 0.14306640625, 0, 
19, 3629392313, 0.07367322593927383, 0.677280604839325, 0.08081944286823273, 0.7275559902191162, 9.52050495147705, 2.0914056301116943, 0.736559271812439, 1.159248948097229, -1.262410283088684, 0.3120838403701782, -1.989501953125, 0.032958984375, 0.14306640625, 0, 
20, 3629400646, 0.07366576790809631, 0.6772792339324951, 0.08081412315368652, 0.7275587320327759, 9.515375137329102, 2.0633697509765625, 0.7650661468505859, 1.098363995552063, -1.3040590286254883, 0.42552927136421204, -1.989501953125, 0.030517578125, 0.142578125, 0, 
21, 3629408979, 0.07365526258945465, 0.677280068397522, 0.08080729097127914, 0.7275596261024475, 9.524078369140625, 2.0641820430755615, 0.7733967900276184, 1.1029746532440186, -1.2964262962341309, 0.5188420414924622, -1.984619140625, 0.028564453125, 0.145751953125, 0, 
22, 3629417312, 0.07363778352737427, 0.677280604839325, 0.08079923689365387, 0.7275617122650146, 9.52255916595459, 2.068978786468506, 0.718276858329773, 1.1675480604171753, -1.321502447128296, 0.5528064370155334, -1.987060546875, 0.030517578125, 0.142578125, 0, 
23, 3629425645, 0.07362693548202515, 0.6772855520248413, 0.0807841345667839, 0.7275599241256714, 9.492935180664062, 2.0672519207000732, 0.7574893236160278, 1.0311522483825684, -1.3691961765289307, 0.6030360460281372, -1.98779296875, 0.0322265625, 0.14306640625, 0, 
24, 3629433978, 0.07360830157995224, 0.6772880554199219, 0.08077415078878403, 0.7275605797767639, 9.508942604064941, 2.065681219100952, 0.7221742272377014, 1.1592745780944824, -1.3568499088287354, 0.5815200209617615, -1.982666015625, 0.033935546875, 0.13427734375, 0, 
25, 3629442311, 0.07359078526496887, 0.6772937774658203, 0.08076225221157074, 0.727558434009552, 9.528695106506348, 2.0857346057891846, 0.7468979954719543, 1.1263090372085571, -1.3694266080856323, 0.6399972438812256, -1.9833984375, 0.0322265625, 0.141845703125, 0, 
26, 3629450644, 0.07356707751750946, 0.6772971749305725, 0.08074859529733658, 0.7275590896606445, 9.524765968322754, 2.097282648086548, 0.7474852204322815, 1.1746175289154053, -1.363637924194336, 0.6685827374458313, -1.985107421875, 0.0341796875, 0.139404296875, 0, 
27, 3629458977, 0.07354434579610825, 0.6773061156272888, 0.08073768764734268, 0.7275543808937073, 9.50339412689209, 2.0737884044647217, 0.7172328233718872, 1.1907289028167725, -1.4172226190567017, 0.6829779148101807, -1.985107421875, 0.0341796875, 0.139404296875, 0, 
28, 3629467310, 0.07352668046951294, 0.6773096323013306, 0.08072119951248169, 0.7275545597076416, 9.50336742401123, 2.0810019969940186, 0.7617765665054321, 1.0900905132293701, -1.3779816627502441, 0.6355147361755371, -1.984619140625, 0.032958984375, 0.139892578125, 0, 
29, 3629475643, 0.07350938022136688, 0.6773217916488647, 0.08070575445890427, 0.7275466918945312, 9.506016731262207, 2.073249340057373, 0.7218828201293945, 1.1017706394195557, -1.4915040731430054, 0.6717588305473328, -1.98388671875, 0.0322265625, 0.140625, 0, 
30, 3629483976, 0.073489248752594, 0.6773295402526855, 0.08068639785051346, 0.727543830871582, 9.525430679321289, 2.072216749191284, 0.7169478535652161, 1.0929337739944458, -1.4487794637680054, 0.6872555017471313, -1.982666015625, 0.0302734375, 0.14111328125, 0, 
31, 3629492309, 0.07346567511558533, 0.6773377656936646, 0.08066938817501068, 0.7275404334068298, 9.51526165008545, 2.0558054447174072, 0.7505027055740356, 1.1352741718292236, -1.4046205282211304, 0.7488833665847778, -1.986328125, 0.032958984375, 0.14501953125, 0, 
32, 3629500642, 0.07344251871109009, 0.6773453950881958, 0.08064601570367813, 0.7275382876396179, 9.518973350524902, 2.0727829933166504, 0.755980908870697, 1.0823551416397095, -1.4423246383666992, 0.7552356719970703, -1.982177734375, 0.0322265625, 0.144287109375, 0, 
33, 3629508975, 0.07342297583818436, 0.6773563623428345, 0.08062311261892319, 0.7275325655937195, 9.522005081176758, 2.070131778717041, 0.718148946762085, 1.044522762298584, -1.4632771015167236, 0.7656863331794739, -1.99072265625, 0.032958984375, 0.139892578125, 0, 
34, 3629517308, 0.07340021431446075, 0.6773741841316223, 0.08059685677289963, 0.7275211215019226, 9.494300842285156, 2.0753183364868164, 0.7269222140312195, 1.066422939300537, -1.634303331375122, 0.7804657220840454, -1.983154296875, 0.037353515625, 0.144287109375, 0, 
35, 3629525641, 0.07336817681789398, 0.6773930788040161, 0.08057568222284317, 0.727509081363678, 9.487798690795898, 2.0771753787994385, 0.7277770042419434, 1.1927013397216797, -1.587019681930542, 0.8748798966407776, -1.98388671875, 0.02978515625, 0.14111328125, 0, 
36, 3629533974, 0.07333795726299286, 0.6774091124534607, 0.08054620027542114, 0.7275005578994751, 9.492722511291504, 2.0578367710113525, 0.725919783115387, 1.1007717847824097, -1.5803600549697876, 0.8863038420677185, -1.98583984375, 0.0341796875, 0.14501953125, 0, 
37, 3629542307, 0.07330766320228577, 0.6774335503578186, 0.08051729947328568, 0.7274841070175171, 9.489523887634277, 2.060009002685547, 0.7434401512145996, 1.1100953817367554, -1.6943943500518799, 0.9314872026443481, -1.980224609375, 0.031494140625, 0.14111328125, 0, 
38, 3629550640, 0.0732724666595459, 0.6774577498435974, 0.08048922568559647, 0.7274681925773621, 9.485441207885742, 2.046539306640625, 0.750062108039856, 1.1789976358413696, -1.7276159524917603, 0.9254422783851624, -1.98779296875, 0.0341796875, 0.1474609375, 0, 
39, 3629558973, 0.07324674725532532, 0.6774903535842896, 0.08046483248472214, 0.7274430990219116, 9.486039161682129, 2.048149347305298, 0.775589108467102, 1.1299718618392944, -1.8530232906341553, 0.8447830677032471, -1.989501953125, 0.034912109375, 0.142578125, 0, 
40, 3629567306, 0.07321443408727646, 0.6775285005569458, 0.08044634759426117, 0.7274128198623657, 9.494216918945312, 2.022658109664917, 0.7474663853645325, 1.2790980339050293, -1.9954643249511719, 0.8068484663963318, -1.984619140625, 0.03466796875, 0.144287109375, 0, 
41, 3629575639, 0.0731891393661499, 0.6775678396224976, 0.08044510334730148, 0.7273789048194885, 9.510967254638672, 2.0489501953125, 0.7428293228149414, 1.3743830919265747, -1.979967713356018, 0.6242189407348633, -1.98779296875, 0.030517578125, 0.143798828125, 0, 
42, 3629583972, 0.07315807044506073, 0.6776037216186523, 0.08043833822011948, 0.7273493409156799, 9.505261421203613, 2.055429697036743, 0.7550283670425415, 1.3738195896148682, -1.9554804563522339, 0.6824913620948792, -1.98583984375, 0.035400390625, 0.144287109375, 0, 
43, 3629592305, 0.07312541455030441, 0.6776611804962158, 0.08045654743909836, 0.7272971272468567, 9.498875617980957, 2.0711185932159424, 0.7321062684059143, 1.676041841506958, -2.3057806491851807, 0.5171770453453064, -1.984619140625, 0.0341796875, 0.14111328125, 0, 
44, 3629600638, 0.0730927512049675, 0.677741527557373, 0.08048984408378601, 0.7272218465805054, 9.472804069519043, 2.022189140319824, 0.7684394121170044, 1.8888450860977173, -2.7855610847473145, 0.3301931321620941, -1.987060546875, 0.032958984375, 0.139404296875, 0, 
45, 3629608971, 0.07306328415870667, 0.6779139637947083, 0.08054903894662857, 0.7270576357841492, 9.459285736083984, 2.0382659435272217, 0.8128950595855713, 2.2955732345581055, -4.461141586303711, 0.11820969730615616, -1.985107421875, 0.033447265625, 0.14501953125, 0, 
46, 3629617304, 0.07304543256759644, 0.6781912446022034, 0.08061113953590393, 0.7267938256263733, 9.484779357910156, 2.0908994674682617, 0.814429521560669, 2.4427013397216797, -6.498445987701416, -0.05825956538319588, -1.98583984375, 0.031005859375, 0.14306640625, 0, 
47, 3629625637, 0.07309748977422714, 0.6785005331039429, 0.08067923039197922, 0.7264924049377441, 9.476253509521484, 1.9804484844207764, 0.6742452383041382, 1.9138702154159546, -7.191235542297363, -0.7666981220245361, -1.98583984375, 0.034912109375, 0.14697265625, 0, 
48, 3629633970, 0.07322272658348083, 0.6789157390594482, 0.08083400875329971, 0.7260746359825134, 9.381989479064941, 1.7983126640319824, 0.9472535252571106, 2.3455212116241455, -9.377538681030273, -2.353064775466919, -1.984619140625, 0.033447265625, 0.14697265625, 0, 
49, 3629642303, 0.0733807384967804, 0.6793585419654846, 0.08097556233406067, 0.7256285548210144, 9.372305870056152, 2.1508429050445557, 0.8486495614051819, 1.9534187316894531, -9.918792724609375, -2.5079028606414795, -1.98388671875, 0.031005859375, 0.148193359375, 0, 
50, 3629650636, 0.07353850454092026, 0.6798348426818848, 0.08106228709220886, 0.7251565456390381, 9.576921463012695, 2.1465420722961426, 0.5374479293823242, 1.4825522899627686, -10.600747108459473, -2.030914545059204, -1.982666015625, 0.032958984375, 0.152587890625, 0, 
51, 3629658969, 0.07368339598178864, 0.6803346872329712, 0.0811738446354866, 0.7246606945991516, 9.532917976379395, 2.0444180965423584, 0.7132499814033508, 1.8903309106826782, -10.968132019042969, -2.081758737564087, -1.984619140625, 0.035400390625, 0.148193359375, 0, 
52, 3629667302, 0.07383661717176437, 0.68082594871521, 0.08129958808422089, 0.7241691946983337, 9.556133270263672, 2.0472636222839355, 0.5877605080604553, 1.9543662071228027, -10.885422706604004, -2.3534233570098877, -1.98095703125, 0.032958984375, 0.153076171875, 0, 
53, 3629675635, 0.07399100065231323, 0.6812862753868103, 0.08145343512296677, 0.7237030267715454, 9.560462951660156, 2.0739123821258545, 0.5477083921432495, 2.1490347385406494, -10.264969825744629, -2.587973117828369, -1.982177734375, 0.0322265625, 0.155029296875, 0, 
54, 3629683968, 0.07411978393793106, 0.6817142963409424, 0.08162602037191391, 0.7232672572135925, 9.547258377075195, 2.084681749343872, 0.5459266304969788, 2.5227208137512207, -9.658501625061035, -2.5618464946746826, -1.977783203125, 0.028564453125, 0.158935546875, 0, 
55, 3629692301, 0.07423658668994904, 0.682092547416687, 0.08181041479110718, 0.7228776812553406, 9.595690727233887, 2.0998833179473877, 0.45149609446525574, 2.6356029510498047, -8.657035827636719, -2.514101505279541, -1.9833984375, 0.03125, 0.161376953125, 0, 
56, 3629700634, 0.07435154914855957, 0.6823857426643372, 0.08198128640651703, 0.7225697636604309, 9.578973770141602, 2.058272361755371, 0.4934466481208801, 2.35233473777771, -7.105786323547363, -2.430445432662964, -1.981689453125, 0.028076171875, 0.166015625, 0, 
57, 3629708967, 0.07447432726621628, 0.6826028227806091, 0.08217597752809525, 0.7223299145698547, 9.53279972076416, 2.12711763381958, 0.5197510123252869, 2.3486716747283936, -5.645339012145996, -2.6986260414123535, -1.9765625, 0.02685546875, 0.167724609375, 0, 
58, 3629717300, 0.07459326088428497, 0.6827570796012878, 0.08231470733880997, 0.7221560478210449, 9.544888496398926, 2.1725919246673584, 0.4885095953941345, 1.7020403146743774, -4.5059919357299805, -2.1871867179870605, -1.98095703125, 0.030029296875, 0.165283203125, 0, 
59, 3629725633, 0.07471976429224014, 0.6828749775886536, 0.08243495225906372, 0.722017765045166, 9.524691581726074, 2.125325918197632, 0.5877246856689453, 1.3578362464904785, -3.7864887714385986, -2.0443875789642334, -1.977783203125, 0.028564453125, 0.161376953125, 0, 
60, 3629733966, 0.07482177019119263, 0.6829884052276611, 0.082540363073349, 0.7218877673149109, 9.494086265563965, 2.176917791366577, 0.6042009592056274, 1.438930869102478, -3.7033703327178955, -1.7074322700500488, -1.977783203125, 0.029296875, 0.16259765625, 0, 
61, 3629742299, 0.07490639388561249, 0.6831181645393372, 0.08260183036327362, 0.7217492461204529, 9.526683807373047, 2.1933212280273438, 0.532960832118988, 1.1802271604537964, -3.9207327365875244, -1.0625425577163696, -1.97900390625, 0.02734375, 0.16015625, 0, 
62, 3629750632, 0.07498746365308762, 0.683251678943634, 0.08262771368026733, 0.7216113209724426, 9.513585090637207, 2.1655080318450928, 0.6087453961372375, 0.877799928188324, -4.03392219543457, -0.7382919788360596, -1.978515625, 0.028564453125, 0.16259765625, 0, 
63, 3629758965, 0.07505849748849869, 0.6833950281143188, 0.08263013511896133, 0.721467912197113, 9.528870582580566, 2.151071786880493, 0.6008238196372986, 0.7413528561592102, -4.148392200469971, -0.3638630509376526, -1.9765625, 0.02978515625, 0.163818359375, 0, 
64, 3629767298, 0.0750882551074028, 0.6835370659828186, 0.08261480182409286, 0.7213320136070251, 9.532011032104492, 2.1966552734375, 0.5474556684494019, 0.9558464884757996, -4.083921432495117, 0.16948941349983215, -1.982177734375, 0.026123046875, 0.163330078125, 0, 
65, 3629775631, 0.07511469721794128, 0.683670163154602, 0.08257173001766205, 0.7212079763412476, 9.543292999267578, 2.148897409439087, 0.5048030018806458, 0.6768561005592346, -3.860231637954712, 0.5156400799751282, -1.97802734375, 0.025634765625, 0.167724609375, 0, 
66, 3629783964, 0.07512243837118149, 0.683789074420929, 0.0825124979019165, 0.7211012840270996, 9.536870002746582, 2.17598295211792, 0.5315660834312439, 0.6688388586044312, -3.6016557216644287, 0.8053627014160156, -1.97412109375, 0.02978515625, 0.1689453125, 0, 
67, 3629792297, 0.07510274648666382, 0.683902382850647, 0.08244068920612335, 0.7210041880607605, 9.552647590637207, 2.146347761154175, 0.5255120992660522, 0.7742414474487305, -3.386854887008667, 1.2480791807174683, -1.98046875, 0.029296875, 0.16845703125, 0, 
68, 3629800630, 0.07504744082689285, 0.684002161026001, 0.08235987275838852, 0.7209246158599854, 9.507119178771973, 2.1433820724487305, 0.534681499004364, 1.0009530782699585, -3.105482578277588, 1.640668511390686, -1.98046875, 0.02978515625, 0.1640625, 0, 
69, 3629808963, 0.07495179772377014, 0.6841045618057251, 0.08229111135005951, 0.7208451628684998, 9.507819175720215, 2.1230485439300537, 0.5590007901191711, 1.4874440431594849, -3.025744915008545, 1.978084683418274, -1.977294921875, 0.02978515625, 0.167724609375, 0, 
70, 3629817296, 0.07479992508888245, 0.6842095851898193, 0.08224158734083176, 0.7207668423652649, 9.517181396484375, 2.1372835636138916, 0.5985128879547119, 2.218064785003662, -3.004485845565796, 2.3100967407226562, -1.977783203125, 0.028076171875, 0.165771484375, 0, 
71, 3629825629, 0.07460211962461472, 0.684333860874176, 0.08220101147890091, 0.7206739187240601, 9.51192569732666, 2.163475751876831, 0.6038696765899658, 2.7657222747802734, -3.2230262756347656, 2.7362918853759766, -1.975341796875, 0.028564453125, 0.16650390625, 0, 
72, 3629833962, 0.07434284687042236, 0.6844773888587952, 0.08215991407632828, 0.7205691933631897, 9.556458473205566, 2.1609134674072266, 0.5614467263221741, 3.3857922554016113, -3.505551815032959, 3.311690330505371, -1.97802734375, 0.02734375, 0.17041015625, 0, 
73, 3629842295, 0.0740106925368309, 0.684601902961731, 0.08211838454008102, 0.7204897999763489, 9.569438934326172, 2.150404453277588, 0.4888179302215576, 4.005938529968262, -2.9465975761413574, 4.091848373413086, -1.973388671875, 0.02978515625, 0.165771484375, 0, 
74, 3629850628, 0.0736355260014534, 0.684659481048584, 0.08204335719347, 0.7204821109771729, 9.607795715332031, 2.221405267715454, 0.30206167697906494, 3.9442081451416016, -1.6418085098266602, 4.781307220458984, -1.97607421875, 0.026123046875, 0.169677734375, 0, 
75, 3629858961, 0.07331473380327225, 0.6845284700393677, 0.08180803060531616, 0.7206659913063049, 9.598296165466309, 2.0359063148498535, 0.3632894456386566, 1.4226659536361694, 1.8532158136367798, 5.781927585601807, -1.978515625, 0.03173828125, 0.167724609375, 0, 
76, 3629867294, 0.07301212847232819, 0.6842907071113586, 0.08160508424043655, 0.7209455370903015, 9.561445236206055, 1.9998304843902588, 0.326677531003952, 1.369080901145935, 3.774744749069214, 5.225099086761475, -1.9765625, 0.03564453125, 0.169677734375, 0, 
77, 3629875627, 0.07273858040571213, 0.6839724183082581, 0.08141152560710907, 0.7212972044944763, 9.477807998657227, 2.0193369388580322, 0.5031273365020752, 1.0145542621612549, 5.278376579284668, 4.878666877746582, -1.978271484375, 0.036865234375, 0.1669921875, 0, 
78, 3629883960, 0.07250528037548065, 0.6836025714874268, 0.08120047301054001, 0.7216946482658386, 9.474254608154297, 2.028085470199585, 0.5219910740852356, 0.3745826184749603, 6.1109938621521, 4.582745552062988, -1.980224609375, 0.03564453125, 0.16455078125, 0, 
79, 3629892293, 0.07228590548038483, 0.6832165718078613, 0.08100626617670059, 0.7221037745475769, 9.498085021972656, 2.039658308029175, 0.5534104704856873, 0.367538720369339, 6.427124977111816, 4.330317974090576, -1.977783203125, 0.034912109375, 0.16455078125, 0, 
80, 3629900626, 0.07208743691444397, 0.6828187704086304, 0.08081657439470291, 0.7225212454795837, 9.509844779968262, 2.0115950107574463, 0.5719993710517883, 0.20035456120967865, 6.558858394622803, 4.02455997467041, -1.982666015625, 0.037353515625, 0.158203125, 0, 
81, 3629908959, 0.0719229057431221, 0.682425320148468, 0.08063182979822159, 0.7229299545288086, 9.509515762329102, 1.9861483573913574, 0.6389920711517334, -0.06112837418913841, 6.448537826538086, 3.6868362426757812, -1.980712890625, 0.039794921875, 0.16259765625, 0, 
82, 3629917292, 0.07178659737110138, 0.6820468902587891, 0.08046559244394302, 0.7233189344406128, 9.48339557647705, 1.986971378326416, 0.7091221213340759, -0.0934535339474678, 6.052259922027588, 3.1805450916290283, -1.980712890625, 0.037353515625, 0.159423828125, 0, 
83, 3629925625, 0.07167792320251465, 0.6817062497138977, 0.08032723516225815, 0.7236661911010742, 9.469893455505371, 2.0036046504974365, 0.7227342128753662, -0.0032914294861257076, 5.3299384117126465, 2.6945152282714844, -1.983154296875, 0.04052734375, 0.15625, 0, 
84, 3629933958, 0.07158280164003372, 0.6814021468162537, 0.08021228760480881, 0.7239747643470764, 9.46796989440918, 1.998836636543274, 0.720754086971283, 0.1933874785900116, 4.563124656677246, 2.292576551437378, -1.982177734375, 0.035400390625, 0.156982421875, 0, 
85, 3629942291, 0.07148836553096771, 0.6811665892601013, 0.08014342933893204, 0.7242133021354675, 9.499373435974121, 2.01381778717041, 0.7143784165382385, 0.7783139944076538, 3.317119836807251, 1.9097970724105835, -1.986328125, 0.039794921875, 0.15576171875, 0, 
86, 3629950624, 0.071408711373806, 0.6809629201889038, 0.08009002357721329, 0.7244185209274292, 9.4965181350708, 1.9971046447753906, 0.7126511335372925, 0.873394250869751, 2.6408023834228516, 1.5728933811187744, -1.983154296875, 0.039306640625, 0.155029296875, 0, 
87, 3629958957, 0.07133889943361282, 0.6807974576950073, 0.08006232976913452, 0.7245840430259705, 9.525153160095215, 1.994357943534851, 0.6671561598777771, 1.1070473194122314, 1.9485262632369995, 1.2836061716079712, -1.98193359375, 0.03857421875, 0.155029296875, 0, 
88, 3629967290, 0.0712728500366211, 0.6806517243385315, 0.080031618475914, 0.7247307300567627, 9.523158073425293, 2.0457346439361572, 0.6900826096534729, 1.0940607786178589, 1.521203875541687, 1.2296370267868042, -1.983154296875, 0.044921875, 0.155029296875, 0, 
89, 3629975623, 0.07121317088603973, 0.6805433034896851, 0.08000623434782028, 0.7248411178588867, 9.516528129577637, 2.0276801586151123, 0.6816726326942444, 1.1518337726593018, 0.8545549511909485, 1.1707627773284912, -1.98388671875, 0.039306640625, 0.154296875, 0, 
90, 3629983956, 0.07114085555076599, 0.6804565191268921, 0.07998453080654144, 0.7249321937561035, 9.535723686218262, 2.024165630340576, 0.6567147374153137, 1.3617039918899536, 0.42901280522346497, 1.2186228036880493, -1.984619140625, 0.037353515625, 0.14990234375, 0, 
91, 3629992289, 0.07107925415039062, 0.6803842186927795, 0.07997499406337738, 0.7250070571899414, 9.523581504821777, 2.0233359336853027, 0.6605026721954346, 1.4022512435913086, 0.18006806075572968, 1.0469818115234375, -1.984619140625, 0.035400390625, 0.15380859375, 0, 
92, 3630000622, 0.0710209310054779, 0.680317759513855, 0.07996830344200134, 0.7250760197639465, 9.550257682800293, 2.039731502532959, 0.646704375743866, 1.424381971359253, 0.018493475392460823, 0.938249409198761, -1.984375, 0.04296875, 0.154296875, 0, 
93, 3630008955, 0.07096775621175766, 0.6802535057067871, 0.0799737200140953, 0.7251409292221069, 9.546956062316895, 2.032487630844116, 0.6110756397247314, 1.4916961193084717, 0.010757978074252605, 0.8220376372337341, -1.980224609375, 0.0390625, 0.14990234375, 0, 
94, 3630017288, 0.07091696560382843, 0.6801849603652954, 0.07997456938028336, 0.7252100706100464, 9.528345108032227, 2.0173020362854004, 0.6635334491729736, 1.4265079498291016, 0.04129014536738396, 0.7906858325004578, -1.986328125, 0.039306640625, 0.148681640625, 0, 
95, 3630025621, 0.07086770236492157, 0.680121898651123, 0.07998999953269958, 0.7252723574638367, 9.522140502929688, 2.015759229660034, 0.6354333162307739, 1.558882236480713, -0.01881365478038788, 0.6881263852119446, -1.987060546875, 0.039794921875, 0.154541015625, 0, 
96, 3630033954, 0.07082004100084305, 0.6800581216812134, 0.08000840991735458, 0.7253347635269165, 9.530516624450684, 2.01338267326355, 0.6390207409858704, 1.5852649211883545, -0.05920730158686638, 0.5950186848640442, -1.983154296875, 0.037841796875, 0.152587890625, 0, 
97, 3630042287, 0.07078826427459717, 0.679995596408844, 0.08002399653196335, 0.7253947257995605, 9.526463508605957, 2.0318222045898438, 0.6562376022338867, 1.3996129035949707, -0.06374102085828781, 0.5100562572479248, -1.985107421875, 0.039794921875, 0.150634765625, 0, 
98, 3630050620, 0.0707537978887558, 0.679928719997406, 0.08002900332212448, 0.7254602313041687, 9.526771545410156, 2.035491704940796, 0.6701069474220276, 1.3213359117507935, -0.024628087878227234, 0.5878210663795471, -1.98681640625, 0.042236328125, 0.1494140625, 0, 
99, 3630058953, 0.07073555886745453, 0.6798583269119263, 0.08000380545854568, 0.725530743598938, 9.546713829040527, 2.022559404373169, 0.6352869272232056, 0.8473188877105713, 0.05842606723308563, 0.7586679458618164, -1.985595703125, 0.041015625, 0.1494140625, 0, 
100, 3630067286, 0.0707102119922638, 0.6797884702682495, 0.08000903576612473, 0.725598156452179, 9.515362739562988, 1.9853216409683228, 0.6681256294250488, 1.2321215867996216, 0.01203869003802538, 0.49294596910476685, -1.98388671875, 0.04052734375, 0.153076171875, 0, 
101, 3630075619, 0.07069239020347595, 0.6797236800193787, 0.08003248274326324, 0.7256579399108887, 9.495513916015625, 1.9993484020233154, 0.6760652661323547, 1.3457973003387451, -0.051292501389980316, 0.2954345941543579, -1.98388671875, 0.04052734375, 0.1494140625, 0, 
102, 3630083952, 0.07067859917879105, 0.6796632409095764, 0.08005416393280029, 0.7257134914398193, 9.513466835021973, 2.023818016052246, 0.6585050821304321, 1.3121658563613892, -0.1880469024181366, 0.22376595437526703, -1.983154296875, 0.037353515625, 0.1494140625, 0, 
103, 3630092285, 0.0706818476319313, 0.6795869469642639, 0.08007505536079407, 0.7257823348045349, 9.557099342346191, 2.039926528930664, 0.6504437923431396, 1.102129340171814, 0.1221286803483963, 0.10386572778224945, -1.984375, 0.04541015625, 0.154296875, 0, 
104, 3630100618, 0.07068562507629395, 0.6794973015785217, 0.08005315810441971, 0.7258683443069458, 9.498567581176758, 2.0547614097595215, 0.6280983090400696, 0.6499355435371399, 0.3277597427368164, 0.45273157954216003, -1.987060546875, 0.04052734375, 0.148193359375, 0, 
105, 3630108951, 0.07068684697151184, 0.6794320344924927, 0.08006194233894348, 0.7259283661842346, 9.49074935913086, 1.9805008172988892, 0.7473718523979187, 1.020880937576294, -0.0817222148180008, 0.24210573732852936, -1.985595703125, 0.04296875, 0.146728515625, 0, 
106, 3630117284, 0.07068769633769989, 0.6793777942657471, 0.08008383959531784, 0.7259765267372131, 9.482358932495117, 2.041785717010498, 0.7120010852813721, 1.1913949251174927, -0.3355849087238312, 0.07535708695650101, -1.98193359375, 0.04296875, 0.14794921875, 0, 
107, 3630125617, 0.07068383693695068, 0.6793369054794312, 0.08009712398052216, 0.7260136604309082, 9.49303150177002, 2.020613670349121, 0.7292609214782715, 1.161989688873291, -0.5269231796264648, 0.25473353266716003, -1.9814453125, 0.037353515625, 0.14794921875, 0, 
108, 3630133950, 0.07067608833312988, 0.6793108582496643, 0.0801004096865654, 0.7260383367538452, 9.532450675964355, 2.032158374786377, 0.7062788605690002, 1.139065146446228, -0.8454107046127319, 0.3422830104827881, -1.987060546875, 0.04052734375, 0.148193359375, 0, 
109, 3630142283, 0.07066366821527481, 0.6792972087860107, 0.08011122792959213, 0.7260511517524719, 9.543395042419434, 2.036106824874878, 0.6634619235992432, 1.2708758115768433, -1.0198947191238403, 0.37027937173843384, -1.989501953125, 0.0380859375, 0.15185546875, 0, 
110, 3630150616, 0.07063789665699005, 0.6792832016944885, 0.08011448383331299, 0.7260664105415344, 9.546965599060059, 2.046609878540039, 0.6997608542442322, 1.3311206102371216, -1.0311652421951294, 0.528114378452301, -1.982666015625, 0.039794921875, 0.150634765625, 0, 
111, 3630158949, 0.07061877846717834, 0.6792800426483154, 0.08011305332183838, 0.7260713577270508, 9.509307861328125, 2.0537121295928955, 0.6878176927566528, 1.2296369075775146, -1.2014740705490112, 0.554445743560791, -1.987060546875, 0.037841796875, 0.1494140625, 0, 
112, 3630167282, 0.07060761004686356, 0.6792847514152527, 0.08009795844554901, 0.7260698676109314, 9.499353408813477, 2.0357720851898193, 0.7077457308769226, 1.0473660230636597, -1.410947322845459, 0.5571607947349548, -1.98388671875, 0.039306640625, 0.150634765625, 0, 
113, 3630175615, 0.0706033706665039, 0.6792953610420227, 0.08008349686861038, 0.7260619401931763, 9.528615951538086, 2.0187554359436035, 0.7029830813407898, 0.9881715178489685, -1.4899671077728271, 0.5304195880889893, -1.98388671875, 0.03857421875, 0.148681640625, 0, 
114, 3630183948, 0.07058733701705933, 0.679307758808136, 0.08007198572158813, 0.7260531187057495, 9.516988754272461, 2.0279455184936523, 0.6644070744514465, 1.1470566987991333, -1.5453708171844482, 0.575372576713562, -1.98388671875, 0.0390625, 0.148193359375, 0, 
115, 3630192281, 0.0705738514661789, 0.6793195009231567, 0.08005969971418381, 0.726044774055481, 9.516468048095703, 2.0052037239074707, 0.6813112497329712, 1.0979284048080444, -1.4915040731430054, 0.6033945083618164, -1.98193359375, 0.042236328125, 0.146728515625, 0, 
116, 3630200614, 0.07056352496147156, 0.6793301701545715, 0.08004438877105713, 0.7260376214981079, 9.512170791625977, 2.018096923828125, 0.667637825012207, 1.0495177507400513, -1.52498197555542, 0.5525246858596802, -1.981201171875, 0.04296875, 0.144287109375, 0, 
117, 3630208947, 0.07055305689573288, 0.6793398857116699, 0.08003169298171997, 0.7260308861732483, 9.527091026306152, 2.023590564727783, 0.6890814900398254, 1.0615050792694092, -1.4602547883987427, 0.5756543278694153, -1.98681640625, 0.04296875, 0.1455078125, 0, 
118, 3630217280, 0.07053812593221664, 0.679348886013031, 0.08002704381942749, 0.7260243892669678, 9.52290153503418, 2.0210886001586914, 0.6421748399734497, 1.196799397468567, -1.4871495962142944, 0.49899089336395264, -1.984375, 0.041748046875, 0.1474609375, 0, 
119, 3630225613, 0.07051800191402435, 0.6793500185012817, 0.0800250917673111, 0.7260255217552185, 9.533820152282715, 2.033596992492676, 0.6436436176300049, 1.2422136068344116, -1.2778047323226929, 0.5704034566879272, -1.983154296875, 0.040283203125, 0.144775390625, 0, 
120, 3630233946, 0.07048814743757248, 0.6793447136878967, 0.08001801371574402, 0.7260341644287109, 9.536861419677734, 2.029611110687256, 0.6380736231803894, 1.2788931131362915, -1.187078833580017, 0.6681728959083557, -1.98681640625, 0.044189453125, 0.1474609375, 0, 
121, 3630242279, 0.07046301662921906, 0.679338812828064, 0.08000796288251877, 0.7260430455207825, 9.521868705749512, 2.0239295959472656, 0.701850414276123, 1.1926499605178833, -1.1398462057113647, 0.6958106160163879, -1.986328125, 0.0390625, 0.146728515625, 0, 
122, 3630250612, 0.07043871283531189, 0.6793392300605774, 0.07999934256076813, 0.7260461449623108, 9.520282745361328, 2.0267257690429688, 0.7010065317153931, 1.226973056793213, -1.3039565086364746, 0.6284452080726624, -1.985107421875, 0.041015625, 0.150634765625, 0, 
123, 3630258945, 0.07041871547698975, 0.6793519258499146, 0.07998847961425781, 0.7260373830795288, 9.51229476928711, 2.0353024005889893, 0.7134807109832764, 1.1744638681411743, -1.4974979162216187, 0.6567489504814148, -1.98388671875, 0.04052734375, 0.14794921875, 0, 
124, 3630267278, 0.07039634883403778, 0.6793652772903442, 0.07996771484613419, 0.7260292172431946, 9.538810729980469, 2.0107533931732178, 0.705409586429596, 1.1073033809661865, -1.5514156818389893, 0.7253950834274292, -1.98681640625, 0.046142578125, 0.150634765625, 0, 
125, 3630275611, 0.07038283348083496, 0.6793807148933411, 0.0799492597579956, 0.7260181903839111, 9.536018371582031, 2.017150640487671, 0.6803942918777466, 1.0428451299667358, -1.5585236549377441, 0.6621920466423035, -1.985107421875, 0.04052734375, 0.146728515625, 0, 
126, 3630283944, 0.07037582993507385, 0.6793938875198364, 0.07991296797990799, 0.7260105013847351, 9.527745246887207, 2.01252818107605, 0.6715914011001587, 0.8107673525810242, -1.5801036357879639, 0.7186329364776611, -1.981201171875, 0.041015625, 0.149169921875, 0, 
127, 3630292277, 0.0703686773777008, 0.6794081330299377, 0.0798848494887352, 0.726000964641571, 9.529717445373535, 2.029895544052124, 0.6937872767448425, 0.8841777443885803, -1.5492128133773804, 0.6897656917572021, -1.982421875, 0.04296875, 0.146728515625, 0, 
128, 3630300610, 0.07036226987838745, 0.6794185042381287, 0.07986358553171158, 0.7259942293167114, 9.540993690490723, 2.0130221843719482, 0.6506932377815247, 0.9522091746330261, -1.5272871255874634, 0.5692251324653625, -1.987548828125, 0.03857421875, 0.148681640625, 0, 
129, 3630308943, 0.07035557925701141, 0.6794242262840271, 0.07983841747045517, 0.7259923219680786, 9.525422096252441, 2.018721103668213, 0.6460601687431335, 0.8928866982460022, -1.3909426927566528, 0.654751181602478, -1.98193359375, 0.04296875, 0.14794921875, 0, 
130, 3630317276, 0.07035236805677414, 0.6794246435165405, 0.07982340455055237, 0.7259939312934875, 9.526050567626953, 2.0112082958221436, 0.6818315982818604, 0.9628903269767761, -1.348576545715332, 0.47724443674087524, -1.985107421875, 0.04345703125, 0.1494140625, 0, 
131, 3630325609, 0.07035084068775177, 0.679426372051239, 0.07980667054653168, 0.7259944081306458, 9.511927604675293, 1.9891314506530762, 0.6833087205886841, 0.9220612645149231, -1.3250114917755127, 0.5225560069084167, -1.98876953125, 0.041748046875, 0.148681640625, 0, 
132, 3630333942, 0.07034425437450409, 0.6794270873069763, 0.07978956401348114, 0.7259960770606995, 9.507010459899902, 2.0065009593963623, 0.6827386021614075, 0.9773879051208496, -1.3500622510910034, 0.5311111211776733, -1.98388671875, 0.039306640625, 0.14990234375, 0, 
133, 3630342275, 0.07034580409526825, 0.6794261932373047, 0.07978518307209015, 0.7259972095489502, 9.521461486816406, 2.0083041191101074, 0.6636772155761719, 1.0137602090835571, -1.2857705354690552, 0.3754534423351288, -1.985107421875, 0.04052734375, 0.148193359375, 0, 
134, 3630350608, 0.07034385204315186, 0.6794249415397644, 0.07976827770471573, 0.7260004281997681, 9.498265266418457, 2.0232009887695312, 0.6797493100166321, 0.9310517907142639, -1.319735050201416, 0.48039495944976807, -1.987548828125, 0.044189453125, 0.1494140625, 0, 
135, 3630358941, 0.07034419476985931, 0.679435670375824, 0.07975462079048157, 0.7259919047355652, 9.505046844482422, 2.0183563232421875, 0.6906731128692627, 0.9541302919387817, -1.4989323616027832, 0.47724446654319763, -1.98388671875, 0.03662109375, 0.14990234375, 0, 
136, 3630367274, 0.07034696638584137, 0.6794450879096985, 0.07974360138177872, 0.7259840965270996, 9.509868621826172, 1.9985367059707642, 0.680984616279602, 0.9673215746879578, -1.5286192893981934, 0.37896260619163513, -1.987548828125, 0.039306640625, 0.150634765625, 0, 
137, 3630375607, 0.07035277038812637, 0.6794567704200745, 0.07973628491163254, 0.7259734869003296, 9.553777694702148, 2.012448787689209, 0.67066890001297, 0.9698317050933838, -1.5262624025344849, 0.3633379340171814, -1.980224609375, 0.03857421875, 0.151123046875, 0, 
138, 3630383940, 0.07034790515899658, 0.6794654130935669, 0.07972036302089691, 0.7259674072265625, 9.531442642211914, 2.0416762828826904, 0.6482795476913452, 0.9874287247657776, -1.50185227394104, 0.5033196806907654, -1.986328125, 0.044921875, 0.14990234375, 0, 
139, 3630392273, 0.07035289704799652, 0.6794720888137817, 0.079712875187397, 0.7259615063667297, 9.521308898925781, 2.0297977924346924, 0.6643754243850708, 0.9653492569923401, -1.432719349861145, 0.3709453046321869, -1.985107421875, 0.042236328125, 0.1494140625, 0, 
140, 3630400606, 0.07035662233829498, 0.6794794797897339, 0.07969457656145096, 0.7259562015533447, 9.541150093078613, 2.023038625717163, 0.6849061250686646, 0.8821287155151367, -1.4937325716018677, 0.4381571412086487, -1.987548828125, 0.044189453125, 0.1474609375, 0, 
141, 3630408939, 0.07035847008228302, 0.6794954538345337, 0.0796801820397377, 0.7259426712989807, 9.522451400756836, 2.037379026412964, 0.6458539366722107, 0.9433465600013733, -1.6020039319992065, 0.46930402517318726, -1.985107421875, 0.03857421875, 0.1494140625, 0, 
142, 3630417272, 0.07035793364048004, 0.6795151829719543, 0.07965556532144547, 0.7259269952774048, 9.555195808410645, 2.007638931274414, 0.6628459095954895, 0.8831787705421448, -1.7131952047348022, 0.5446354746818542, -1.984375, 0.04052734375, 0.14990234375, 0, 
143, 3630425605, 0.07035352289676666, 0.6795260906219482, 0.0796370580792427, 0.7259193062782288, 9.545705795288086, 2.011368751525879, 0.6874961256980896, 0.949519693851471, -1.492631196975708, 0.5709925889968872, -1.986328125, 0.04296875, 0.14794921875, 0, 
144, 3630433938, 0.07035153359174728, 0.6795323491096497, 0.07961275428533554, 0.72591632604599, 9.533044815063477, 2.0348734855651855, 0.6499050855636597, 0.870935320854187, -1.4598450660705566, 0.5528833270072937, -1.98388671875, 0.04296875, 0.14794921875, 0, 
145, 3630442271, 0.07035507261753082, 0.6795390844345093, 0.07959118485450745, 0.7259120941162109, 9.530413627624512, 2.0185980796813965, 0.6338613629341125, 0.8366889357566833, -1.4295176267623901, 0.5179710388183594, -1.985595703125, 0.04296875, 0.14794921875, 0, 
146, 3630450604, 0.07035437226295471, 0.6795371770858765, 0.0795709416270256, 0.7259162068367004, 9.543037414550781, 2.00661563873291, 0.653462290763855, 0.8850486278533936, -1.3095149993896484, 0.5010144710540771, -1.986328125, 0.0380859375, 0.1513671875, 0, 
147, 3630458937, 0.07035405933856964, 0.6795377731323242, 0.07955431938171387, 0.7259174585342407, 9.525848388671875, 1.9912656545639038, 0.7057710289955139, 0.9104834198951721, -1.3087975978851318, 0.5104404091835022, -1.987548828125, 0.04052734375, 0.148681640625, 0, 
148, 3630467270, 0.07035411894321442, 0.6795291304588318, 0.07953458279371262, 0.7259276509284973, 9.518952369689941, 2.0109500885009766, 0.6757004857063293, 0.8682712912559509, -1.1851321458816528, 0.485569030046463, -1.98388671875, 0.04296875, 0.14990234375, 0, 
149, 3630475603, 0.0703580304980278, 0.6795274019241333, 0.07951813191175461, 0.7259306907653809, 9.517694473266602, 2.0133821964263916, 0.6584191918373108, 0.8682457208633423, -1.2754478454589844, 0.46561554074287415, -1.985107421875, 0.04052734375, 0.148681640625, 0, 
150, 3630483936, 0.07036367058753967, 0.6795231103897095, 0.07950428128242493, 0.725935697555542, 9.522844314575195, 2.000793218612671, 0.6940975785255432, 0.8856890797615051, -1.27483332157135, 0.37583768367767334, -1.985595703125, 0.043701171875, 0.150634765625, 0, 
151, 3630492269, 0.07036830484867096, 0.6795161962509155, 0.07950524985790253, 0.7259414792060852, 9.519576072692871, 2.003690719604492, 0.6939402222633362, 1.0271052122116089, -1.1808546781539917, 0.2913362979888916, -1.985595703125, 0.044189453125, 0.152587890625, 0, 
152, 3630500602, 0.07036695629358292, 0.6795048117637634, 0.07950162887573242, 0.7259527444839478, 9.490421295166016, 2.014519214630127, 0.6925168633460999, 1.0367873907089233, -1.131982684135437, 0.3480462431907654, -1.98681640625, 0.04296875, 0.1474609375, 0, 
153, 3630508935, 0.07037409394979477, 0.6794987320899963, 0.07950356602668762, 0.7259575724601746, 9.497945785522461, 2.014183282852173, 0.650493860244751, 1.0153738260269165, -1.2004750967025757, 0.2579609453678131, -1.98388671875, 0.044189453125, 0.14990234375, 0, 
154, 3630517268, 0.07037430256605148, 0.6794911026954651, 0.07950738072395325, 0.725964367389679, 9.506765365600586, 2.0122740268707275, 0.6748206615447998, 1.1100952625274658, -1.2020375728607178, 0.2632887065410614, -1.98193359375, 0.041748046875, 0.148681640625, 0, 
155, 3630525601, 0.07038219273090363, 0.6794863939285278, 0.07951531559228897, 0.7259670495986938, 9.526062965393066, 1.9927247762680054, 0.6747705936431885, 1.0721349716186523, -1.2297009229660034, 0.19356675446033478, -1.985107421875, 0.039794921875, 0.1494140625, 0, 
156, 3630533934, 0.07038985192775726, 0.6794704794883728, 0.07952595502138138, 0.7259801626205444, 9.512558937072754, 2.01521372795105, 0.6785615682601929, 1.0932154655456543, -1.0616458654403687, 0.12207742780447006, -1.985107421875, 0.041748046875, 0.151123046875, 0, 
157, 3630542267, 0.07039583474397659, 0.6794554591178894, 0.07953481376171112, 0.7259926795959473, 9.538802146911621, 2.021357536315918, 0.6644704937934875, 1.0782568454742432, -1.0311650037765503, 0.20230121910572052, -1.984375, 0.04052734375, 0.14794921875, 0, 
158, 3630550600, 0.07040271908044815, 0.6794358491897583, 0.07954748719930649, 0.7260088920593262, 9.515398025512695, 2.008246421813965, 0.6917657256126404, 1.1095830202102661, -0.996560275554657, 0.10878364741802216, -1.98388671875, 0.039794921875, 0.15185546875, 0, 
159, 3630558933, 0.07040994614362717, 0.6794138550758362, 0.0795600563287735, 0.7260274291038513, 9.522494316101074, 2.0185465812683105, 0.6811366081237793, 1.090551733970642, -0.9014545679092407, 0.1549917459487915, -1.987060546875, 0.041748046875, 0.153076171875, 0, 
160, 3630567266, 0.07041679322719574, 0.6793891191482544, 0.07957421988248825, 0.7260482907295227, 9.509461402893066, 2.01466965675354, 0.6938830018043518, 1.1174466609954834, -0.8982272744178772, 0.09515688568353653, -1.985107421875, 0.04052734375, 0.1513671875, 0, 
161, 3630575599, 0.07042138278484344, 0.6793711185455322, 0.07959354668855667, 0.7260625958442688, 9.509089469909668, 2.01175856590271, 0.6822095513343811, 1.190729022026062, -0.972252368927002, 0.11623740196228027, -1.986328125, 0.039306640625, 0.148681640625, 0, 
162, 3630583932, 0.07042950391769409, 0.6793494820594788, 0.07960794866085052, 0.7260804176330566, 9.52042007446289, 2.0157999992370605, 0.6834613084793091, 1.1137580871582031, -0.9602136015892029, 0.08040308207273483, -1.983154296875, 0.04296875, 0.150634765625, 0, 
163, 3630592265, 0.0704399049282074, 0.6793308854103088, 0.07963146269321442, 0.7260941863059998, 9.518817901611328, 2.022352457046509, 0.7135319113731384, 1.178741455078125, -0.9742501974105835, 0.019646117463707924, -1.982421875, 0.042236328125, 0.146240234375, 0, 
164, 3630600598, 0.07044892013072968, 0.679315984249115, 0.07964581251144409, 0.7261056900024414, 9.515741348266602, 2.020313262939453, 0.713274359703064, 1.120007872581482, -1.0879261493682861, 0.07297495752573013, -1.986328125, 0.041748046875, 0.148193359375, 0, 
165, 3630608931, 0.07046528160572052, 0.6793085932731628, 0.07965751737356186, 0.7261097431182861, 9.513738632202148, 2.017266273498535, 0.7021230459213257, 1.026388168334961, -1.192457914352417, 0.07238583266735077, -1.97998046875, 0.041015625, 0.148681640625, 0, 
166, 3630617264, 0.07047880440950394, 0.6793046593666077, 0.07966285943984985, 0.7261115312576294, 9.507444381713867, 2.032444477081299, 0.6898130178451538, 1.0076895952224731, -1.302266240119934, 0.1151103675365448, -1.98193359375, 0.03857421875, 0.14794921875, 0, 
167, 3630625597, 0.07049507647752762, 0.6793078184127808, 0.07967600226402283, 0.7261055707931519, 9.498848915100098, 2.000234603881836, 0.6903745532035828, 1.06232488155365, -1.3912500143051147, 0.06088504195213318, -1.9794921875, 0.037841796875, 0.151123046875, 0, 
168, 3630633930, 0.07051088660955429, 0.679305911064148, 0.07968955487012863, 0.7261043190956116, 9.509392738342285, 2.0115582942962646, 0.7162578701972961, 1.0752086639404297, -1.345297932624817, 0.015701526775956154, -1.98193359375, 0.03857421875, 0.144287109375, 0, 
169, 3630642263, 0.07053244113922119, 0.6793122291564941, 0.07971110939979553, 0.7260939478874207, 9.522871971130371, 2.010047435760498, 0.652569055557251, 1.105407953262329, -1.4627649784088135, -0.07091301679611206, -1.985595703125, 0.04052734375, 0.146240234375, 0, 
170, 3630650596, 0.07054603844881058, 0.6793051958084106, 0.07972217351198196, 0.7260981202125549, 9.537114143371582, 2.020291805267334, 0.6498858332633972, 1.0591230392456055, -1.2396137714385986, 0.059937313199043274, -1.982666015625, 0.041015625, 0.15185546875, 0, 
171, 3630658929, 0.07056478410959244, 0.6793057322502136, 0.0797397717833519, 0.7260938882827759, 9.515823364257812, 2.0318868160247803, 0.6711131930351257, 1.0799729824066162, -1.3498317003250122, -0.0058016241528093815, -1.982421875, 0.04345703125, 0.150634765625, 0, 
172, 3630667262, 0.0705735832452774, 0.6792973279953003, 0.0797555148601532, 0.7260990738868713, 9.55740737915039, 2.0246050357818604, 0.6075910925865173, 1.147902011871338, -1.208185076713562, 0.06408681720495224, -1.985595703125, 0.04296875, 0.146240234375, 0, 
173, 3630675595, 0.07060147821903229, 0.67927485704422, 0.0797617956995964, 0.7261167168617249, 9.524832725524902, 2.0192904472351074, 0.672181248664856, 0.8346142172813416, -0.9350605010986328, 0.003483535721898079, -1.985107421875, 0.04345703125, 0.1474609375, 0, 
174, 3630683928, 0.07061603665351868, 0.6792478561401367, 0.07978160679340363, 0.7261382341384888, 9.516650199890137, 2.025012969970703, 0.7096121311187744, 1.09849214553833, -0.8732021450996399, -0.03479693830013275, -1.98583984375, 0.04052734375, 0.150634765625, 0, 
175, 3630692261, 0.0706336572766304, 0.6792232394218445, 0.07980912923812866, 0.72615647315979, 9.52807331085205, 2.015428304672241, 0.700027346611023, 1.1402945518493652, -0.8768137693405151, -0.09342793375253677, -1.985595703125, 0.042236328125, 0.1494140625, 0, 
176, 3630700594, 0.07064660638570786, 0.6791955232620239, 0.07983864098787308, 0.726177990436554, 9.518667221069336, 2.0151703357696533, 0.6745274066925049, 1.2111179828643799, -0.8530179858207703, -0.11222877353429794, -1.985107421875, 0.039794921875, 0.1474609375, 0, 
177, 3630708927, 0.07066841423511505, 0.6791654825210571, 0.07987377792596817, 0.7262002229690552, 9.512351036071777, 1.997853398323059, 0.7282238006591797, 1.1676504611968994, -0.7795563340187073, -0.20769299566745758, -1.984619140625, 0.037353515625, 0.146240234375, 0, 
178, 3630717260, 0.07067881524562836, 0.679134726524353, 0.07991478592157364, 0.726223349571228, 9.514261245727539, 2.0476014614105225, 0.6855213046073914, 1.3423651456832886, -0.7965899109840393, -0.1961154043674469, -1.989501953125, 0.04296875, 0.1513671875, 0, 
179, 3630725593, 0.0706872045993805, 0.679116427898407, 0.07995393872261047, 0.7262353301048279, 9.525197982788086, 2.0535812377929688, 0.6443209648132324, 1.355684518814087, -0.9756590127944946, -0.10897575318813324, -1.986328125, 0.04052734375, 0.14990234375, 0, 
180, 3630733926, 0.07069218158721924, 0.6791042685508728, 0.07997943460941315, 0.7262434959411621, 9.506903648376465, 2.028653860092163, 0.7157275080680847, 1.2753840684890747, -1.1294981241226196, 0.010578678920865059, -1.98388671875, 0.04052734375, 0.151123046875, 0, 
181, 3630742259, 0.07069095969200134, 0.6790992617607117, 0.08001751452684402, 0.7262440919876099, 9.464860916137695, 2.0079078674316406, 0.7621126770973206, 1.4601651430130005, -1.2063409090042114, 0.0009989552199840546, -1.983154296875, 0.039794921875, 0.1494140625, 0, 
182, 3630750592, 0.07068827003240585, 0.6791166663169861, 0.08006083965301514, 0.726223349571228, 9.396060943603516, 2.0114121437072754, 0.808292806148529, 1.5836257934570312, -1.6692414283752441, -0.07598463445901871, -1.984375, 0.03857421875, 0.146240234375, 0, 
183, 3630758925, 0.0706973746418953, 0.679163932800293, 0.08010166883468628, 0.7261736392974854, 9.447656631469727, 1.9870436191558838, 0.8058275580406189, 1.4973571300506592, -2.204681158065796, -0.11865795403718948, -1.983154296875, 0.03857421875, 0.1494140625, 0, 
184, 3630767258, 0.07071371376514435, 0.6792154908180237, 0.08016709238290787, 0.7261166572570801, 9.529999732971191, 2.0218255519866943, 0.7077108025550842, 1.7008109092712402, -2.3496580123901367, -0.4699828028678894, -1.98193359375, 0.04345703125, 0.149169921875, 0, 
185, 3630775591, 0.07073237001895905, 0.679261326789856, 0.08020348101854324, 0.726067841053009, 9.55037784576416, 2.0918712615966797, 0.6045483946800232, 1.3613965511322021, -2.1987388134002686, -0.17311380803585052, -1.983154296875, 0.037841796875, 0.144287109375, 0, 
186, 3630783924, 0.07074369490146637, 0.6793004274368286, 0.08022962510585785, 0.7260274291038513, 9.498509407043457, 2.0153963565826416, 0.6513732671737671, 1.324768304824829, -2.1009693145751953, -0.05206093564629555, -1.98583984375, 0.0361328125, 0.148681640625, 0, 
187, 3630792257, 0.07076859474182129, 0.6793418526649475, 0.08026758581399918, 0.7259820103645325, 9.40621280670166, 1.9682410955429077, 0.7176648378372192, 1.3109878301620483, -2.1274542808532715, -0.2518519461154938, -1.985107421875, 0.034912109375, 0.150634765625, 0, 
188, 3630800590, 0.07079745829105377, 0.679414689540863, 0.0803288146853447, 0.7259043455123901, 9.409664154052734, 1.9908084869384766, 0.8885616064071655, 1.5841379165649414, -2.772984266281128, -0.5525374412536621, -1.982666015625, 0.039794921875, 0.152587890625, 0, 
189, 3630808923, 0.07082924246788025, 0.6795212030410767, 0.08036935329437256, 0.7257971167564392, 9.455160140991211, 2.060403823852539, 0.7389382123947144, 1.4038904905319214, -3.3598060607910156, -0.3322294354438782, -1.98828125, 0.0380859375, 0.154541015625, 0, 
190, 3630817256, 0.07087928056716919, 0.6796405911445618, 0.08039577305316925, 0.725677490234375, 9.548136711120605, 2.0370934009552, 0.7087237238883972, 1.129946231842041, -3.6870791912078857, -0.4289231598377228, -1.984375, 0.03857421875, 0.1474609375, 0, 
191, 3630825589, 0.07091610878705978, 0.6797667741775513, 0.08042194694280624, 0.7255527377128601, 9.568613052368164, 2.0698583126068115, 0.6336081624031067, 1.2517421245574951, -3.7376418113708496, -0.24488487839698792, -1.985107421875, 0.039306640625, 0.1494140625, 0, 
192, 3630833922, 0.07094299793243408, 0.6798892021179199, 0.08043993264436722, 0.7254332304000854, 9.59058952331543, 2.041140079498291, 0.5914081931114197, 1.265010118484497, -3.7012441158294678, -0.11379123479127884, -1.982666015625, 0.03857421875, 0.152587890625, 0, 
193, 3630842255, 0.07096534967422485, 0.6799951791763306, 0.08047886937856674, 0.7253274321556091, 9.579340934753418, 2.0252275466918945, 0.597812294960022, 1.4739967584609985, -3.3324759006500244, -0.22334331274032593, -1.983154296875, 0.04052734375, 0.155029296875, 0, 
194, 3630850588, 0.07098570466041565, 0.6800926327705383, 0.08050666749477386, 0.7252310514450073, 9.578105926513672, 2.0813958644866943, 0.5836949944496155, 1.3747159242630005, -3.216341018676758, -0.14621885120868683, -1.980712890625, 0.040283203125, 0.14990234375, 0, 
195, 3630858921, 0.07100182771682739, 0.6801754236221313, 0.08054070174694061, 0.7251480221748352, 9.594496726989746, 2.045222282409668, 0.5628120303153992, 1.4354217052459717, -2.886096954345703, -0.11812003701925278, -1.984619140625, 0.03662109375, 0.15380859375, 0, 
196, 3630867254, 0.0710122212767601, 0.6802146434783936, 0.08058633655309677, 0.7251052260398865, 9.529412269592285, 2.022397756576538, 0.5722019672393799, 1.527581810951233, -2.106322765350342, -0.22529003024101257, -1.982666015625, 0.03662109375, 0.15576171875, 0, 
197, 3630875587, 0.07103435695171356, 0.6802502274513245, 0.08064334094524384, 0.7250632643699646, 9.395950317382812, 1.9794986248016357, 0.7762154340744019, 1.516721248626709, -2.015366554260254, -0.40709981322288513, -1.983154296875, 0.039794921875, 0.15380859375, 0, 
198, 3630883920, 0.07106436789035797, 0.6803092360496521, 0.08070483058691025, 0.7249980568885803, 9.432991027832031, 2.027376174926758, 0.739446222782135, 1.548175573348999, -2.5179436206817627, -0.5695453882217407, -1.98583984375, 0.039794921875, 0.153076171875, 0, 
199, 3630892253, 0.07110035419464111, 0.6803919076919556, 0.08076571673154831, 0.7249101996421814, 9.486804962158203, 2.0285325050354004, 0.674282431602478, 1.5229713916778564, -2.9272844791412354, -0.5728496313095093, -1.982666015625, 0.0361328125, 0.153076171875, 0, 
200, 3630900586, 0.07112599164247513, 0.6805046796798706, 0.08083325624465942, 0.7247942686080933, 9.48488712310791, 2.055666923522949, 0.7614330053329468, 1.759416103363037, -3.5201258659362793, -0.5719018578529358, -1.982666015625, 0.03857421875, 0.15380859375, 0, 
201, 3630908919, 0.07114013284444809, 0.6806418299674988, 0.08088070899248123, 0.7246588468551636, 9.523212432861328, 2.0852513313293457, 0.6935083270072937, 1.6992485523223877, -3.9005486965179443, -0.21532608568668365, -1.9814453125, 0.03857421875, 0.158203125, 0, 
202, 3630917252, 0.07116227596998215, 0.6807835102081299, 0.08091052621603012, 0.7245201468467712, 9.589738845825195, 2.097825765609741, 0.5998501181602478, 1.4692069292068481, -4.054285526275635, -0.17449697852134705, -1.980712890625, 0.037353515625, 0.15625, 0, 
203, 3630925585, 0.07119052112102509, 0.6809232234954834, 0.08093411475419998, 0.7243834733963013, 9.57833480834961, 2.072929859161377, 0.6024795770645142, 1.3336308002471924, -3.978544235229492, -0.1303892731666565, -1.9833984375, 0.0380859375, 0.155029296875, 0, 
204, 3630933918, 0.07120584696531296, 0.6810632348060608, 0.08094849437475204, 0.7242487072944641, 9.591397285461426, 2.0937466621398926, 0.6013572812080383, 1.3730766773223877, -4.009204387664795, 0.039804521948099136, -1.98193359375, 0.03857421875, 0.15576171875, 0, 
205, 3630942251, 0.07122057676315308, 0.6811910271644592, 0.08097201585769653, 0.7241244316101074, 9.601781845092773, 2.0653696060180664, 0.539720892906189, 1.4339358806610107, -3.7278826236724854, 0.0034579215571284294, -1.98193359375, 0.041015625, 0.16064453125, 0, 
206, 3630950584, 0.07122410833835602, 0.6812806129455566, 0.08100872486829758, 0.7240357995033264, 9.585780143737793, 2.0627591609954834, 0.5346424579620361, 1.6061151027679443, -3.0390396118164062, -0.06233224645256996, -1.98193359375, 0.0380859375, 0.15625, 0, 
207, 3630958917, 0.07121995091438293, 0.6813424229621887, 0.08105146139860153, 0.7239731550216675, 9.560115814208984, 2.0556585788726807, 0.5587452054023743, 1.6684600114822388, -2.4547529220581055, -0.00244615925475955, -1.9794921875, 0.041015625, 0.158203125, 0, 
208, 3630967250, 0.0712137371301651, 0.6813830733299255, 0.08110721409320831, 0.7239293456077576, 9.542037010192871, 2.0586843490600586, 0.5530223250389099, 1.789948582649231, -2.100226402282715, -0.15390312671661377, -1.98388671875, 0.041748046875, 0.15625, 0, 
209, 3630975583, 0.07120661437511444, 0.6814153790473938, 0.0811692327260971, 0.7238926291465759, 9.523799896240234, 2.034801483154297, 0.5905598998069763, 1.8305468559265137, -1.894979476928711, -0.1609470397233963, -1.980224609375, 0.0380859375, 0.157470703125, 0, 
210, 3630983916, 0.07119636237621307, 0.6814289689064026, 0.08123983442783356, 0.7238728404045105, 9.495683670043945, 2.024976968765259, 0.6565513610839844, 1.9204530715942383, -1.5867635011672974, -0.25915202498435974, -1.9833984375, 0.037353515625, 0.156982421875, 0, 
211, 3630992249, 0.0711931437253952, 0.6814396977424622, 0.08131442219018936, 0.7238547205924988, 9.546253204345703, 2.0889785289764404, 0.6310613751411438, 1.8773953914642334, -1.500827670097351, -0.32413533329963684, -1.98388671875, 0.034912109375, 0.158203125, 0, 
212, 3631000582, 0.07118278741836548, 0.6814428567886353, 0.08137068152427673, 0.7238465547561646, 9.563983917236328, 2.053956985473633, 0.5994405746459961, 1.7558557987213135, -1.3877664804458618, -0.12342218309640884, -1.9814453125, 0.031005859375, 0.158203125, 0, 
213, 3631008915, 0.0711786299943924, 0.6814352869987488, 0.08143500238656998, 0.7238467931747437, 9.548750877380371, 2.0638699531555176, 0.5805018544197083, 1.7455075979232788, -1.152909517288208, -0.22047452628612518, -1.97900390625, 0.0361328125, 0.158203125, 0, 
214, 3631017248, 0.0711761936545372, 0.6814001798629761, 0.08151465654373169, 0.723871111869812, 9.500279426574707, 2.036634922027588, 0.5957475900650024, 1.8394862413406372, -0.6895991563796997, -0.4335337281227112, -1.985107421875, 0.0380859375, 0.15771484375, 0, 
215, 3631025581, 0.07117720693349838, 0.6813755035400391, 0.08159062266349792, 0.7238856554031372, 9.400710105895996, 2.013059377670288, 0.6740503311157227, 1.7797666788101196, -0.8433998823165894, -0.3866981267929077, -1.980712890625, 0.039306640625, 0.158203125, 0, 
216, 3631033914, 0.0711803212761879, 0.6813718676567078, 0.08168189227581024, 0.7238785028457642, 9.387773513793945, 1.9954441785812378, 0.7910410761833191, 1.9703495502471924, -1.291149616241455, -0.5930336117744446, -1.986328125, 0.037353515625, 0.15576171875, 0, 
217, 3631042247, 0.07121111452579498, 0.6814173460006714, 0.08177196234464645, 0.7238224744796753, 9.364141464233398, 2.0084187984466553, 0.8122609853744507, 1.7895128726959229, -2.2230207920074463, -0.8041204810142517, -1.980712890625, 0.03857421875, 0.15625, 0, 
218, 3631050580, 0.07127342373132706, 0.6815138459205627, 0.08182535320520401, 0.7237193584442139, 9.416436195373535, 1.9996647834777832, 0.7554382085800171, 1.2434686422348022, -3.2920565605163574, -0.8091152310371399, -1.980712890625, 0.03662109375, 0.158203125, 0, 
219, 3631058913, 0.0713472068309784, 0.6816412210464478, 0.08188345283269882, 0.7235856056213379, 9.48919677734375, 2.06247615814209, 0.6684320569038391, 1.2358613014221191, -3.84488844871521, -0.9173353910446167, -1.982666015625, 0.0341796875, 0.155029296875, 0, 
220, 3631067246, 0.07140395790338516, 0.6817930340766907, 0.08194898813962936, 0.7234295606613159, 9.52717113494873, 2.061617851257324, 0.6470823287963867, 1.532013177871704, -4.321262836456299, -0.857654333114624, -1.984619140625, 0.037353515625, 0.156982421875, 0, 
221, 3631075579, 0.07143253087997437, 0.6819528937339783, 0.08200080692768097, 0.7232702374458313, 9.617998123168945, 2.1795692443847656, 0.5685009956359863, 1.6583168506622314, -4.363654136657715, -0.39646998047828674, -1.97900390625, 0.037353515625, 0.15869140625, 0, 
222, 3631083912, 0.0714438185095787, 0.6821284294128418, 0.08199261873960495, 0.7231045365333557, 9.674629211425781, 2.2622270584106445, 0.427698016166687, 1.2576333284378052, -4.668283939361572, 0.3030420243740082, -1.9853515625, 0.034423828125, 0.163330078125, 0, 
223, 3631092245, 0.07144880294799805, 0.6822974681854248, 0.08195190131664276, 0.722949206829071, 9.653365135192871, 2.1181647777557373, 0.4814995527267456, 0.9634026885032654, -4.482248306274414, 0.7191452980041504, -1.97900390625, 0.035400390625, 0.162109375, 0, 
224, 3631100578, 0.07142633944749832, 0.6824362277984619, 0.08192505687475204, 0.7228233814239502, 9.623946189880371, 2.041766405105591, 0.5042673349380493, 1.3100144863128662, -3.9100003242492676, 0.8139691948890686, -1.98095703125, 0.0361328125, 0.161376953125, 0, 
225, 3631108911, 0.07137700915336609, 0.6825484037399292, 0.08192715048789978, 0.7227222323417664, 9.558395385742188, 2.076107978820801, 0.48814302682876587, 1.7817003726959229, -3.30657958984375, 0.8457819223403931, -1.9765625, 0.0361328125, 0.163330078125, 0, 
226, 3631117244, 0.07132232934236526, 0.6826321482658386, 0.08192906528711319, 0.7226482629776001, 9.534631729125977, 2.0589492321014404, 0.5387396812438965, 1.784543752670288, -2.8091514110565186, 0.8519037961959839, -1.9853515625, 0.034423828125, 0.1640625, 0, 
227, 3631125577, 0.07126211374998093, 0.6826972365379333, 0.08194141089916229, 0.7225912809371948, 9.501520156860352, 2.0307490825653076, 0.5524240136146545, 1.889792561531067, -2.4017059803009033, 0.849573016166687, -1.978271484375, 0.034912109375, 0.162109375, 0, 
228, 3631133910, 0.07119893282651901, 0.682755708694458, 0.08197716623544693, 0.7225381135940552, 9.50533390045166, 2.0491812229156494, 0.6196886897087097, 2.15433669090271, -2.3203041553497314, 0.610950767993927, -1.975830078125, 0.03662109375, 0.161376953125, 0, 
229, 3631142243, 0.07113735377788544, 0.6828225255012512, 0.0820203647017479, 0.7224761247634888, 9.526209831237793, 2.0859920978546143, 0.5697635412216187, 2.216886520385742, -2.432981014251709, 0.5710180997848511, -1.98095703125, 0.037353515625, 0.16650390625, 0, 
230, 3631150576, 0.07106640934944153, 0.6828906536102295, 0.08205636590719223, 0.7224146723747253, 9.514840126037598, 2.0767669677734375, 0.5735324025154114, 2.244011640548706, -2.486309766769409, 0.6878702044487, -1.97900390625, 0.039306640625, 0.163330078125, 0, 
231, 3631158909, 0.0710069015622139, 0.6829620003700256, 0.0820937529206276, 0.7223488688468933, 9.539283752441406, 2.076627016067505, 0.6085130572319031, 2.148189067840576, -2.5232200622558594, 0.6052900552749634, -1.980224609375, 0.0380859375, 0.159423828125, 0, 
232, 3631167242, 0.0709385797381401, 0.6830397844314575, 0.08212515711784363, 0.7222785353660583, 9.514729499816895, 2.0953481197357178, 0.5953433513641357, 2.1937568187713623, -2.671398162841797, 0.7067480683326721, -1.978271484375, 0.039794921875, 0.165771484375, 0, 
233, 3631175575, 0.07086038589477539, 0.6831254959106445, 0.08217014372348785, 0.7221999168395996, 9.512170791625977, 2.0477919578552246, 0.6012107729911804, 2.4280242919921875, -2.756129741668701, 0.7239862680435181, -1.984130859375, 0.034423828125, 0.165771484375, 0, 
234, 3631183908, 0.07078906148672104, 0.6832197904586792, 0.08224069327116013, 0.7221096754074097, 9.461124420166016, 1.973919153213501, 0.6032124757766724, 2.650432586669922, -2.980766534805298, 0.36892175674438477, -1.980224609375, 0.036865234375, 0.1650390625, 0, 
235, 3631192241, 0.07074696570634842, 0.6833450198173523, 0.08233991265296936, 0.7219841480255127, 9.438066482543945, 1.985183835029602, 0.7153052091598511, 2.718567132949829, -3.577425241470337, -0.1458858847618103, -1.9765625, 0.0380859375, 0.16455078125, 0, 
236, 3631200574, 0.07072476297616959, 0.6834898591041565, 0.08243371546268463, 0.7218383550643921, 9.45697021484375, 2.009127616882324, 0.649395763874054, 2.530148506164551, -4.039351940155029, -0.33358699083328247, -1.97900390625, 0.03369140625, 0.165283203125, 0, 
237, 3631208907, 0.07070967555046082, 0.6836369633674622, 0.08252077549695969, 0.7216905355453491, 9.511781692504883, 2.0750620365142822, 0.5636010766029358, 2.3903462886810303, -4.046908378601074, -0.29652318358421326, -1.9794921875, 0.039794921875, 0.166259765625, 0, 
238, 3631217240, 0.07069780677556992, 0.6837753057479858, 0.08259598165750504, 0.7215519547462463, 9.529131889343262, 2.079667568206787, 0.5669850707054138, 2.235764265060425, -3.936178207397461, -0.26138049364089966, -1.9794921875, 0.037353515625, 0.165771484375, 0, 
239, 3631225573, 0.0706997811794281, 0.6839122176170349, 0.08261790871620178, 0.7214195132255554, 9.562349319458008, 2.093369483947754, 0.4952985346317291, 1.5566282272338867, -3.885051727294922, 0.1496383547782898, -1.980224609375, 0.0380859375, 0.16650390625, 0, 
240, 3631233906, 0.0706988275051117, 0.684018075466156, 0.082676462829113, 0.7213127017021179, 9.502293586730957, 2.0497660636901855, 0.5169627666473389, 1.9003456830978394, -3.342106819152832, -0.2191425859928131, -1.980224609375, 0.0380859375, 0.168212890625, 0, 
241, 3631242239, 0.07070603966712952, 0.6841182112693787, 0.0827723816037178, 0.7212060689926147, 9.501773834228516, 2.005488395690918, 0.5829666256904602, 2.1760315895080566, -3.2109103202819824, -0.6156507730484009, -1.9765625, 0.036865234375, 0.172119140625, 0, 
242, 3631250572, 0.07074990123510361, 0.6842084527015686, 0.08285592496395111, 0.7211065292358398, 9.504583358764648, 1.983738660812378, 0.5640615224838257, 1.7039868831634521, -3.149897575378418, -0.9094974398612976, -1.98095703125, 0.0361328125, 0.169677734375, 0, 
243, 3631258905, 0.07082007825374603, 0.6843023300170898, 0.08294953405857086, 0.7209997773170471, 9.440495491027832, 1.9448975324630737, 0.5634078979492188, 1.5547581911087036, -3.222027063369751, -1.2245523929595947, -1.979736328125, 0.0341796875, 0.16650390625, 0, 
244, 3631267238, 0.07090773433446884, 0.6843672394752502, 0.08311827480792999, 0.7209100723266602, 9.508357048034668, 1.9707834720611572, 0.5389775633811951, 2.099137544631958, -2.7719337940216064, -2.1637749671936035, -1.9814453125, 0.0380859375, 0.170166015625, 0, 
245, 3631275571, 0.07100536674261093, 0.6844059228897095, 0.08330540359020233, 0.7208421230316162, 9.551868438720703, 2.0589327812194824, 0.5146066546440125, 2.1252129077911377, -2.2506330013275146, -2.402320623397827, -1.97216796875, 0.032470703125, 0.16943359375, 0, 
246, 3631283904, 0.07110026478767395, 0.6844158172607422, 0.08350757509469986, 0.7208000421524048, 9.577122688293457, 2.086960792541504, 0.46949711441993713, 2.259021759033203, -1.752103328704834, -2.5681984424591064, -1.975341796875, 0.03564453125, 0.170166015625, 0, 
247, 3631292237, 0.07117879390716553, 0.6844128370285034, 0.08370299637317657, 0.720772385597229, 9.566150665283203, 2.1977217197418213, 0.4696628451347351, 2.300952434539795, -1.429415225982666, -2.2986857891082764, -1.97900390625, 0.036865234375, 0.1708984375, 0, 
248, 3631300570, 0.0712219774723053, 0.6844223737716675, 0.08384889364242554, 0.7207419872283936, 9.537592887878418, 2.281308174133301, 0.5063170194625854, 2.1673483848571777, -1.6357122659683228, -1.5141469240188599, -1.975341796875, 0.034912109375, 0.17138671875, 0, 
249, 3631308903, 0.07126179337501526, 0.6845111846923828, 0.0839068591594696, 0.7206470370292664, 9.4583101272583, 2.1825594902038574, 0.6795666813850403, 1.4703339338302612, -3.060734272003174, -0.5817888379096985, -1.979736328125, 0.03369140625, 0.174072265625, 0, 
250, 3631317236, 0.07127782702445984, 0.6847093105316162, 0.08395218104124069, 0.720451831817627, 9.392135620117188, 2.0560531616210938, 0.7663313746452332, 1.8009113073349, -5.123013973236084, -0.2438347190618515, -1.978515625, 0.032470703125, 0.1708984375, 0, 
251, 3631325569, 0.07126802951097488, 0.6850114464759827, 0.08402403444051743, 0.7201571464538574, 9.423958778381348, 2.004446506500244, 0.7681211829185486, 2.514805555343628, -6.986807823181152, -0.16929729282855988, -1.97705078125, 0.0361328125, 0.172119140625, 0, 
252, 3631333902, 0.07126352190971375, 0.6854060888290405, 0.08414901047945023, 0.7197674512863159, 9.403775215148926, 1.951963186264038, 0.7389132976531982, 3.2039058208465576, -8.797274589538574, -0.7531995177268982, -1.973388671875, 0.0341796875, 0.174072265625, 0, 
253, 3631342235, 0.07127279043197632, 0.6858490109443665, 0.08428982645273209, 0.7193281054496765, 9.4810791015625, 2.051037073135376, 0.61540287733078, 3.32265305519104, -9.695104598999023, -0.9878514409065247, -1.979736328125, 0.03125, 0.17333984375, 0, 
254, 3631350568, 0.07125875353813171, 0.6862795352935791, 0.08447265625, 0.71889728307724, 9.58233642578125, 2.141749620437622, 0.41359031200408936, 3.949100971221924, -9.478049278259277, -1.204138159751892, -1.977783203125, 0.031982421875, 0.1796875, 0, 
255, 3631358901, 0.07122058421373367, 0.6866887211799622, 0.08464061468839645, 0.718490481376648, 9.675580978393555, 2.1940040588378906, 0.2893946170806885, 3.968080520629883, -8.97485637664795, -0.7818361520767212, -1.971435546875, 0.0361328125, 0.177734375, 0, 
256, 3631367234, 0.07116640359163284, 0.6870625615119934, 0.08476550877094269, 0.7181236147880554, 9.650398254394531, 2.18687105178833, 0.29321783781051636, 3.622570276260376, -8.321157455444336, -0.2620208263397217, -1.974609375, 0.03369140625, 0.17724609375, 0, 
257, 3631375567, 0.07110210508108139, 0.6874115467071533, 0.08493687212467194, 0.7177757620811462, 9.590530395507812, 2.1035797595977783, 0.3687179684638977, 4.1205878257751465, -7.790122032165527, -0.5692636370658875, -1.973388671875, 0.033203125, 0.18212890625, 0, 
258, 3631383900, 0.07103129476308823, 0.687752366065979, 0.08517575263977051, 0.7174279093742371, 9.536457061767578, 2.0132458209991455, 0.42683398723602295, 4.85161828994751, -7.681979656219482, -1.19491708278656, -1.970947265625, 0.031982421875, 0.1865234375, 0, 
259, 3631392233, 0.07096794247627258, 0.6880933046340942, 0.08546242862939835, 0.7170730829238892, 9.542762756347656, 2.0214345455169678, 0.44681504368782043, 5.249561786651611, -7.664817810058594, -1.6853529214859009, -1.9736328125, 0.032470703125, 0.18603515625, 0, 
260, 3631400566, 0.0709228366613388, 0.688417375087738, 0.08577603101730347, 0.7167288661003113, 9.591012001037598, 2.0218076705932617, 0.33788177371025085, 5.321716785430908, -7.440718650817871, -2.1710503101348877, -1.976806640625, 0.031982421875, 0.18798828125, 0, 
261, 3631408899, 0.07090342044830322, 0.6886990070343018, 0.08612760156393051, 0.7164179086685181, 9.629141807556152, 2.1016106605529785, 0.28694236278533936, 5.3642096519470215, -6.654923439025879, -2.7595369815826416, -1.975341796875, 0.032470703125, 0.18408203125, 0, 
262, 3631417232, 0.07089890539646149, 0.6889113783836365, 0.08645736426115036, 0.7161744236946106, 9.681127548217773, 2.2403130531311035, 0.2263457477092743, 4.871853828430176, -5.418986797332764, -2.759153127670288, -1.9716796875, 0.032470703125, 0.1865234375, 0, 
263, 3631425565, 0.07090935111045837, 0.6890584826469421, 0.08671789616346359, 0.7160003781318665, 9.731782913208008, 2.265906572341919, 0.14281146228313446, 3.8910841941833496, -4.1533355712890625, -2.216745615005493, -1.972900390625, 0.03564453125, 0.1923828125, 0, 
264, 3631433898, 0.07091865688562393, 0.6891610026359558, 0.08692968636751175, 0.7158750891685486, 9.616691589355469, 2.25480580329895, 0.20016023516654968, 3.3305933475494385, -3.350508451461792, -1.7933166027069092, -1.976806640625, 0.029541015625, 0.189208984375, 0, 
265, 3631442231, 0.0709320604801178, 0.6892693638801575, 0.08710082620382309, 0.7157487273216248, 9.588576316833496, 2.2222466468811035, 0.36529746651649475, 2.8886454105377197, -3.411957263946533, -1.3980635404586792, -1.9736328125, 0.034423828125, 0.1884765625, 0, 
266, 3631450564, 0.07092280685901642, 0.6894000172615051, 0.08724929392337799, 0.7156057357788086, 9.546191215515137, 2.240492820739746, 0.3808310925960541, 2.9373891353607178, -3.8315436840057373, -0.9937170743942261, -1.972900390625, 0.03759765625, 0.19091796875, 0, 
267, 3631458897, 0.07088800519704819, 0.6896155476570129, 0.08734849840402603, 0.7153893709182739, 9.533857345581055, 2.258547782897949, 0.45369720458984375, 2.8498404026031494, -5.331564903259277, -0.20087966322898865, -1.966064453125, 0.032470703125, 0.19287109375, 0, 
268, 3631467230, 0.07080566138029099, 0.6899136304855347, 0.08744054287672043, 0.7150987982749939, 9.618570327758789, 2.1922430992126465, 0.3383388817310333, 3.4137890338897705, -6.846468448638916, 0.31779587268829346, -1.9716796875, 0.031982421875, 0.193603515625, 0, 
269, 3631475563, 0.07066801935434341, 0.6902809143066406, 0.08754345029592514, 0.7147453427314758, 9.66365909576416, 2.2935080528259277, 0.25589585304260254, 4.174736499786377, -7.997699737548828, 0.8250345587730408, -1.97412109375, 0.03076171875, 0.1923828125, 0, 
270, 3631483896, 0.07045940309762955, 0.6906716823577881, 0.08755319565534592, 0.7143871188163757, 9.774293899536133, 2.503037214279175, 0.08039785921573639, 3.9707963466644287, -8.327945709228516, 2.386632204055786, -1.968505859375, 0.031982421875, 0.195556640625, 0, 
271, 3631492229, 0.07020002603530884, 0.691046953201294, 0.08738743513822556, 0.7140699625015259, 9.80209732055664, 2.5951361656188965, -0.07476432621479034, 2.6544289588928223, -7.845627307891846, 4.616095542907715, -1.97119140625, 0.029541015625, 0.1923828125, 0, 
272, 3631500562, 0.06981164216995239, 0.6914838552474976, 0.08701449632644653, 0.71373051404953, 9.854684829711914, 2.776867389678955, -0.05723864585161209, 1.9432756900787354, -8.753372192382812, 7.86182975769043, -1.968017578125, 0.03564453125, 0.19921875, 0, 
273, 3631508895, 0.06928936392068863, 0.6920128464698792, 0.08633066713809967, 0.713351845741272, 9.884852409362793, 2.9928650856018066, -0.06042155250906944, 0.2897226810455322, -10.123324394226074, 12.247499465942383, -1.96533203125, 0.036376953125, 0.197998046875, 0, 
274, 3631517228, 0.06863266974687576, 0.6926273703575134, 0.08542393893003464, 0.7129278182983398, 10.007637023925781, 2.5240068435668945, -0.11438696831464767, -0.4722626507282257, -11.492074966430664, 15.704401016235352, -1.96484375, 0.038818359375, 0.19970703125, 0, 
275, 3631525561, 0.0676935464143753, 0.6933247447013855, 0.08468519151210785, 0.7124277949333191, 10.324396133422852, 2.5297176837921143, -0.1732957810163498, 4.021538734436035, -12.493002891540527, 16.939212799072266, -1.9677734375, 0.04248046875, 0.19921875, 0, 
276, 3631533894, 0.06618303060531616, 0.6941505670547485, 0.08427786082029343, 0.7118135094642639, 10.221980094909668, 2.8003499507904053, 0.0832270085811615, 12.979355812072754, -13.91026782989502, 19.383302688598633, -1.9677734375, 0.045166015625, 0.204833984375, 0, 
277, 3631542227, 0.06354469805955887, 0.6951385140419006, 0.08457019180059433, 0.7110548615455627, 10.283689498901367, 2.868481159210205, 0.0062924958765506744, 30.8986759185791, -14.888948440551758, 23.83917808532715, -1.966552734375, 0.051513671875, 0.209228515625, 0, 
278, 3631550560, 0.060652464628219604, 0.6962271928787231, 0.08469033241271973, 0.7102271318435669, 10.347373962402344, 2.4033756256103516, 0.17000076174736023, 31.817279815673828, -16.430768966674805, 27.98622703552246, -1.967529296875, 0.058349609375, 0.21044921875, 0, 
279, 3631558893, 0.058035627007484436, 0.6975038647651672, 0.08420735597610474, 0.7092499732971191, 10.951553344726562, 2.536092758178711, -0.05502116680145264, 23.61359977722168, -20.47783851623535, 31.202239990234375, -1.965576171875, 0.070068359375, 0.212646484375, 0, 
280, 3631567226, 0.05521368607878685, 0.6985571980476379, 0.08345738053321838, 0.7085270285606384, 11.230080604553223, 2.3125548362731934, -0.21826298534870148, 22.51108741760254, -15.881917953491211, 35.674800872802734, -1.9716796875, 0.073974609375, 0.2177734375, 0, 
281, 3631575559, 0.05229489132761955, 0.6994912624359131, 0.08222010731697083, 0.7079713940620422, 11.987861633300781, 2.7976503372192383, -0.4305048882961273, 18.40419578552246, -13.326305389404297, 41.323265075683594, -1.968505859375, 0.082275390625, 0.220947265625, 0, 
282, 3631583892, 0.049195870757102966, 0.7002924680709839, 0.08049467951059341, 0.7075996994972229, 12.3427734375, 3.1780359745025635, -0.1904124766588211, 15.089431762695312, -10.454742431640625, 47.7213249206543, -1.968994140625, 0.09228515625, 0.22705078125, 0, 
283, 3631592225, 0.045413266867399216, 0.7012773752212524, 0.07817336916923523, 0.7071373462677002, 12.893502235412598, 3.657576322555542, 0.03605130687355995, 16.090843200683594, -12.71988296508789, 60.286800384521484, -1.967529296875, 0.102294921875, 0.22509765625, 0, 
284, 3631600558, 0.04053695127367973, 0.7026585936546326, 0.07526405155658722, 0.7063775658607483, 13.134269714355469, 3.7413415908813477, -0.7876481413841248, 21.49654197692871, -18.67095375061035, 76.8021011352539, -1.970947265625, 0.120849609375, 0.22607421875, 0, 
285, 3631608891, 0.034872133284807205, 0.7042592763900757, 0.071950763463974, 0.7054305076599121, 13.064477920532227, 4.0776143074035645, -0.14265936613082886, 25.49934959411621, -21.98398780822754, 88.52003479003906, -1.97216796875, 0.1328125, 0.231201171875, 0, 
286, 3631617224, 0.028262663632631302, 0.7059808373451233, 0.06816352158784866, 0.7043809294700623, 11.65502643585205, 2.515308380126953, -0.7860302925109863, 30.212665557861328, -23.481773376464844, 102.31818389892578, -1.976806640625, 0.15234375, 0.2353515625, 0, 
287, 3631625557, 0.02083362638950348, 0.7087200284004211, 0.06424620747566223, 0.7022541165351868, 13.527299880981445, 2.8367133140563965, -1.2398693561553955, 38.31139373779297, -43.037933349609375, 112.0807113647461, -1.972412109375, 0.182373046875, 0.241943359375, 0, 
288, 3631633890, 0.012933962047100067, 0.7104434370994568, 0.059932172298431396, 0.7010829448699951, 13.155405044555664, 3.3141582012176514, 0.03552917391061783, 37.9323844909668, -23.651256561279297, 119.84695434570312, -1.9697265625, 0.20556640625, 0.249267578125, 0, 
289, 3631642223, 0.004879683256149292, 0.7118097543716431, 0.055286556482315063, 0.7001804113388062, 13.237736701965332, 3.3440093994140625, -1.9375280141830444, 35.96080017089844, -17.478174209594727, 124.35346984863281, -1.96923828125, 0.231689453125, 0.25341796875, 0, 
290, 3631650556, -0.00296715646982193, 0.7124958634376526, 0.050103336572647095, 0.6998835206031799, 12.83769416809082, 3.4858083724975586, -0.03352093696594238, 28.250181198120117, -5.230544090270996, 127.12509155273438, -1.970703125, 0.260009765625, 0.257568359375, 0, 
291, 3631658889, -0.011022984981536865, 0.7125127911567688, 0.04472678154706955, 0.7001500129699707, 10.507275581359863, 2.5190305709838867, -3.0931270122528076, 28.073671340942383, 6.918206691741943, 130.5624542236328, -1.97216796875, 0.280517578125, 0.2529296875, 0, 
292, 3631667222, -0.019505463540554047, 0.7137365937232971, 0.03956230729818344, 0.699028491973877, 10.41849136352539, 2.583535671234131, -2.711784601211548, 34.96684646606445, -18.104053497314453, 133.536376953125, -1.967041015625, 0.31298828125, 0.255615234375, 0, 
293, 3631675555, -0.027910716831684113, 0.7151443958282471, 0.03448335826396942, 0.6975721120834351, 12.89595890045166, 1.4643346071243286, -2.627997398376465, 35.16387939453125, -23.191879272460938, 132.15420532226562, -1.968017578125, 0.338623046875, 0.257080078125, 0, 
294, 3631683888, -0.03568495810031891, 0.7156704068183899, 0.03007793426513672, 0.6968815922737122, 12.109960556030273, 2.4455485343933105, -4.183120250701904, 35.39094924926758, -7.784976482391357, 118.76237487792969, -1.963134765625, 0.36669921875, 0.25732421875, 0, 
295, 3631692221, -0.0425485223531723, 0.7149184942245483, 0.02718546986579895, 0.6973869204521179, 11.85326862335205, 4.314976692199707, -4.279257774353027, 41.0634651184082, 15.137900352478027, 94.03251647949219, -1.9638671875, 0.390380859375, 0.255859375, 0, 
296, 3631700554, -0.04908329248428345, 0.7128869891166687, 0.025004081428050995, 0.6991166472434998, 11.226645469665527, 4.130214214324951, -3.0228962898254395, 44.94086837768555, 38.89326477050781, 82.69673156738281, -1.96484375, 0.40966796875, 0.248779296875, 0, 
297, 3631708887, -0.05440915375947952, 0.7095260620117188, 0.023888468742370605, 0.7021738886833191, 7.0058183670043945, 6.626785755157471, -2.6632325649261475, 43.776756286621094, 63.569862365722656, 59.26830291748047, -1.9619140625, 0.42529296875, 0.237060546875, 0, 
298, 3631717220, -0.05938160419464111, 0.7061816453933716, 0.024150028824806213, 0.7051271796226501, 4.8806071281433105, 7.3263163566589355, -4.127559185028076, 53.64793395996094, 61.242919921875, 42.51923370361328, -1.96923828125, 0.435791015625, 0.223876953125, 0, 
299, 3631725553, -0.06343387067317963, 0.704224705696106, 0.02501843124628067, 0.7066993713378906, 7.1672444343566895, 7.7957444190979, -3.2421817779541016, 49.92218780517578, 33.5809326171875, 29.27554702758789, -1.97021484375, 0.44580078125, 0.214111328125, 0, 
300, 3631733886, -0.06621658056974411, 0.7005669474601746, 0.026360787451267242, 0.710023045539856, 6.065065860748291, 8.489974975585938, -2.1294400691986084, 43.11562728881836, 66.22999572753906, 10.275078773498535, -1.976318359375, 0.453125, 0.2001953125, 0, 
301, 3631742219, -0.06777330487966537, 0.697462260723114, 0.027757927775382996, 0.7128737568855286, 3.5908420085906982, 8.226158142089844, -3.427778482437134, 31.50627326965332, 55.770389556884766, -1.633194923400879, -1.97314453125, 0.453125, 0.188720703125, 0, 
302, 3631750552, -0.0694211795926094, 0.6952261924743652, 0.02970995008945465, 0.714818000793457, 3.0661697387695312, 8.065892219543457, -3.3508455753326416, 37.355804443359375, 38.09626388549805, -4.818665027618408, -1.983154296875, 0.45263671875, 0.18505859375, 0, 
303, 3631758885, -0.07064982503652573, 0.6938073039054871, 0.03196483105421066, 0.7159780263900757, 2.9254212379455566, 8.226542472839355, -3.1755268573760986, 35.865970611572266, 22.08661651611328, -10.816960334777832, -1.98291015625, 0.4580078125, 0.17041015625, 0, 
304, 3631767218, -0.07095645368099213, 0.6930394172668457, 0.03446338325738907, 0.7165752649307251, 3.151378631591797, 8.485587120056152, -2.8295044898986816, 29.080862045288086, 9.69800853729248, -21.296419143676758, -1.9853515625, 0.4580078125, 0.169921875, 0, 
305, 3631775551, -0.07062968611717224, 0.6925290822982788, 0.03743894398212433, 0.7169516682624817, 2.990557909011841, 8.85075569152832, -2.9455373287200928, 27.600473403930664, 4.258411884307861, -31.83767318725586, -1.9892578125, 0.452392578125, 0.169921875, 0, 
306, 3631783884, -0.06978381425142288, 0.6925415992736816, 0.0409277081489563, 0.716831624507904, 3.1576035022735596, 8.408589363098145, -2.6474862098693848, 27.46299171447754, -6.348067283630371, -40.97410583496094, -1.985107421875, 0.443603515625, 0.166259765625, 0, 
307, 3631792217, -0.06836575269699097, 0.692992091178894, 0.04478836804628372, 0.7163019180297852, 3.458784818649292, 8.177031517028809, -2.591519355773926, 25.49098777770996, -15.289127349853516, -49.634098052978516, -1.98779296875, 0.434814453125, 0.1689453125, 0, 
308, 3631800550, -0.06639660149812698, 0.6939523220062256, 0.0490712895989418, 0.7152761816978455, 3.9708898067474365, 8.018050193786621, -2.2854456901550293, 24.227157592773438, -25.720535278320312, -58.16025161743164, -1.989013671875, 0.427978515625, 0.1728515625, 0, 
309, 3631808883, -0.06387735158205032, 0.6952661871910095, 0.05372001975774765, 0.7138944268226624, 4.751166820526123, 7.949357986450195, -1.8379771709442139, 22.491352081298828, -33.352630615234375, -66.64534759521484, -1.988037109375, 0.413818359375, 0.173583984375, 0, 
310, 3631817216, -0.06076613813638687, 0.6967493295669556, 0.05870112031698227, 0.7123259902000427, 5.508286476135254, 7.7814412117004395, -1.5234248638153076, 20.080167770385742, -37.4686164855957, -75.17444610595703, -1.987548828125, 0.40625, 0.18310546875, 0, 
311, 3631825549, -0.05710732191801071, 0.6983528137207031, 0.06394496560096741, 0.7106050252914429, 6.114509105682373, 7.4784464836120605, -1.3092254400253296, 17.4332218170166, -40.83243179321289, -83.0011978149414, -1.98486328125, 0.392578125, 0.19140625, 0, 
312, 3631833882, -0.05281936377286911, 0.7001214027404785, 0.06948161870241165, 0.7086739540100098, 6.594729900360107, 7.106380462646484, -1.045606017112732, 14.30372428894043, -45.17573547363281, -91.45733642578125, -1.9853515625, 0.3720703125, 0.20263671875, 0, 
313, 3631842215, -0.047849178314208984, 0.7020906209945679, 0.0754639282822609, 0.7064633965492249, 7.121207237243652, 6.821304798126221, -0.7814392447471619, 12.20376205444336, -50.86832809448242, -102.19514465332031, -1.981689453125, 0.3564453125, 0.207763671875, 0, 
314, 3631850548, -0.04216703772544861, 0.7041858434677124, 0.08196882158517838, 0.7040111422538757, 7.779755592346191, 6.692167282104492, -0.45339423418045044, 10.573474884033203, -55.43750762939453, -113.65475463867188, -1.9833984375, 0.33837890625, 0.218017578125, 0, 
315, 3631858881, -0.035878896713256836, 0.7063021063804626, 0.08880404382944107, 0.701405942440033, 8.531794548034668, 6.594083309173584, -0.2689462900161743, 8.065208435058594, -58.06608200073242, -122.82109069824219, -1.978271484375, 0.312255859375, 0.23046875, 0, 
316, 3631867214, -0.029112614691257477, 0.7083427309989929, 0.09572412818670273, 0.6987462043762207, 9.269499778747559, 6.387997627258301, -0.17820262908935547, 4.342469692230225, -58.41988754272461, -128.08865356445312, -1.976806640625, 0.293701171875, 0.24267578125, 0, 
317, 3631875547, -0.022046029567718506, 0.7102590203285217, 0.10252510756254196, 0.6960898637771606, 9.802270889282227, 6.017989635467529, -0.06581766158342361, 0.3184034526348114, -57.61297607421875, -130.2156982421875, -1.9736328125, 0.264892578125, 0.255615234375, 0, 
318, 3631883880, -0.014776758849620819, 0.7120656967163086, 0.10920426994562149, 0.6934152245521545, 10.21777629852295, 5.534650802612305, -0.025438759475946426, -2.7675139904022217, -56.91866683959961, -130.8609161376953, -1.9658203125, 0.244384765625, 0.2626953125, 0, 
319, 3631892213, -0.007441043853759766, 0.713797390460968, 0.11577655375003815, 0.6906806826591492, 10.702350616455078, 5.082645893096924, -0.06478701531887054, -4.332596778869629, -56.939361572265625, -130.80117797851562, -1.96337890625, 0.21630859375, 0.27490234375, 0, 
320, 3631900546, -0.00013446062803268433, 0.7154523134231567, 0.12225835770368576, 0.6878859996795654, 11.238085746765137, 4.60892391204834, -0.11878341436386108, -4.799628734588623, -56.67484664916992, -129.48643493652344, -1.958740234375, 0.19140625, 0.285888671875, 0, 
321, 3631908879, 0.006918996572494507, 0.7170173525810242, 0.1285533308982849, 0.6850683093070984, 11.857885360717773, 4.2343573570251465, -0.22299602627754211, -4.040252208709717, -55.69475555419922, -125.67168426513672, -1.955078125, 0.163330078125, 0.29833984375, 0, 
322, 3631917212, 0.013625748455524445, 0.718409538269043, 0.13454580307006836, 0.682353138923645, 12.292015075683594, 3.771212100982666, -0.28143516182899475, -3.6637613773345947, -52.40486145019531, -119.44166564941406, -1.947998046875, 0.140869140625, 0.311767578125, 0, 
323, 3631925545, 0.019748114049434662, 0.7196586728096008, 0.1401216834783554, 0.6797599792480469, 12.545104026794434, 3.346987009048462, -0.337520956993103, -2.0575919151306152, -48.92158126831055, -110.3596420288086, -1.93896484375, 0.1201171875, 0.31689453125, 0, 
324, 3631933878, 0.025273330509662628, 0.7208770513534546, 0.14518173038959503, 0.6772193908691406, 12.744524955749512, 2.8381218910217285, -0.2624965012073517, -1.0719287395477295, -47.036190032958984, -99.43745422363281, -1.929931640625, 0.10205078125, 0.3271484375, 0, 
325, 3631942211, 0.03030504286289215, 0.722112238407135, 0.14953510463237762, 0.6747453212738037, 12.754366874694824, 2.602858066558838, -0.2375115603208542, -2.895663261413574, -45.86079025268555, -88.06071472167969, -1.92578125, 0.085205078125, 0.3369140625, 0, 
326, 3631950544, 0.03524401783943176, 0.7236186265945435, 0.15344926714897156, 0.6720072627067566, 12.594728469848633, 2.4374327659606934, 0.13486480712890625, -5.383029937744141, -50.9235725402832, -82.11013793945312, -1.918701171875, 0.071533203125, 0.34521484375, 0, 
327, 3631958877, 0.04069175943732262, 0.7251188158988953, 0.15760916471481323, 0.6691132187843323, 12.976235389709473, 2.3925704956054688, 0.9330193996429443, -7.859675407409668, -53.44282150268555, -89.626220703125, -1.912841796875, 0.05224609375, 0.354248046875, 0, 
328, 3631967210, 0.04716203361749649, 0.7260740995407104, 0.1623990386724472, 0.6665023565292358, 13.143610000610352, 2.423769950866699, 1.092946171760559, -13.165107727050781, -47.402767181396484, -106.06343078613281, -1.907470703125, 0.033447265625, 0.361328125, 0, 
329, 3631975543, 0.054554618895053864, 0.72658371925354, 0.1678808182477951, 0.6640199422836304, 12.921509742736816, 2.0756797790527344, 1.4311976432800293, -16.621469497680664, -43.70955276489258, -122.6124038696289, -1.89794921875, 0.01416015625, 0.3720703125, 0, 
330, 3631983876, 0.06273254752159119, 0.7267192602157593, 0.1737401783466339, 0.6616374850273132, 13.155638694763184, 1.6305689811706543, 1.7578248977661133, -21.517696380615234, -40.772823333740234, -134.07489013671875, -1.8896484375, -0.010986328125, 0.3798828125, 0, 
331, 3631992209, 0.07122872024774551, 0.7264154553413391, 0.17945215106010437, 0.6595832705497742, 13.030638694763184, 1.3947734832763672, 1.5798487663269043, -27.21640968322754, -34.4366340637207, -136.53701782226562, -1.880859375, -0.0390625, 0.3837890625, 0, 
332, 3632000542, 0.07927257567644119, 0.7258864045143127, 0.184870183467865, 0.657749354839325, 13.11866283416748, 0.5229331254959106, 1.6113440990447998, -26.108264923095703, -29.32039451599121, -129.57171630859375, -1.867431640625, -0.0673828125, 0.3896484375, 0, 
333, 3632008875, 0.08750047534704208, 0.725040078163147, 0.1891912966966629, 0.6564096212387085, 13.324810981750488, -0.3266846239566803, 1.6696336269378662, -39.489952087402344, -23.222028732299805, -120.81886291503906, -1.85986328125, -0.093505859375, 0.391845703125, 0, 
334, 3632017208, 0.09555920958518982, 0.7239332795143127, 0.19270670413970947, 0.655484139919281, 12.916975975036621, -0.9006602168083191, 1.2622560262680054, -46.44733428955078, -17.242294311523438, -111.18666076660156, -1.853515625, -0.119873046875, 0.39453125, 0, 
335, 3632025541, 0.10287638008594513, 0.7226921916007996, 0.19610533118247986, 0.6547377705574036, 12.433321952819824, -1.931797742843628, 1.2757017612457275, -40.78822708129883, -12.466740608215332, -103.71123504638672, -1.84619140625, -0.1357421875, 0.3896484375, 0, 
336, 3632033874, 0.11040307581424713, 0.7213788628578186, 0.19907939434051514, 0.6540622115135193, 12.206751823425293, -3.206653118133545, 1.5039631128311157, -46.96376419067383, -12.260826110839844, -101.23826599121094, -1.837158203125, -0.159423828125, 0.390380859375, 0, 
337, 3632042207, 0.11809059232473373, 0.7200828194618225, 0.2014843225479126, 0.6534108519554138, 12.093125343322754, -3.5381886959075928, 1.1074892282485962, -53.74090576171875, -13.498135566711426, -97.19120025634766, -1.83251953125, -0.1806640625, 0.393798828125, 0, 
338, 3632050540, 0.12475524842739105, 0.7188321948051453, 0.20378965139389038, 0.6528342962265015, 12.09212875366211, -4.080881118774414, 1.0549066066741943, -44.61811828613281, -10.486607551574707, -86.55426025390625, -1.82421875, -0.200927734375, 0.390625, 0, 
339, 3632058873, 0.131252259016037, 0.7176092267036438, 0.2053314596414566, 0.6524226665496826, 12.271742820739746, -5.576202869415283, 1.6619495153427124, -50.251895904541016, -9.952946662902832, -77.3515853881836, -1.81689453125, -0.22216796875, 0.393310546875, 0, 
340, 3632067206, 0.13784679770469666, 0.7163543105125427, 0.20599761605262756, 0.6522316336631775, 12.550949096679688, -5.990965366363525, 1.4581021070480347, -59.72739028930664, -9.346882820129395, -69.09519958496094, -1.815185546875, -0.23583984375, 0.385986328125, 0, 
341, 3632075539, 0.14359810948371887, 0.7149138450622559, 0.20634937286376953, 0.652459979057312, 12.834811210632324, -6.435662746429443, 1.245942234992981, -55.804744720458984, -1.7534199953079224, -58.34850311279297, -1.802490234375, -0.251708984375, 0.383544921875, 0, 
342, 3632083872, 0.14898672699928284, 0.7131004929542542, 0.20627973973751068, 0.6532577276229858, 12.68600845336914, -7.556478023529053, 1.4023221731185913, -58.3471794128418, 7.369061470031738, -50.73725128173828, -1.806396484375, -0.2666015625, 0.38232421875, 0, 
343, 3632092205, 0.15442535281181335, 0.7110565304756165, 0.20573991537094116, 0.6543920040130615, 12.154016494750977, -7.9414567947387695, 1.0901763439178467, -64.51347351074219, 11.652430534362793, -46.68889236450195, -1.7998046875, -0.282958984375, 0.37353515625, 0, 
344, 3632100538, 0.1593608260154724, 0.7089564800262451, 0.20516279339790344, 0.6556674242019653, 11.847187042236328, -8.195720672607422, 0.7678444385528564, -60.42240905761719, 14.85780143737793, -41.545413970947266, -1.798095703125, -0.293212890625, 0.3623046875, 0, 
345, 3632108871, 0.16350510716438293, 0.7069886922836304, 0.20442739129066467, 0.6570000648498535, 11.878235816955566, -8.19837474822998, 0.4524964988231659, -54.03237533569336, 16.131200790405273, -32.47981262207031, -1.793701171875, -0.304443359375, 0.35546875, 0, 
346, 3632117204, 0.16655778884887695, 0.70517498254776, 0.2033143937587738, 0.658525824546814, 11.992362022399902, -7.9606218338012695, 0.0541708767414093, -47.00444030761719, 18.80490493774414, -18.010923385620117, -1.795166015625, -0.312744140625, 0.351806640625, 0, 
347, 3632125537, 0.16707929968833923, 0.7080838680267334, 0.1980741024017334, 0.656867265701294, 19.153757095336914, -5.762160778045654, 4.074639797210693, -40.1383056640625, -57.186561584472656, 50.77739334106445, -1.797119140625, -0.312744140625, 0.349365234375, 0, 
348, 3632133870, 0.16194301843643188, 0.7120206356048584, 0.19439393281936646, 0.6549950838088989, 6.384038925170898, -10.206692695617676, 0.5030225515365601, 32.010623931884766, -49.588584899902344, 89.0261459350586, -1.797607421875, -0.302734375, 0.357421875, 0, 
349, 3632142203, 0.1587882786989212, 0.7188450694084167, 0.18596509099006653, 0.6507470607757568, 9.142008781433105, -7.3500261306762695, 0.45819950103759766, -17.402841567993164, -114.70226287841797, 120.08007049560547, -1.794677734375, -0.280517578125, 0.372314453125, 0, 
350, 3632150536, 0.1527867317199707, 0.7210562229156494, 0.17944517731666565, 0.6515674591064453, 23.32978057861328, 3.6047232151031494, -4.057711601257324, 4.806181907653809, -11.911785125732422, 125.93739318847656, -1.79833984375, -0.265380859375, 0.38671875, 0, 
351, 3632158869, 0.14705833792686462, 0.7156708836555481, 0.17494767904281616, 0.6599916219711304, 11.5192232131958, 3.2662341594696045, -3.0771896839141846, -14.526098251342773, 135.1728973388672, 100.683837890625, -1.821044921875, -0.242919921875, 0.368896484375, 0, 
352, 3632167202, 0.14478899538516998, 0.7125884294509888, 0.16913726925849915, 0.6653215885162354, 9.40268611907959, 6.8553667068481445, -1.288175344467163, -48.365821838378906, 72.79769134521484, 81.44666290283203, -1.833740234375, -0.232421875, 0.348876953125, 0, 
353, 3632175535, 0.1402047872543335, 0.7124567031860352, 0.1645885705947876, 0.6675817370414734, 7.573209285736084, 9.012892723083496, -0.3911895751953125, -1.1404826641082764, 23.65842628479004, 91.0593032836914, -1.84130859375, -0.22998046875, 0.3349609375, 0, 
354, 3632183868, 0.13377651572227478, 0.7140087485313416, 0.1601506471633911, 0.6683213710784912, 9.948554992675781, 4.890824317932129, 1.017349362373352, 24.646472930908203, -2.3483381271362305, 107.73553466796875, -1.848876953125, -0.20166015625, 0.337890625, 0, 
355, 3632192201, 0.1279241442680359, 0.7144404649734497, 0.15470847487449646, 0.6702850461006165, 10.82140827178955, 3.1954824924468994, 0.40673303604125977, 4.9901838302612305, 16.890897750854492, 112.13411712646484, -1.857421875, -0.183349609375, 0.339111328125, 0, 
356, 3632200534, 0.12262830138206482, 0.7142401337623596, 0.14919516444206238, 0.6727336645126343, 9.517736434936523, 2.8035178184509277, 0.839108407497406, -3.261777877807617, 26.129148483276367, 107.17377471923828, -1.871826171875, -0.162109375, 0.328857421875, 0, 
357, 3632208867, 0.11756421625614166, 0.7141658067703247, 0.14451849460601807, 0.6747345328330994, 9.346071243286133, 2.4465839862823486, -0.03744673728942871, 3.3179047107696533, 21.542306900024414, 96.35340118408203, -1.8759765625, -0.145263671875, 0.32421875, 0, 
358, 3632217200, 0.11298345774412155, 0.7140234112739563, 0.140232115983963, 0.6765696406364441, 9.979655265808105, 2.532285690307617, -1.1696045398712158, 2.4289257526397705, 20.169931411743164, 87.59146118164062, -1.883056640625, -0.1240234375, 0.32421875, 0, 
359, 3632225533, 0.10907880961894989, 0.7131484746932983, 0.13592883944511414, 0.6790071725845337, 10.124995231628418, 2.2132954597473145, -0.9264540672302246, -6.68372106552124, 31.61836051940918, 81.03111267089844, -1.887939453125, -0.11767578125, 0.31787109375, 0, 
360, 3632233866, 0.10582015663385391, 0.7116104364395142, 0.13148024678230286, 0.6820060014724731, 9.463262557983398, 2.1871044635772705, -0.6577941179275513, -16.403928756713867, 41.83884811401367, 75.9833984375, -1.893798828125, -0.100830078125, 0.309326171875, 0, 
361, 3632242199, 0.10276474058628082, 0.7097869515419006, 0.1273561269044876, 0.6851487159729004, 9.999659538269043, 1.6866979598999023, -0.28157928586006165, -16.041250228881836, 46.0796012878418, 70.63797760009766, -1.904296875, -0.092041015625, 0.29736328125, 0, 
362, 3632250532, 0.10106557607650757, 0.7082046270370483, 0.12333938479423523, 0.6877685785293579, 10.442845344543457, 1.8524683713912964, -0.8262239694595337, -26.997575759887695, 36.429073333740234, 56.4493293762207, -1.914794921875, -0.080322265625, 0.287353515625, 0, 
363, 3632258865, 0.09908925741910934, 0.706734299659729, 0.1205839067697525, 0.6900535821914673, 10.360573768615723, 2.5013067722320557, -0.8561087250709534, -11.65881633758545, 34.38294982910156, 46.55776596069336, -1.911376953125, -0.071533203125, 0.281982421875, 0, 
364, 3632267198, 0.09786249697208405, 0.7055015563964844, 0.11794500797986984, 0.6919434070587158, 10.144214630126953, 2.4434878826141357, -0.619986891746521, -16.844036102294922, 27.156288146972656, 38.114158630371094, -1.91943359375, -0.066650390625, 0.27587890625, 0, 
365, 3632275531, 0.09711726009845734, 0.7043703198432922, 0.11559232324361801, 0.6935959458351135, 10.41356372833252, 2.8096232414245605, -0.8205211162567139, -18.285234451293945, 23.540809631347656, 30.654329299926758, -1.921875, -0.06103515625, 0.26806640625, 0, 
366, 3632283864, 0.09659382700920105, 0.7032656073570251, 0.113553486764431, 0.6951252818107605, 9.994872093200684, 2.2674732208251953, -0.07545623183250427, -17.196136474609375, 22.111936569213867, 25.320405960083008, -1.927978515625, -0.055908203125, 0.264404296875, 0, 
367, 3632292197, 0.0962233617901802, 0.7022711038589478, 0.11177699267864227, 0.6964687705039978, 9.736594200134277, 2.727693796157837, -0.11798934638500214, -15.743062019348145, 19.41718292236328, 21.3043155670166, -1.931640625, -0.0546875, 0.258056640625, 0, 
368, 3632300530, 0.09579189866781235, 0.7014769315719604, 0.11032269150018692, 0.6975594162940979, 9.369787216186523, 2.290027141571045, 0.42794349789619446, -11.403426170349121, 15.530073165893555, 18.69217872619629, -1.933349609375, -0.05029296875, 0.255615234375, 0, 
369, 3632308863, 0.09539863467216492, 0.7008267641067505, 0.10895178467035294, 0.6984816789627075, 9.496874809265137, 3.168687343597412, -0.37078145146369934, -10.538686752319336, 12.625287055969238, 17.574649810791016, -1.933349609375, -0.0498046875, 0.251708984375, 0, 
370, 3632317196, 0.0944884642958641, 0.6999967098236084, 0.10789259523153305, 0.699601411819458, 9.411701202392578, 2.705265522003174, -0.14642265439033508, -3.082841157913208, 17.389667510986328, 19.466495513916016, -1.9365234375, -0.05029296875, 0.247314453125, 0, 
371, 3632325529, 0.09448032826185226, 0.6991339921951294, 0.10614640265703201, 0.7007313370704651, 9.617765426635742, 2.5809788703918457, -0.28724056482315063, -18.445068359375, 15.620981216430664, 17.423328399658203, -1.939453125, -0.037353515625, 0.245849609375, 0, 
372, 3632333862, 0.09380867332220078, 0.6980754733085632, 0.1051202267408371, 0.7020305395126343, 9.485736846923828, 2.4368698596954346, 0.16311578452587128, -5.61386251449585, 20.9923152923584, 16.773134231567383, -1.938720703125, -0.039306640625, 0.23828125, 0, 
373, 3632342195, 0.0937838926911354, 0.6972355842590332, 0.10381054133176804, 0.7030625939369202, 9.34050178527832, 2.1444344520568848, 0.5302441716194153, -13.907219886779785, 15.063484191894531, 13.278658866882324, -1.943115234375, -0.041015625, 0.236572265625, 0, 
374, 3632350528, 0.09334582835435867, 0.696456789970398, 0.1029529944062233, 0.7040181159973145, 9.67533016204834, 2.878483533859253, -0.07399735599756241, -5.373035430908203, 14.865456581115723, 12.86751937866211, -1.9462890625, -0.037353515625, 0.2333984375, 0, 
375, 3632358861, 0.09291280806064606, 0.6956488490104675, 0.10206728428602219, 0.7050024271011353, 9.304335594177246, 2.408386468887329, 0.3579116761684418, -5.784477710723877, 15.42676830291748, 13.144230842590332, -1.9423828125, -0.037353515625, 0.223876953125, 0, 
376, 3632367194, 0.09277186542749405, 0.6948290467262268, 0.10085820406675339, 0.7060027122497559, 9.718668937683105, 3.26672101020813, -0.40472525358200073, -11.738204002380371, 14.82447624206543, 13.350658416748047, -1.943115234375, -0.034912109375, 0.226318359375, 0, 
377, 3632375527, 0.09221629053354263, 0.6937156319618225, 0.0997985377907753, 0.7073197960853577, 9.401456832885742, 2.5465757846832275, 0.10346807539463043, -7.152484893798828, 21.51276969909668, 16.00444984436035, -1.949951171875, -0.03369140625, 0.221435546875, 0, 
378, 3632383860, 0.09204808622598648, 0.6925670504570007, 0.09836789965629578, 0.7086664438247681, 9.6069974899292, 2.7526021003723145, 0.03621988371014595, -14.53077507019043, 21.091495513916016, 15.70543098449707, -1.952880859375, -0.02978515625, 0.215087890625, 0, 
379, 3632392193, 0.09141069650650024, 0.6914053559303284, 0.09731308370828629, 0.710027813911438, 9.278389930725098, 2.4184443950653076, 0.5076234340667725, -6.4470696449279785, 22.51462173461914, 16.758739471435547, -1.953369140625, -0.02734375, 0.2099609375, 0, 
380, 3632400526, 0.09103292971849442, 0.6903204917907715, 0.09597799926996231, 0.7113124132156372, 9.465276718139648, 2.842388868331909, 0.24549584090709686, -11.435907363891602, 20.289947509765625, 16.83601951599121, -1.948974609375, -0.0263671875, 0.2041015625, 0, 
381, 3632408859, 0.09023740887641907, 0.6892943382263184, 0.09488864243030548, 0.7125539779663086, 9.420031547546387, 2.491934299468994, 0.45815137028694153, -4.953041076660156, 20.212005615234375, 18.671846389770508, -1.95458984375, -0.0224609375, 0.2021484375, 0, 
382, 3632417192, 0.08960345387458801, 0.6884028315544128, 0.09354209154844284, 0.713672935962677, 9.528460502624512, 2.9288594722747803, 0.3612101078033447, -8.6670560836792, 17.15509033203125, 19.492008209228516, -1.953857421875, -0.020751953125, 0.19580078125, 0, 
383, 3632425525, 0.08859499543905258, 0.6875258684158325, 0.09211238473653793, 0.7148293256759644, 9.441869735717773, 3.0215508937835693, 0.33796003460884094, -5.978712558746338, 17.78904914855957, 24.076223373413086, -1.96435546875, -0.01806640625, 0.197265625, 0, 
384, 3632433858, 0.08734459429979324, 0.6865054368972778, 0.09040457755327225, 0.7161805033683777, 9.837642669677734, 3.1956751346588135, -0.09882187098264694, -6.834333896636963, 20.966501235961914, 29.083816528320312, -1.965576171875, -0.013671875, 0.19091796875, 0, 
385, 3632442191, 0.08594495803117752, 0.6852558255195618, 0.08851665258407593, 0.717780590057373, 9.942947387695312, 2.619385004043579, -0.01813959702849388, -7.796306610107422, 25.585229873657227, 32.32478332519531, -1.96533203125, -0.00439453125, 0.18505859375, 0, 
386, 3632450524, 0.08459702134132385, 0.6837803721427917, 0.08655043691396713, 0.7195853590965271, 9.902194023132324, 2.4361143112182617, 0.08866287022829056, -9.55905532836914, 29.545120239257812, 32.46438217163086, -1.970947265625, 0.001953125, 0.179931640625, 0, 
387, 3632458857, 0.08341951668262482, 0.6825215816497803, 0.08487251400947571, 0.7211161255836487, 9.64424991607666, 1.5111562013626099, 0.9526249170303345, -7.743744373321533, 24.99799156188965, 28.062559127807617, -1.97021484375, 0.00439453125, 0.1748046875, 0, 
388, 3632467190, 0.0823778435587883, 0.6820321083068848, 0.08378609269857407, 0.7218256592750549, 9.54610824584961, 1.3487869501113892, 1.3729697465896606, -1.299167275428772, 10.141679763793945, 21.061800003051758, -1.971923828125, 0.009765625, 0.167236328125, 0, 
389, 3632475523, 0.08156339824199677, 0.6813856363296509, 0.08278298377990723, 0.7226439118385315, 9.897048950195312, 2.4243268966674805, -0.049100134521722794, -2.9196784496307373, 12.595446586608887, 18.02402687072754, -1.973876953125, 0.012451171875, 0.167236328125, 0, 
390, 3632483856, 0.08088192343711853, 0.6805389523506165, 0.08173129707574844, 0.7236375212669373, 9.890339851379395, 2.226787567138672, 0.16816408932209015, -5.05805778503418, 15.979166030883789, 17.069076538085938, -1.97314453125, 0.01416015625, 0.166015625, 0, 
391, 3632492189, 0.08034732192754745, 0.6794472932815552, 0.0806056335568428, 0.7248483300209045, 9.770857810974121, 2.3280587196350098, 0.24665667116641998, -7.699656963348389, 20.24302101135254, 16.322324752807617, -1.976318359375, 0.013427734375, 0.1552734375, 0, 
392, 3632500522, 0.07988621294498444, 0.6784582734107971, 0.0795973464846611, 0.7259359359741211, 9.664909362792969, 1.8453038930892944, 0.6166471838951111, -6.952883720397949, 18.076831817626953, 14.414762496948242, -1.978515625, 0.0185546875, 0.154052734375, 0, 
393, 3632508855, 0.07955803722143173, 0.6773937344551086, 0.07869984209537506, 0.7270630598068237, 9.498367309570312, 1.9803011417388916, 0.6092461347579956, -7.226842403411865, 19.217191696166992, 12.072020530700684, -1.983642578125, 0.019287109375, 0.14892578125, 0, 
394, 3632517188, 0.07931061089038849, 0.6763564348220825, 0.07785812765359879, 0.7281457185745239, 9.253942489624023, 1.9324709177017212, 1.1315224170684814, -7.330554485321045, 18.462467193603516, 10.667872428894043, -1.9833984375, 0.024169921875, 0.14453125, 0, 
395, 3632525521, 0.07912884652614594, 0.6755344271659851, 0.0770815908908844, 0.7290107607841492, 9.49211311340332, 2.085148334503174, 0.9185507297515869, -6.833329200744629, 14.325353622436523, 9.45544719696045, -1.98486328125, 0.02099609375, 0.141845703125, 0, 
396, 3632533854, 0.0788469910621643, 0.6748520135879517, 0.07631388306617737, 0.7297536730766296, 9.29984188079834, 2.2935338020324707, 1.0882924795150757, -5.5216240882873535, 11.865925788879395, 10.333246231079102, -1.986572265625, 0.025390625, 0.137451171875, 0, 
397, 3632542187, 0.07853156328201294, 0.6742505431175232, 0.07540824264287949, 0.7304375171661377, 9.616069793701172, 2.3426363468170166, 0.6872254610061646, -6.457004547119141, 10.43188762664795, 12.029626846313477, -1.9814453125, 0.024169921875, 0.137451171875, 0, 
398, 3632550520, 0.07815563678741455, 0.6737047433853149, 0.07438229769468307, 0.7310861945152283, 9.521096229553223, 2.2411274909973145, 0.9381945133209229, -6.9930853843688965, 9.436799049377441, 13.714838981628418, -1.9833984375, 0.029541015625, 0.129150390625, 0, 
399, 3632558853, 0.0776963010430336, 0.6733327507972717, 0.07338560372591019, 0.7315784692764282, 9.545928001403809, 2.122692108154297, 0.8137699365615845, -5.594151020050049, 6.400858402252197, 14.350724220275879, -1.990234375, 0.029052734375, 0.128662109375, 0, 
400, 3632567186, 0.07720457762479782, 0.6729504466056824, 0.07236672192811966, 0.7320836782455444, 9.463532447814941, 1.9146019220352173, 1.0082138776779175, -5.529282569885254, 6.589033126831055, 14.827597618103027, -1.98876953125, 0.0322265625, 0.1259765625, 0, 
401, 3632575519, 0.07657203078269958, 0.6727328300476074, 0.07146607339382172, 0.7324385643005371, 9.392369270324707, 2.019186496734619, 1.0632245540618896, -2.7237541675567627, 3.8493077754974365, 15.211374282836914, -1.98876953125, 0.037841796875, 0.1259765625, 0, 
402, 3632583852, 0.07586555182933807, 0.67255038022995, 0.07053489983081818, 0.7327697277069092, 9.488752365112305, 1.9909329414367676, 1.0307070016860962, -2.2744293212890625, 3.274217367172241, 16.192401885986328, -1.98876953125, 0.040771484375, 0.1240234375, 0, 
403, 3632592185, 0.07505305856466293, 0.6724260449409485, 0.0695769339799881, 0.7330591082572937, 9.753457069396973, 2.1103157997131348, 0.7558361291885376, -1.4751497507095337, 2.4181509017944336, 17.577632904052734, -1.992919921875, 0.04345703125, 0.12353515625, 0, 
404, 3632600518, 0.07410161197185516, 0.6724649667739868, 0.06863535195589066, 0.733208954334259, 9.805764198303223, 2.2567405700683594, 0.8119354844093323, 0.2870844006538391, -0.4098662734031677, 18.782411575317383, -1.9892578125, 0.044677734375, 0.120849609375, 0, 
405, 3632608851, 0.07305574417114258, 0.6726536154747009, 0.06764817982912064, 0.7332326173782349, 9.657965660095215, 2.2083115577697754, 1.0393729209899902, 0.9620453715324402, -3.0021302700042725, 20.224624633789062, -1.99365234375, 0.05029296875, 0.124755859375, 0, 
406, 3632617184, 0.07195340096950531, 0.6729511022567749, 0.0666518285870552, 0.7331597208976746, 9.768423080444336, 1.9715280532836914, 0.8714339137077332, 1.6041179895401, -4.988950729370117, 20.829299926757812, -1.9921875, 0.05224609375, 0.121337890625, 0, 
407, 3632625517, 0.07074889540672302, 0.6734366416931152, 0.06575702875852585, 0.7329119443893433, 9.530285835266113, 2.0503926277160645, 0.9555918574333191, 3.906735420227051, -8.270109176635742, 20.97296905517578, -1.993408203125, 0.05517578125, 0.1240234375, 0, 
408, 3632633850, 0.06938978284597397, 0.6739914417266846, 0.06498194485902786, 0.7326009273529053, 9.653471946716309, 1.790511131286621, 0.9555395841598511, 6.681142807006836, -9.336994171142578, 21.369632720947266, -1.99462890625, 0.0615234375, 0.123779296875, 0, 
409, 3632642183, 0.06773867458105087, 0.674647867679596, 0.06446631997823715, 0.7321967482566833, 9.645156860351562, 1.997249960899353, 0.7799182534217834, 12.170432090759277, -10.675443649291992, 21.96299171447754, -1.991943359375, 0.0654296875, 0.12939453125, 0, 
410, 3632650516, 0.06596639752388, 0.6752845048904419, 0.0639476329088211, 0.7318170666694641, 9.762378692626953, 1.9702672958374023, 0.7102900743484497, 13.23393726348877, -10.186725616455078, 23.160795211791992, -1.993896484375, 0.071044921875, 0.130859375, 0, 
411, 3632658849, 0.06395792216062546, 0.676064670085907, 0.06362620741128922, 0.7313029170036316, 9.524148941040039, 1.5677448511123657, 1.1148262023925781, 17.65039825439453, -12.450949668884277, 23.76723861694336, -1.991943359375, 0.077880859375, 0.136962890625, 0, 
412, 3632667182, 0.06193909794092178, 0.6768365502357483, 0.06341028958559036, 0.7307811975479126, 9.771688461303711, 1.6966233253479004, 0.5055398344993591, 18.81843376159668, -12.378101348876953, 22.82140350341797, -1.9931640625, 0.08154296875, 0.134521484375, 0, 
413, 3632675515, 0.05991191416978836, 0.6776267886161804, 0.06321631371974945, 0.7302344441413879, 9.713364601135254, 1.6940263509750366, 0.620804488658905, 19.14240837097168, -12.727021217346191, 22.748868942260742, -1.99560546875, 0.08544921875, 0.137451171875, 0, 
414, 3632683848, 0.057674258947372437, 0.678362250328064, 0.06318094581365585, 0.7297347187995911, 9.798774719238281, 1.6265121698379517, 0.5026565194129944, 22.621103286743164, -11.469897270202637, 23.32257652282715, -1.990478515625, 0.09228515625, 0.139892578125, 0, 
415, 3632692181, 0.055331047624349594, 0.678998589515686, 0.06322478502988815, 0.7293205261230469, 9.991003036499023, 1.729286551475525, 0.42876020073890686, 24.23741912841797, -9.477495193481445, 23.679643630981445, -1.9921875, 0.09619140625, 0.144287109375, 0, 
416, 3632700514, 0.05255083739757538, 0.6794281601905823, 0.06357534974813461, 0.7290955781936646, 10.139638900756836, 1.7055716514587402, 0.33957043290138245, 31.080102920532227, -5.065926551818848, 25.10662269592285, -1.995361328125, 0.1005859375, 0.148193359375, 0, 
417, 3632708847, 0.049699198454618454, 0.6796491146087646, 0.06381433457136154, 0.7290686964988708, 10.635435104370117, 1.4392400979995728, 0.2453802227973938, 30.296916961669922, -1.1001455783843994, 26.882253646850586, -1.9931640625, 0.1103515625, 0.144287109375, 0, 
418, 3632717180, 0.04667982831597328, 0.679577112197876, 0.06403762102127075, 0.7293157577514648, 10.408482551574707, 1.5855114459991455, 0.03566768392920494, 31.278335571289062, 4.491796493530273, 28.585994720458984, -1.998046875, 0.117431640625, 0.14599609375, 0, 
419, 3632725513, 0.043612513691186905, 0.6793326139450073, 0.06415711343288422, 0.7297228574752808, 10.54592227935791, 1.5710309743881226, 0.18523529171943665, 30.421720504760742, 7.735998630523682, 30.041706085205078, -1.997314453125, 0.12109375, 0.140380859375, 0, 
420, 3632733846, 0.040455713868141174, 0.6787625551223755, 0.06428088247776031, 0.7304239273071289, 10.902709007263184, 1.68117356300354, 0.5228444933891296, 30.853710174560547, 13.787297248840332, 30.734066009521484, -1.997802734375, 0.131103515625, 0.14208984375, 0, 
421, 3632742179, 0.03710569813847542, 0.678197979927063, 0.06430434435606003, 0.731123685836792, 10.478720664978027, 1.6108108758926392, 0.6716414093971252, 31.64619255065918, 13.87707805633545, 33.670257568359375, -2.00146484375, 0.138671875, 0.136962890625, 0, 
422, 3632750512, 0.03342665731906891, 0.6778190732002258, 0.06448489427566528, 0.7316365242004395, 10.220683097839355, 1.698702335357666, 0.8228302001953125, 36.56547927856445, 10.598912239074707, 35.52818298339844, -1.998291015625, 0.146728515625, 0.136962890625, 0, 
423, 3632758845, 0.02958253026008606, 0.6778207421302795, 0.06441680341959, 0.7318064570426941, 9.904984474182129, 1.5784963369369507, 0.924633264541626, 36.070159912109375, 3.6457087993621826, 39.74061584472656, -2.001708984375, 0.15478515625, 0.138671875, 0, 
424, 3632767178, 0.025729790329933167, 0.6784464716911316, 0.06414029747247696, 0.731396496295929, 10.067298889160156, 1.7286455631256104, 1.5967483520507812, 34.829742431640625, -8.158885955810547, 42.033023834228516, -2.0029296875, 0.167236328125, 0.135498046875, 0, 
425, 3632775511, 0.021569110453128815, 0.6790341734886169, 0.06372621655464172, 0.7310217022895813, 10.194398880004883, 1.7322640419006348, 1.685806393623352, 36.26546096801758, -7.1843156814575195, 46.44599914550781, -2.001953125, 0.180419921875, 0.13720703125, 0, 
426, 3632783844, 0.01719803363084793, 0.679598331451416, 0.0630888044834137, 0.7306685447692871, 10.467211723327637, 1.8820557594299316, 1.5808552503585815, 35.96337890625, -6.670596122741699, 50.581214904785156, -2.00439453125, 0.188720703125, 0.1376953125, 0, 
427, 3632792177, 0.012724757194519043, 0.6805505752563477, 0.061928339302539825, 0.729972779750824, 10.297086715698242, 1.9218052625656128, 1.7100415229797363, 32.04758071899414, -13.763004302978516, 56.80276107788086, -2.003662109375, 0.19873046875, 0.13818359375, 0, 
428, 3632800510, 0.008451126515865326, 0.6823522448539734, 0.06005384027957916, 0.7285081744194031, 10.75991153717041, 2.0806429386138916, 1.5836896896362305, 23.822731018066406, -29.825777053833008, 62.021751403808594, -2.002685546875, 0.2099609375, 0.146240234375, 0, 
429, 3632808843, 0.0038013234734535217, 0.6844439506530762, 0.057748839259147644, 0.7267693877220154, 10.928265571594238, 2.0152792930603027, 1.4192452430725098, 23.292491912841797, -34.998844146728516, 70.08613586425781, -2.005126953125, 0.226318359375, 0.1513671875, 0, 
430, 3632817176, -0.0012897327542304993, 0.6868852972984314, 0.055111393332481384, 0.7246764898300171, 10.972808837890625, 1.680393934249878, 1.2651160955429077, 24.428693771362305, -41.53973388671875, 77.83797454833984, -2.004150390625, 0.246826171875, 0.1591796875, 0, 
431, 3632825509, -0.006482645869255066, 0.6900506615638733, 0.05195546895265579, 0.7218691110610962, 11.041202545166016, 1.818493366241455, 1.6109405755996704, 20.74616241455078, -55.37020492553711, 84.35791778564453, -1.99951171875, 0.26318359375, 0.171142578125, 0, 
432, 3632833842, -0.011880964040756226, 0.6934639811515808, 0.048272714018821716, 0.7187784314155579, 11.506629943847656, 2.2089388370513916, 1.4563182592391968, 17.650344848632812, -60.377357482910156, 91.55584716796875, -1.992919921875, 0.279541015625, 0.177734375, 0, 
433, 3632842175, -0.01790427416563034, 0.6970290541648865, 0.04425404965877533, 0.7154563069343567, 11.677308082580566, 2.041320323944092, 0.850989818572998, 20.415088653564453, -63.564144134521484, 101.11905670166016, -1.990234375, 0.2958984375, 0.198486328125, 0, 
434, 3632850508, -0.024553820490837097, 0.7008050084114075, 0.03998376429080963, 0.7118126749992371, 12.666629791259766, 1.8497058153152466, 0.3133162558078766, 24.084123611450195, -68.33037567138672, 109.8620376586914, -1.985595703125, 0.322265625, 0.208251953125, 0, 
435, 3632858841, -0.03170749545097351, 0.7044034600257874, 0.03509758412837982, 0.70822674036026, 12.543999671936035, 2.159154176712036, 0.3299543559551239, 22.943241119384766, -65.49803924560547, 120.65250396728516, -1.9794921875, 0.3447265625, 0.218017578125, 0, 
436, 3632867174, -0.039431311190128326, 0.7078728079795837, 0.02973787486553192, 0.704615592956543, 13.664709091186523, 2.2934229373931885, -0.8154177069664001, 23.92190170288086, -64.05826568603516, 130.70767211914062, -1.974853515625, 0.370361328125, 0.225830078125, 0, 
437, 3632875507, -0.0478658452630043, 0.7107782363891602, 0.023896507918834686, 0.7013831734657288, 13.895883560180664, 1.9844967126846313, -1.2452856302261353, 26.325220108032227, -54.30192184448242, 141.8814239501953, -1.971923828125, 0.39599609375, 0.236328125, 0, 
438, 3632883840, -0.05680391192436218, 0.7132760286331177, 0.01723828911781311, 0.6983693838119507, 13.736714363098145, 2.1435329914093018, -1.5135997533798218, 23.56280517578125, -47.583770751953125, 154.41973876953125, -1.960693359375, 0.4296875, 0.24267578125, 0, 
439, 3632892173, -0.06683359295129776, 0.7149780988693237, 0.010274872183799744, 0.6958738565444946, 14.481359481811523, 2.133868455886841, -1.4471285343170166, 31.840009689331055, -34.30579376220703, 167.32810974121094, -1.95703125, 0.46044921875, 0.2568359375, 0, 
440, 3632900506, -0.07746659219264984, 0.71393883228302, 0.0022336766123771667, 0.6959107518196106, 15.993330955505371, 2.7775352001190186, -0.5182072520256042, 29.616165161132812, 17.851781845092773, 180.96832275390625, -1.9501953125, 0.495849609375, 0.25390625, 0, 
441, 3632908839, -0.0876660868525505, 0.7112240195274353, -0.007957927882671356, 0.6974369287490845, 15.469632148742676, 3.135965585708618, -1.3819159269332886, 6.523183345794678, 50.83669662475586, 196.31134033203125, -1.94873046875, 0.533203125, 0.24072265625, 0, 
442, 3632917172, -0.09858206659555435, 0.7097442746162415, -0.019058875739574432, 0.6972715854644775, 16.257328033447266, 3.414335012435913, -3.7261464595794678, 3.1284968852996826, 23.417388916015625, 213.97874450683594, -1.9423828125, 0.572998046875, 0.230712890625, 0, 
443, 3632925505, -0.11059097945690155, 0.7081066966056824, -0.03113839402794838, 0.6967000961303711, 19.450714111328125, 4.8179707527160645, -1.9838666915893555, 4.526793956756592, 22.052141189575195, 234.60833740234375, -1.936767578125, 0.613037109375, 0.230224609375, 0, 
444, 3632933838, -0.12420083582401276, 0.7047936916351318, -0.044939640909433365, 0.6970128417015076, 20.61663055419922, 4.940286159515381, -2.6453914642333984, 6.539991855621338, 48.61203384399414, 266.1015930175781, -1.92333984375, 0.6591796875, 0.22119140625, 0, 
445, 3632942171, -0.1393529176712036, 0.6994672417640686, -0.060302793979644775, 0.6983526349067688, 22.516185760498047, 4.934314250946045, -5.558723449707031, 10.597868919372559, 79.6214599609375, 295.5068664550781, -1.90966796875, 0.715087890625, 0.209716796875, 0, 
446, 3632950504, -0.15604588389396667, 0.6922804713249207, -0.07718142122030258, 0.7003189921379089, 21.939939498901367, 5.88343620300293, -5.6826252937316895, 14.940991401672363, 105.11385345458984, 325.27203369140625, -1.894775390625, 0.7685546875, 0.184814453125, 0, 
447, 3632958837, -0.17524418234825134, 0.6832345724105835, -0.09464631229639053, 0.7025157809257507, 24.91738510131836, 5.3662872314453125, -7.674837589263916, 37.39237594604492, 123.8475570678711, 356.4314880371094, -1.87841796875, 0.838134765625, 0.1640625, 0, 
