PacketCounter,SampleTimeFine,Quat_W,Quat_X,Quat_Y,Quat_Z,Acc_X,Acc_Y,Acc_Z,Gyr_X,Gyr_Y,Gyr_Z,Mag_X,Mag_Y,Mag_Z,Status,
0, 1021621628, 0.5491084456443787, -0.5469750761985779, -0.4632723331451416, -0.4297438859939575, 0, 0, 0, 0, 0, 0, -0.966064453125, 0.4921875, 0.367919921875, 0, 
1, 1021629961, 0.5491036176681519, -0.546997606754303, -0.46327877044677734, -0.4297144412994385, 9.623298645019531, -2.0784802436828613, -0.29056310653686523, 1.1983873844146729, -0.5783565044403076, 0.580725908279419, -0.968017578125, 0.49462890625, 0.368896484375, 0, 
2, 1021638294, 0.5491092205047607, -0.5470007658004761, -0.4633047580718994, -0.4296751618385315, 9.604401588439941, -2.041256904602051, -0.275341272354126, 1.4568735361099243, -0.5877698063850403, 0.4539225995540619, -0.96435546875, 0.49365234375, 0.369384765625, 0, 
3, 1021646627, 0.5491071939468384, -0.5470123291015625, -0.4633154571056366, -0.4296516180038452, 9.633133888244629, -1.9625827074050903, -0.3599238991737366, 1.2874610424041748, -0.48559466004371643, 0.4502854645252228, -0.965576171875, 0.49658203125, 0.373046875, 0, 
4, 1021654960, 0.549102783203125, -0.5470227003097534, -0.4633127450942993, -0.4296470284461975, 9.650566101074219, -1.9604226350784302, -0.3213772475719452, 1.1270263195037842, -0.2562576234340668, 0.38859352469444275, -0.965087890625, 0.4931640625, 0.367431640625, 0, 
5, 1021663293, 0.5490944385528564, -0.5470406413078308, -0.46330398321151733, -0.42964428663253784, 9.637468338012695, -1.9695783853530884, -0.24926260113716125, 0.9443457126617432, -0.2577688992023468, 0.4427933394908905, -0.96435546875, 0.4951171875, 0.373046875, 0, 
6, 1021671626, 0.5490796566009521, -0.5470632314682007, -0.4632897973060608, -0.42964985966682434, 9.599780082702637, -1.9865089654922485, -0.21708878874778748, 0.8482281565666199, -0.23736710846424103, 0.4135802090167999, -0.966552734375, 0.4931640625, 0.37109375, 0, 
7, 1021679959, 0.5490499138832092, -0.547092080116272, -0.46328970789909363, -0.429651141166687, 9.630638122558594, -1.9840986728668213, -0.21751759946346283, 0.7268936038017273, -0.49399611353874207, 0.29096490144729614, -0.967041015625, 0.49560546875, 0.373046875, 0, 
8, 1021688292, 0.5490398406982422, -0.5471166372299194, -0.46330010890960693, -0.42962127923965454, 9.646531105041504, -1.960036277770996, -0.1919250786304474, 1.2225033044815063, -0.6670458912849426, 0.5378604531288147, -0.966064453125, 0.494140625, 0.368896484375, 0, 
9, 1021696625, 0.5490426421165466, -0.5471404790878296, -0.46331003308296204, -0.4295765459537506, 9.658834457397461, -1.8828767538070679, -0.18302451074123383, 1.3629719018936157, -0.6799042224884033, 0.7225135564804077, -0.965576171875, 0.4951171875, 0.37109375, 0, 
10, 1021704958, 0.5490352511405945, -0.5471833348274231, -0.463299036026001, -0.4295434057712555, 9.659521102905273, -1.8468211889266968, -0.2141561210155487, 1.157366394996643, -0.6546742916107178, 0.8509432673454285, -0.967041015625, 0.4951171875, 0.370361328125, 0, 
11, 1021713291, 0.5490210652351379, -0.5472504496574402, -0.46328186988830566, -0.42949458956718445, 9.672647476196289, -1.8459985256195068, -0.275871217250824, 0.773229718208313, -0.8699619770050049, 1.1321876049041748, -0.967041015625, 0.49462890625, 0.3740234375, 0, 
12, 1021721624, 0.5490090250968933, -0.5473282337188721, -0.4632543921470642, -0.4294404089450836, 9.696925163269043, -1.8738205432891846, -0.3008984625339508, 0.5995651483535767, -0.860971212387085, 1.3396884202957153, -0.96337890625, 0.4951171875, 0.369384765625, 0, 
13, 1021729957, 0.5489955544471741, -0.5474168062210083, -0.4631982147693634, -0.4294053316116333, 9.67104434967041, -1.846649408340454, -0.30832329392433167, 0.29788073897361755, -0.5931488275527954, 1.4638408422470093, -0.966552734375, 0.497802734375, 0.3740234375, 0, 
14, 1021738290, 0.5489825010299683, -0.5475109219551086, -0.46314194798469543, -0.4293627440929413, 9.63149642944336, -1.8308571577072144, -0.2737876772880554, 0.3232644498348236, -0.6817997097969055, 1.562019944190979, -0.965087890625, 0.494140625, 0.369384765625, 0, 
15, 1021746623, 0.548979640007019, -0.5475928783416748, -0.46311578154563904, -0.429290235042572, 9.601886749267578, -1.8488303422927856, -0.2490922063589096, 0.8446934223175049, -0.9944469332695007, 1.5411956310272217, -0.96337890625, 0.4951171875, 0.37109375, 0, 
16, 1021754956, 0.5489752292633057, -0.5476795434951782, -0.4631039500236511, -0.42919790744781494, 9.60364055633545, -1.8904632329940796, -0.24834245443344116, 0.7274570465087891, -1.2293552160263062, 1.6167832612991333, -0.965087890625, 0.49658203125, 0.37255859375, 0, 
17, 1021763289, 0.5489691495895386, -0.5477831363677979, -0.4630817472934723, -0.42909759283065796, 9.665348052978516, -1.9663511514663696, -0.22871245443820953, 0.8564504384994507, -1.3825029134750366, 1.8387563228607178, -0.96337890625, 0.496337890625, 0.368896484375, 0, 
18, 1021771622, 0.5490053296089172, -0.5478483438491821, -0.4630662202835083, -0.4289849102497101, 9.631866455078125, -2.1047613620758057, -0.2810725271701813, 1.6444979906082153, -1.0431910753250122, 1.8908299207687378, -0.96484375, 0.4951171875, 0.373046875, 0, 
19, 1021779955, 0.5490156412124634, -0.5479178428649902, -0.46306270360946655, -0.4288867115974426, 9.578234672546387, -2.1392087936401367, -0.2114502489566803, 1.3338485956192017, -1.2028957605361938, 1.562225103378296, -0.96435546875, 0.496337890625, 0.37060546875, 0, 
20, 1021788288, 0.5490124225616455, -0.5480033159255981, -0.4630633592605591, -0.42878079414367676, 9.558324813842773, -2.0496017932891846, -0.17971815168857574, 1.0939711332321167, -1.4503803253173828, 1.6194469928741455, -0.962890625, 0.4951171875, 0.369873046875, 0, 
21, 1021796621, 0.5490125417709351, -0.5480840802192688, -0.463029146194458, -0.4287143349647522, 9.580792427062988, -2.103987455368042, -0.2569299042224884, 0.7908011674880981, -0.8624313473701477, 1.5655806064605713, -0.962890625, 0.496337890625, 0.3720703125, 0, 
22, 1021804954, 0.5489577651023865, -0.5481919050216675, -0.4629722535610199, -0.4287082254886627, 9.583128929138184, -2.123443126678467, -0.3096751868724823, -0.1644946187734604, -0.7860752940177917, 1.127679467201233, -0.965576171875, 0.497314453125, 0.3720703125, 0, 
23, 1021813287, 0.5488900542259216, -0.5483084917068481, -0.4628928303718567, -0.4287315607070923, 9.628149032592773, -2.1649863719940186, -0.43081602454185486, -0.8287741541862488, -0.4876437485218048, 1.0568816661834717, -0.9599609375, 0.497802734375, 0.37255859375, 0, 
24, 1021821620, 0.5488165616989136, -0.5484168529510498, -0.46282365918159485, -0.4287615418434143, 9.658605575561523, -2.2175028324127197, -0.41176772117614746, -0.814148485660553, -0.49712106585502625, 0.8476133942604065, -0.962890625, 0.497314453125, 0.3720703125, 0, 
25, 1021829953, 0.5487362146377563, -0.5485069155693054, -0.4627610445022583, -0.42881685495376587, 9.600081443786621, -2.2427878379821777, -0.396932989358902, -0.8282874822616577, -0.2975093424320221, 0.44657135009765625, -0.962890625, 0.49365234375, 0.37158203125, 0, 
26, 1021838286, 0.548652172088623, -0.54859459400177, -0.4627114236354828, -0.4288657307624817, 9.573265075683594, -2.256664752960205, -0.4599921703338623, -0.613486647605896, -0.4754258394241333, 0.35822793841362, -0.96337890625, 0.498779296875, 0.37451171875, 0, 
27, 1021846619, 0.548617422580719, -0.54861980676651, -0.4627445638179779, -0.42884212732315063, 9.610767364501953, -2.310232162475586, -0.4686615467071533, 1.072493553161621, -0.9438205361366272, 0.1749708205461502, -0.96240234375, 0.496826171875, 0.37353515625, 0, 
28, 1021854952, 0.5486202836036682, -0.5485925078392029, -0.46279776096343994, -0.4288160502910614, 9.606491088867188, -2.227473020553589, -0.3644365668296814, 1.983976125717163, -0.5836331248283386, -0.06850526481866837, -0.96240234375, 0.498779296875, 0.3740234375, 0, 
29, 1021863285, 0.5486392974853516, -0.5485568046569824, -0.46286261081695557, -0.4287675619125366, 9.619783401489258, -2.1423637866973877, -0.35048678517341614, 2.2815749645233154, -0.6686595678329468, 0.05206092819571495, -0.9658203125, 0.49658203125, 0.375, 0, 
30, 1021871618, 0.5486525297164917, -0.5485179424285889, -0.46291783452033997, -0.42874038219451904, 9.590785026550293, -2.0419726371765137, -0.3111780285835266, 2.2376723289489746, -0.48697781562805176, -0.09108421206474304, -0.96484375, 0.496826171875, 0.37353515625, 0, 
31, 1021879951, 0.5486365556716919, -0.5485014319419861, -0.46296045184135437, -0.42873600125312805, 9.623842239379883, -1.879974603652954, -0.2972865104675293, 1.4608309268951416, -0.5033836960792542, -0.19573117792606354, -0.962890625, 0.496826171875, 0.373046875, 0, 
32, 1021888284, 0.5486076474189758, -0.5485162734985352, -0.4629473388195038, -0.4287681579589844, 9.66568660736084, -1.8368499279022217, -0.2492835819721222, 0.5479653477668762, -0.06799298524856567, 0.07522900402545929, -0.9609375, 0.4951171875, 0.373046875, 0, 
33, 1021896617, 0.5485572814941406, -0.5485401749610901, -0.4629114866256714, -0.4288407266139984, 9.60871410369873, -1.942283272743225, -0.2752913236618042, -0.05614640191197395, 0.21081794798374176, -0.1306069791316986, -0.9619140625, 0.497314453125, 0.3740234375, 0, 
34, 1021904950, 0.5484716296195984, -0.5485915541648865, -0.4628506004810333, -0.42895054817199707, 9.574358940124512, -2.0189900398254395, -0.3084951937198639, -0.9349963665008545, 0.3007238805294037, -0.25296616554260254, -0.9638671875, 0.494140625, 0.37451171875, 0, 
35, 1021913283, 0.5483858585357666, -0.5486586093902588, -0.46280303597450256, -0.4290257692337036, 9.628993034362793, -2.0578296184539795, -0.27757319808006287, -0.7337709069252014, -0.1597815752029419, 0.003521957201883197, -0.96533203125, 0.49658203125, 0.37353515625, 0, 
36, 1021921616, 0.5483357906341553, -0.5486924052238464, -0.46281567215919495, -0.42903274297714233, 9.645645141601562, -2.051915168762207, -0.23957011103630066, 0.8401084542274475, -0.7601537108421326, 0.05892554298043251, -0.96240234375, 0.49609375, 0.373046875, 0, 
37, 1021929949, 0.5483330488204956, -0.5486952066421509, -0.4628702998161316, -0.42897361516952515, 9.679478645324707, -1.9280861616134644, -0.14887948334217072, 1.8345171213150024, -1.0384395122528076, 0.3261716663837433, -0.96337890625, 0.49560546875, 0.37158203125, 0, 
38, 1021938282, 0.5483459234237671, -0.5486912131309509, -0.462962806224823, -0.4288625419139862, 9.668185234069824, -1.8633084297180176, -0.24007757008075714, 2.575498342514038, -1.576171875, 0.4847109317779541, -0.9609375, 0.49560546875, 0.3740234375, 0, 
39, 1021946615, 0.5483909845352173, -0.5486586093902588, -0.46310076117515564, -0.4286978244781494, 9.654549598693848, -1.7565864324569702, -0.3309488594532013, 3.625323534011841, -1.9496017694473267, 0.5496174097061157, -0.965087890625, 0.498291015625, 0.3740234375, 0, 
40, 1021954948, 0.5484486222267151, -0.5486214756965637, -0.46323999762535095, -0.4285210967063904, 9.643526077270508, -1.823993444442749, -0.2910613715648651, 3.8705801963806152, -1.9466564655303955, 0.6790462136268616, -0.96337890625, 0.499267578125, 0.37353515625, 0, 
41, 1021963281, 0.548513650894165, -0.5485802292823792, -0.4633808732032776, -0.42833828926086426, 9.61987018585205, -1.9509799480438232, -0.37019211053848267, 3.973702907562256, -1.928572654724121, 0.7278156876564026, -0.9619140625, 0.49462890625, 0.37255859375, 0, 
42, 1021971614, 0.5486168265342712, -0.5484968423843384, -0.46355780959129333, -0.4281213879585266, 9.600601196289062, -2.082824468612671, -0.41853731870651245, 4.816692352294922, -1.9245511293411255, 0.6790717840194702, -0.9638671875, 0.49462890625, 0.37158203125, 0, 
43, 1021979947, 0.5487272143363953, -0.5484075546264648, -0.4637255370616913, -0.42791277170181274, 9.579981803894043, -2.2210919857025146, -0.38491687178611755, 5.001473426818848, -1.7537809610366821, 0.6809927821159363, -0.962890625, 0.497802734375, 0.375, 0, 
44, 1021988280, 0.5488399863243103, -0.5483158230781555, -0.46388864517211914, -0.4277087152004242, 9.54267406463623, -2.2542474269866943, -0.4211997091770172, 4.524486064910889, -1.5567052364349365, 0.6988461017608643, -0.962890625, 0.498291015625, 0.37158203125, 0, 
45, 1021996613, 0.5489389896392822, -0.5482217073440552, -0.4640379548072815, -0.42754027247428894, 9.508210182189941, -2.2147443294525146, -0.4348009526729584, 4.588162899017334, -1.356094479560852, 0.41844695806503296, -0.96044921875, 0.496337890625, 0.37353515625, 0, 
46, 1022004946, 0.5490223169326782, -0.5481261014938354, -0.46419164538383484, -0.42738884687423706, 9.564334869384766, -2.1668944358825684, -0.3660354018211365, 4.199543476104736, -1.3098863363265991, 0.1658649742603302, -0.96484375, 0.496826171875, 0.3740234375, 0, 
47, 1022013279, 0.5490768551826477, -0.5480586290359497, -0.46429532766342163, -0.42729276418685913, 9.660083770751953, -2.108889102935791, -0.3291594386100769, 3.3204376697540283, -0.9069489240646362, 0.1253688931465149, -0.961181640625, 0.49609375, 0.376220703125, 0, 
48, 1022021612, 0.5491151213645935, -0.5480083227157593, -0.4643656015396118, -0.4272318482398987, 9.705836296081543, -2.084965467453003, -0.3086371123790741, 2.5214524269104004, -0.5643328428268433, 0.13246402144432068, -0.963134765625, 0.500732421875, 0.37109375, 0, 
49, 1022029945, 0.5491266250610352, -0.5479738116264343, -0.4644036591053009, -0.42722004652023315, 9.66926383972168, -2.0908877849578857, -0.2701684236526489, 1.8223376274108887, -0.24605035781860352, -0.05947626009583473, -0.9638671875, 0.498779296875, 0.373046875, 0, 
50, 1022038278, 0.5491092205047607, -0.5479606986045837, -0.4644182324409485, -0.427243173122406, 9.607784271240234, -2.080984115600586, -0.3167707324028015, 0.9296557903289795, -0.07812341302633286, -0.1714104562997818, -0.96142578125, 0.498779296875, 0.3720703125, 0, 
51, 1022046611, 0.5490663051605225, -0.5479644536972046, -0.46442607045173645, -0.42728474736213684, 9.616103172302246, -2.1036152839660645, -0.3600955605506897, 0.6061223745346069, -0.1872144341468811, -0.3097529113292694, -0.96240234375, 0.496826171875, 0.375, 0, 
52, 1022054944, 0.5490469336509705, -0.5479394197463989, -0.464437335729599, -0.42732957005500793, 9.564373970031738, -2.124422788619995, -0.34870848059654236, 1.064335584640503, 0.11914461851119995, -0.40473055839538574, -0.9619140625, 0.497802734375, 0.375732421875, 0, 
53, 1022063277, 0.5490228533744812, -0.5479068160057068, -0.4644673466682434, -0.42736971378326416, 9.554252624511719, -2.1071345806121826, -0.3927554488182068, 1.1611829996109009, -0.031736038625240326, -0.5888456702232361, -0.96240234375, 0.499755859375, 0.37451171875, 0, 
54, 1022071610, 0.549027144908905, -0.5478574633598328, -0.4645025432109833, -0.4273894131183624, 9.610438346862793, -2.0529017448425293, -0.41914230585098267, 1.413841724395752, 0.11309963464736938, -0.40029922127723694, -0.9609375, 0.500244140625, 0.3740234375, 0, 
55, 1022079943, 0.5490273237228394, -0.5478148460388184, -0.4645364284515381, -0.4274069368839264, 9.627290725708008, -1.96816885471344, -0.33305084705352783, 1.588146686553955, -0.016751710325479507, -0.36664214730262756, -0.962890625, 0.498779296875, 0.37158203125, 0, 
56, 1022088276, 0.5490484237670898, -0.5477482080459595, -0.46457749605178833, -0.4274206757545471, 9.633050918579102, -1.8644731044769287, -0.3459150493144989, 1.7124780416488647, 0.23799465596675873, -0.4116719961166382, -0.9619140625, 0.494140625, 0.37255859375, 0, 
57, 1022096609, 0.5490623712539673, -0.5477004647254944, -0.4645811915397644, -0.4274598956108093, 9.66451358795166, -1.8570001125335693, -0.28481897711753845, 1.4155579805374146, 0.4921647608280182, -0.2559886872768402, -0.96142578125, 0.498291015625, 0.37353515625, 0, 
58, 1022104942, 0.5490744113922119, -0.5476509928703308, -0.46458396315574646, -0.4275047779083252, 9.627276420593262, -1.9623395204544067, -0.30217185616493225, 1.5081276893615723, 0.5140392184257507, -0.31523436307907104, -0.964599609375, 0.498779296875, 0.3740234375, 0, 
59, 1022113275, 0.5490747690200806, -0.547605574131012, -0.46458369493484497, -0.4275629222393036, 9.586112022399902, -2.03688645362854, -0.25275298953056335, 1.1518850326538086, 0.5646529793739319, -0.4340844452381134, -0.962890625, 0.49609375, 0.3740234375, 0, 
60, 1022121608, 0.5490785837173462, -0.5475814938545227, -0.4645722508430481, -0.4276010990142822, 9.635859489440918, -1.9965587854385376, -0.253089040517807, 1.0379527807235718, 0.4051531255245209, -0.037319935858249664, -0.96142578125, 0.495849609375, 0.37158203125, 0, 
61, 1022129941, 0.54911208152771, -0.5475506782531738, -0.46456995606422424, -0.4275999963283539, 9.71297836303711, -1.8752895593643188, -0.22525963187217712, 1.6562035083770752, 0.25915199518203735, 0.31734755635261536, -0.96435546875, 0.496337890625, 0.37109375, 0, 
62, 1022138274, 0.5491490364074707, -0.5475282669067383, -0.46454647183418274, -0.42760688066482544, 9.702530860900879, -1.8119724988937378, -0.2129472941160202, 1.5230607986450195, 0.439220130443573, 0.4904741942882538, -0.965576171875, 0.498291015625, 0.37353515625, 0, 
63, 1022146607, 0.5491443276405334, -0.5475393533706665, -0.4644923806190491, -0.42765748500823975, 9.678576469421387, -1.756537914276123, -0.2546197474002838, 0.4159623980522156, 0.5513848066329956, 0.3599696457386017, -0.96337890625, 0.497314453125, 0.373046875, 0, 
64, 1022154940, 0.5491319894790649, -0.5475801825523376, -0.4644204378128052, -0.4276992082595825, 9.664013862609863, -1.749499797821045, -0.2873726189136505, 0.07857166230678558, 0.3942158818244934, 0.7089635729789734, -0.96484375, 0.49658203125, 0.37255859375, 0, 
65, 1022163273, 0.549112856388092, -0.5476331114768982, -0.4643598794937134, -0.42772185802459717, 9.633198738098145, -1.8466851711273193, -0.31118443608283997, 0.13220787048339844, 0.05070338025689125, 0.8016871213912964, -0.96337890625, 0.496826171875, 0.37158203125, 0, 
66, 1022171606, 0.549101710319519, -0.547700047492981, -0.4642963707447052, -0.42771923542022705, 9.621684074401855, -1.9172625541687012, -0.29370322823524475, 0.4362744987010956, -0.19341309368610382, 1.1479403972625732, -0.96337890625, 0.497802734375, 0.37353515625, 0, 
67, 1022179939, 0.5491142272949219, -0.5477480888366699, -0.4642632305622101, -0.42767760157585144, 9.610960006713867, -1.9677542448043823, -0.2681600749492645, 0.979962170124054, -0.41028881072998047, 1.235899567604065, -0.9638671875, 0.497314453125, 0.373046875, 0, 
68, 1022188272, 0.5491465330123901, -0.5477787256240845, -0.4642539918422699, -0.4276067614555359, 9.591983795166016, -1.9557671546936035, -0.20806321501731873, 1.6442416906356812, -0.5935074090957642, 1.2831834554672241, -0.9619140625, 0.498779296875, 0.3701171875, 0, 
69, 1022196605, 0.549174964427948, -0.5478145480155945, -0.4642416834831238, -0.4275377094745636, 9.588303565979004, -1.9799144268035889, -0.24076232314109802, 1.4902491569519043, -0.6009612679481506, 1.3017539978027344, -0.9638671875, 0.497802734375, 0.37451171875, 0, 
70, 1022204938, 0.5491992235183716, -0.54786217212677, -0.46421563625335693, -0.4274739921092987, 9.617209434509277, -1.9911887645721436, -0.29410991072654724, 1.0214829444885254, -0.5010656714439392, 1.4270333051681519, -0.9609375, 0.497802734375, 0.3740234375, 0, 
71, 1022213271, 0.5492194294929504, -0.5479085445404053, -0.46417903900146484, -0.427428275346756, 9.610782623291016, -2.0801563262939453, -0.3486557602882385, 1.0561901330947876, -0.35721608996391296, 1.326215386390686, -0.96240234375, 0.498779296875, 0.37353515625, 0, 
72, 1022221604, 0.5492212176322937, -0.547971785068512, -0.4641149342060089, -0.42741453647613525, 9.628827095031738, -2.136761426925659, -0.3897867798805237, 0.5128225684165955, -0.1407630294561386, 1.2946202754974365, -0.965087890625, 0.499755859375, 0.3740234375, 0, 
73, 1022229937, 0.5492050647735596, -0.5480484962463379, -0.4640403985977173, -0.4274178445339203, 9.620393753051758, -2.1182212829589844, -0.4200649857521057, 0.016431530937552452, -0.11096086353063583, 1.22260582447052, -0.9609375, 0.4951171875, 0.3720703125, 0, 
74, 1022238270, 0.5492051839828491, -0.5481055378913879, -0.46396803855895996, -0.4274231195449829, 9.634478569030762, -2.1384353637695312, -0.4014819264411926, 0.2816157042980194, 0.11110173910856247, 1.1647688150405884, -0.962890625, 0.496826171875, 0.37451171875, 0, 
75, 1022246603, 0.5491952896118164, -0.5481455326080322, -0.46389663219451904, -0.42746207118034363, 9.595596313476562, -2.1296589374542236, -0.4088207483291626, 0.13379594683647156, 0.38945162296295166, 0.7331433892250061, -0.96337890625, 0.497314453125, 0.373046875, 0, 
76, 1022254936, 0.549203097820282, -0.5481656193733215, -0.4638260006904602, -0.4275030791759491, 9.624357223510742, -2.133685827255249, -0.4135130047798157, 0.31601566076278687, 0.6502045392990112, 0.6943379640579224, -0.9599609375, 0.496826171875, 0.373046875, 0, 
77, 1022263269, 0.5492228865623474, -0.548169732093811, -0.4637725353240967, -0.4275304079055786, 9.571791648864746, -2.183004856109619, -0.3571414351463318, 0.8068612217903137, 0.5674193501472473, 0.6309426426887512, -0.96484375, 0.497314453125, 0.3740234375, 0, 
78, 1022271602, 0.5492458939552307, -0.5481545925140381, -0.46375495195388794, -0.4275391101837158, 9.613471031188965, -2.2066092491149902, -0.32127708196640015, 1.3430951833724976, 0.28194868564605713, 0.397571325302124, -0.9619140625, 0.501220703125, 0.375244140625, 0, 
79, 1022279935, 0.5492926239967346, -0.5480940341949463, -0.4637441039085388, -0.4275684654712677, 9.653444290161133, -2.1139793395996094, -0.28907108306884766, 1.7356078624725342, 0.8128293752670288, 0.040150318294763565, -0.9619140625, 0.498291015625, 0.37451171875, 0, 
80, 1022288268, 0.5493446588516235, -0.5480284094810486, -0.463752806186676, -0.42757633328437805, 9.660974502563477, -2.0020751953125, -0.23425455391407013, 1.5661696195602417, 0.6776885986328125, 0.07396110147237778, -0.962890625, 0.497802734375, 0.37158203125, 0, 
81, 1022296601, 0.5493722558021545, -0.5479912757873535, -0.4637415409088135, -0.4276007413864136, 9.652425765991211, -1.9627901315689087, -0.2648840844631195, 1.4436053037643433, 0.5188546776771545, 0.11804318428039551, -0.9619140625, 0.498291015625, 0.37353515625, 0, 
82, 1022304934, 0.5493474006652832, -0.5480043292045593, -0.463700532913208, -0.4276605248451233, 9.589580535888672, -1.9685624837875366, -0.24245992302894592, 0.38359877467155457, 0.3600849211215973, 0.085602767765522, -0.967041015625, 0.498779296875, 0.37451171875, 0, 
83, 1022313267, 0.5493205189704895, -0.5480181574821472, -0.4636537432670593, -0.42772799730300903, 9.625500679016113, -1.9873313903808594, -0.36886492371559143, 0.1638670563697815, 0.4636048674583435, 0.06374102085828781, -0.956787109375, 0.497314453125, 0.37060546875, 0, 
84, 1022321600, 0.5493075847625732, -0.5480222105979919, -0.4636188745498657, -0.4277770519256592, 9.620466232299805, -2.0658984184265137, -0.3770621120929718, 0.5023078918457031, 0.3904505670070648, 0.1366647481918335, -0.96240234375, 0.497802734375, 0.37353515625, 0, 
85, 1022329933, 0.5493104457855225, -0.548011302947998, -0.4635944664478302, -0.4278137683868408, 9.588693618774414, -2.1159324645996094, -0.3536151051521301, 0.9044514298439026, 0.3993130922317505, 0.14509183168411255, -0.96240234375, 0.499755859375, 0.37353515625, 0, 
86, 1022338266, 0.5493284463882446, -0.5479767918586731, -0.46360597014427185, -0.4278225600719452, 9.557342529296875, -2.0916268825531006, -0.3404180705547333, 1.551774263381958, 0.16040915250778198, 0.02775302343070507, -0.96337890625, 0.496826171875, 0.369873046875, 0, 
87, 1022346599, 0.5493528842926025, -0.5479373931884766, -0.46363943815231323, -0.4278053045272827, 9.616170883178711, -2.031074285507202, -0.33274295926094055, 1.9649320840835571, -0.1399305760860443, 0.061666276305913925, -0.96142578125, 0.496337890625, 0.3720703125, 0, 
88, 1022354932, 0.5493960380554199, -0.5478918552398682, -0.4636715352535248, -0.42777350544929504, 9.661856651306152, -1.9826643466949463, -0.2971310317516327, 2.3384644985198975, -0.10209834575653076, 0.25338882207870483, -0.965576171875, 0.497314453125, 0.37353515625, 0, 
89, 1022363265, 0.5494443774223328, -0.5478377938270569, -0.4637068808078766, -0.42774227261543274, 9.668261528015137, -1.9592076539993286, -0.26055529713630676, 2.358187198638916, -0.02077314257621765, 0.20046980679035187, -0.96630859375, 0.494140625, 0.37451171875, 0, 
90, 1022371598, 0.5494498014450073, -0.5478177666664124, -0.4637400209903717, -0.4277251362800598, 9.633520126342773, -1.8993372917175293, -0.2263016402721405, 1.583074927330017, -0.3495318591594696, 0.08095378428697586, -0.96240234375, 0.499267578125, 0.373046875, 0, 
91, 1022379931, 0.549450159072876, -0.5478175282478333, -0.4637521505355835, -0.42771199345588684, 9.65418529510498, -1.9008538722991943, -0.29999756813049316, 1.336038589477539, -0.3321782052516937, 0.3003525137901306, -0.96435546875, 0.498779296875, 0.375, 0, 
92, 1022388264, 0.5494497418403625, -0.5478282570838928, -0.4637303352355957, -0.42772233486175537, 9.63609504699707, -1.9947493076324463, -0.25967714190483093, 0.9797059893608093, 0.01620100438594818, 0.4430622160434723, -0.965576171875, 0.498291015625, 0.375, 0, 
93, 1022396597, 0.5494329929351807, -0.5478525161743164, -0.46370476484298706, -0.4277404546737671, 9.579459190368652, -1.9970738887786865, -0.27699416875839233, 0.6037145853042603, -0.06308785825967789, 0.4036162793636322, -0.96044921875, 0.498291015625, 0.375732421875, 0, 
94, 1022404930, 0.5494332313537598, -0.5478620529174805, -0.46369871497154236, -0.42773449420928955, 9.610359191894531, -2.0183463096618652, -0.267530620098114, 1.1800605058670044, -0.21382762491703033, 0.443369597196579, -0.965087890625, 0.49609375, 0.3720703125, 0, 
95, 1022413263, 0.5494585633277893, -0.5478519201278687, -0.4637107253074646, -0.4277019202709198, 9.642051696777344, -1.9962201118469238, -0.24194343388080597, 1.723415493965149, -0.25939539074897766, 0.531559407711029, -0.9619140625, 0.499755859375, 0.37158203125, 0, 
96, 1022421596, 0.5494899749755859, -0.5478332042694092, -0.4637306332588196, -0.4276641011238098, 9.633755683898926, -1.9753743410110474, -0.23524749279022217, 1.593653678894043, -0.1966404914855957, 0.5073795914649963, -0.963134765625, 0.500244140625, 0.36962890625, 0, 
97, 1022429929, 0.5494840741157532, -0.5478618741035461, -0.46371960639953613, -0.42764684557914734, 9.62691879272461, -1.937254548072815, -0.21900574862957, 0.9612254500389099, -0.3978531062602997, 0.6535471677780151, -0.9609375, 0.496826171875, 0.37353515625, 0, 
98, 1022438262, 0.5494787096977234, -0.5478954911231995, -0.46370622515678406, -0.42762500047683716, 9.645071983337402, -1.8951886892318726, -0.3258263170719147, 0.8215382099151611, -0.4127222001552582, 0.7466421723365784, -0.9619140625, 0.497802734375, 0.373046875, 0, 
99, 1022446595, 0.5494686961174011, -0.5479471683502197, -0.4636639952659607, -0.4276174008846283, 9.619407653808594, -1.9314106702804565, -0.28635692596435547, 0.5120670199394226, -0.2504560053348541, 0.9375705718994141, -0.96142578125, 0.497314453125, 0.37255859375, 0, 
100, 1022454928, 0.5494295358657837, -0.5480108857154846, -0.4636053442955017, -0.42764967679977417, 9.576312065124512, -1.9769384860992432, -0.32074064016342163, -0.22543087601661682, -0.06644332408905029, 0.6712082028388977, -0.9619140625, 0.4951171875, 0.37353515625, 0, 
101, 1022463261, 0.5493754744529724, -0.5480934381484985, -0.46354639530181885, -0.427677184343338, 9.623462677001953, -2.008603572845459, -0.36186978220939636, -0.37437763810157776, -0.3234821557998657, 0.7352182269096375, -0.96142578125, 0.496826171875, 0.373046875, 0, 
102, 1022471594, 0.5493566393852234, -0.5481505990028381, -0.4635070860385895, -0.42767083644866943, 9.624199867248535, -2.047100782394409, -0.2904626429080963, 0.4226732850074768, -0.3515297472476959, 0.8927969336509705, -0.963134765625, 0.50146484375, 0.37353515625, 0, 
103, 1022479927, 0.5493379235267639, -0.5481911897659302, -0.4634833037853241, -0.4276686906814575, 9.609601020812988, -2.1130571365356445, -0.2904912531375885, 0.6035352945327759, -0.3376724421977997, 0.6353738307952881, -0.96240234375, 0.49609375, 0.37255859375, 0, 
104, 1022488260, 0.5493212342262268, -0.5482274293899536, -0.4634578227996826, -0.4276712238788605, 9.59086799621582, -2.15388560295105, -0.32230710983276367, 0.8007906079292297, -0.2943843901157379, 0.593212902545929, -0.96044921875, 0.499267578125, 0.373046875, 0, 
105, 1022496593, 0.5493242144584656, -0.5482467412948608, -0.4634576439857483, -0.42764291167259216, 9.608306884765625, -2.1720752716064453, -0.3121643662452698, 1.2338759899139404, -0.4495810270309448, 0.6481810212135315, -0.9638671875, 0.49658203125, 0.37353515625, 0, 
106, 1022504926, 0.5493559837341309, -0.5482415556907654, -0.4634842574596405, -0.4275796115398407, 9.60455322265625, -2.0674333572387695, -0.3263764977455139, 1.8060853481292725, -0.5446739196777344, 0.7318499088287354, -0.96142578125, 0.496337890625, 0.3740234375, 0, 
107, 1022513259, 0.5493926405906677, -0.5482290387153625, -0.4634995758533478, -0.4275319576263428, 9.580146789550781, -1.992704153060913, -0.304348886013031, 1.9433649778366089, -0.3124680519104004, 0.6720790863037109, -0.9638671875, 0.498291015625, 0.37255859375, 0, 
108, 1022521592, 0.5494029521942139, -0.5482399463653564, -0.46348854899406433, -0.4275168180465698, 9.57656192779541, -1.978218913078308, -0.36994504928588867, 1.3211950063705444, -0.19807486236095428, 0.6178537607192993, -0.96240234375, 0.498291015625, 0.376220703125, 0, 
109, 1022529925, 0.5494031310081482, -0.548245906829834, -0.4634956121444702, -0.42750129103660583, 9.566276550292969, -2.046128034591675, -0.3133161962032318, 1.2740904092788696, -0.348686546087265, 0.39498427510261536, -0.95947265625, 0.497802734375, 0.37255859375, 0, 
110, 1022538258, 0.5493875741958618, -0.5482653379440308, -0.4634832739830017, -0.427509605884552, 9.614322662353516, -2.1250667572021484, -0.34913742542266846, 0.7362171411514282, -0.18854635953903198, 0.35817664861679077, -0.96044921875, 0.498291015625, 0.3701171875, 0, 
111, 1022546591, 0.5493889451026917, -0.54827481508255, -0.46347594261169434, -0.42750370502471924, 9.629486083984375, -2.132927656173706, -0.30021196603775024, 1.1103771924972534, -0.18015772104263306, 0.46010854840278625, -0.964599609375, 0.498779296875, 0.37255859375, 0, 
112, 1022554924, 0.5494124889373779, -0.548253059387207, -0.4635109603404999, -0.4274632930755615, 9.605070114135742, -2.1170194149017334, -0.262084037065506, 1.8033573627471924, -0.3947409689426422, 0.34098947048187256, -0.967041015625, 0.49658203125, 0.3720703125, 0, 
113, 1022563257, 0.5494234561920166, -0.5482370257377625, -0.46353620290756226, -0.42744237184524536, 9.585140228271484, -2.080373525619507, -0.278931587934494, 1.6634011268615723, -0.3284769356250763, 0.22160154581069946, -0.958251953125, 0.498291015625, 0.37353515625, 0, 
114, 1022571590, 0.5494365692138672, -0.5482248067855835, -0.4635638892650604, -0.4274113178253174, 9.616003036499023, -1.9816237688064575, -0.311384916305542, 1.4296457767486572, -0.36666780710220337, 0.32864347100257874, -0.9609375, 0.499267578125, 0.37060546875, 0, 
115, 1022579923, 0.5494456887245178, -0.5482195019721985, -0.4635792672634125, -0.42738956212997437, 9.631525039672852, -1.9944201707839966, -0.30874553322792053, 1.5141725540161133, -0.33595630526542664, 0.35909876227378845, -0.96240234375, 0.500244140625, 0.373046875, 0, 
116, 1022588256, 0.5494472980499268, -0.5482177734375, -0.46358340978622437, -0.42738527059555054, 9.64753246307373, -2.0261785984039307, -0.3055122196674347, 1.257261872291565, -0.18780355155467987, 0.2946789562702179, -0.96337890625, 0.499755859375, 0.37451171875, 0, 
117, 1022596589, 0.5494301915168762, -0.5482375621795654, -0.4635652005672455, -0.42740142345428467, 9.622282981872559, -2.031278610229492, -0.3588152229785919, 0.6908031702041626, -0.11037173867225647, 0.3316147029399872, -0.96337890625, 0.499267578125, 0.37158203125, 0, 
118, 1022604922, 0.5494408011436462, -0.5482430458068848, -0.4635562002658844, -0.42739057540893555, 9.625945091247559, -2.0266292095184326, -0.33028966188430786, 1.3699517250061035, -0.15123924612998962, 0.5372074246406555, -0.9638671875, 0.499755859375, 0.375, 0, 
119, 1022613255, 0.5494641661643982, -0.5482267141342163, -0.4635769724845886, -0.42735913395881653, 9.6090669631958, -2.0131847858428955, -0.286685049533844, 1.7998865842819214, -0.29388490319252014, 0.405191570520401, -0.9619140625, 0.5009765625, 0.3720703125, 0, 
120, 1022621588, 0.5494801998138428, -0.5482131838798523, -0.463596910238266, -0.4273342192173004, 9.621381759643555, -1.9782546758651733, -0.3173716366291046, 1.6140553951263428, -0.28602135181427, 0.342385470867157, -0.963134765625, 0.501220703125, 0.37353515625, 0, 
121, 1022629921, 0.5495128631591797, -0.5481991767883301, -0.46359503269195557, -0.4273121953010559, 9.60698413848877, -1.965251088142395, -0.31644710898399353, 1.661147117614746, -0.0072744423523545265, 0.5739509463310242, -0.963623046875, 0.499755859375, 0.369873046875, 0, 
122, 1022638254, 0.5495367646217346, -0.5481958985328674, -0.46359121799468994, -0.42729002237319946, 9.626738548278809, -1.9458577632904053, -0.31671813130378723, 1.6199849843978882, -0.13450033962726593, 0.6055076718330383, -0.9619140625, 0.498291015625, 0.37109375, 0, 
123, 1022646587, 0.5495548844337463, -0.5481979250907898, -0.4635699987411499, -0.42728716135025024, 9.653412818908691, -1.9987473487854004, -0.25067830085754395, 1.1931495666503906, 0.09888375550508499, 0.593212902545929, -0.9599609375, 0.499755859375, 0.37451171875, 0, 
124, 1022654920, 0.549538254737854, -0.5482312440872192, -0.4635316729545593, -0.4273073673248291, 9.622211456298828, -2.0374300479888916, -0.22565074265003204, 0.4224298894405365, 0.0017161535797640681, 0.5457881093025208, -0.964111328125, 0.498779296875, 0.373046875, 0, 
125, 1022663253, 0.5495248436927795, -0.5482572913169861, -0.46352776885032654, -0.4272955060005188, 9.646330833435059, -2.0335748195648193, -0.2693832218647003, 0.9316152930259705, -0.44303658604621887, 0.4976845681667328, -0.9599609375, 0.498779296875, 0.3740234375, 0, 
126, 1022671586, 0.5495229959487915, -0.5482867360115051, -0.46351271867752075, -0.4272761940956116, 9.67341136932373, -2.059725522994995, -0.19450725615024567, 0.9999669194221497, -0.3659249246120453, 0.729224443435669, -0.96142578125, 0.496826171875, 0.3720703125, 0, 
127, 1022679919, 0.5495322346687317, -0.548292338848114, -0.4635145962238312, -0.42725518345832825, 9.664756774902344, -1.9979177713394165, -0.2002509981393814, 1.350216031074524, -0.29046544432640076, 0.5254376530647278, -0.9638671875, 0.498291015625, 0.376708984375, 0, 
128, 1022688252, 0.549553394317627, -0.5482929348945618, -0.46350404620170593, -0.4272385537624359, 9.615031242370605, -1.9344362020492554, -0.20731773972511292, 1.2290350198745728, -0.026254592463374138, 0.6331710815429688, -0.962890625, 0.499267578125, 0.373046875, 0, 
129, 1022696585, 0.5495396852493286, -0.5483319759368896, -0.4634754955768585, -0.42723703384399414, 9.616003036499023, -1.9410598278045654, -0.2679598033428192, 0.6222081780433655, -0.2572437524795532, 0.6868329048156738, -0.9619140625, 0.499755859375, 0.37109375, 0, 
130, 1022704918, 0.5495157837867737, -0.5483810305595398, -0.4634329676628113, -0.42725104093551636, 9.617097854614258, -2.0218942165374756, -0.3438228666782379, 0.30980411171913147, -0.16128002107143402, 0.6798017621040344, -0.964599609375, 0.497314453125, 0.37109375, 0, 
131, 1022713251, 0.549485445022583, -0.5484378337860107, -0.4633992612361908, -0.4272538423538208, 9.597219467163086, -2.095346689224243, -0.34622621536254883, 0.30452761054039, -0.3955734372138977, 0.7087714672088623, -0.9609375, 0.496826171875, 0.3740234375, 0, 
132, 1022721584, 0.5494793057441711, -0.5484717488288879, -0.46337953209877014, -0.4272393584251404, 9.580382347106934, -2.1061832904815674, -0.37659749388694763, 0.516216516494751, -0.26943618059158325, 0.7439526915550232, -0.9609375, 0.50146484375, 0.3740234375, 0, 
133, 1022729917, 0.5494781732559204, -0.5484920740127563, -0.463370144367218, -0.42722490429878235, 9.599708557128906, -2.105811357498169, -0.41537225246429443, 1.0531421899795532, -0.30824172496795654, 0.5947497487068176, -0.96240234375, 0.498779296875, 0.37451171875, 0, 
134, 1022738250, 0.5494973063468933, -0.5484794974327087, -0.46337535977363586, -0.4272106885910034, 9.603052139282227, -2.040316581726074, -0.38811612129211426, 1.654679536819458, -0.12137304991483688, 0.3901560306549072, -0.9609375, 0.498291015625, 0.37255859375, 0, 
135, 1022746583, 0.5495191216468811, -0.5484672784805298, -0.46338075399398804, -0.4271925091743469, 9.627090454101562, -2.0188112258911133, -0.3409402668476105, 1.5817173719406128, -0.11188297718763351, 0.4379137456417084, -0.96337890625, 0.499267578125, 0.37255859375, 0, 
136, 1022754916, 0.5495275855064392, -0.5484666228294373, -0.4633862376213074, -0.42717671394348145, 9.647168159484863, -2.0144410133361816, -0.3135021924972534, 1.347295880317688, -0.23895518481731415, 0.4183700978755951, -0.958984375, 0.498779296875, 0.373046875, 0, 
137, 1022763249, 0.5495370030403137, -0.5484592914581299, -0.46338775753974915, -0.4271722435951233, 9.638256072998047, -2.0552191734313965, -0.3209194540977478, 1.342659831047058, -0.08711401373147964, 0.32259848713874817, -0.96142578125, 0.498291015625, 0.37158203125, 0, 
138, 1022771582, 0.549546480178833, -0.5484421849250793, -0.4634019732475281, -0.42716658115386963, 9.619071960449219, -2.1489360332489014, -0.2948116958141327, 1.480208158493042, -0.12960803508758545, 0.176315575838089, -0.9609375, 0.499267578125, 0.37451171875, 0, 
139, 1022779915, 0.5495633482933044, -0.5484248995780945, -0.4634169638156891, -0.42715078592300415, 9.603564262390137, -2.223797082901001, -0.28157147765159607, 1.6234558820724487, -0.16668462753295898, 0.287391722202301, -0.962890625, 0.499267578125, 0.37451171875, 0, 
140, 1022788248, 0.5495893955230713, -0.5484010577201843, -0.4634363055229187, -0.42712709307670593, 9.586542129516602, -2.2312541007995605, -0.31926393508911133, 1.9257421493530273, -0.18583126366138458, 0.32423779368400574, -0.96240234375, 0.496826171875, 0.375, 0, 
141, 1022796581, 0.5496380925178528, -0.5483596920967102, -0.46348807215690613, -0.4270612597465515, 9.613755226135254, -2.0775909423828125, -0.32460927963256836, 2.581620454788208, -0.4790118336677551, 0.42167437076568604, -0.962890625, 0.497802734375, 0.375, 0, 
142, 1022804914, 0.549712598323822, -0.5482915639877319, -0.46356385946273804, -0.4269706606864929, 9.636750221252441, -1.9474622011184692, -0.30757808685302734, 3.0365805625915527, -0.47253143787384033, 0.4177297353744507, -0.959228515625, 0.498779296875, 0.3740234375, 0, 
143, 1022813247, 0.549739420413971, -0.5482742786407471, -0.4635785222053528, -0.4269423484802246, 9.662477493286133, -1.8327393531799316, -0.27012068033218384, 1.7776790857315063, -0.19675573706626892, 0.44258832931518555, -0.962890625, 0.50146484375, 0.375244140625, 0, 
144, 1022821580, 0.5497183799743652, -0.5482997894287109, -0.4635527729988098, -0.42696473002433777, 9.636910438537598, -1.818545937538147, -0.24212373793125153, 0.6632164716720581, -0.0917757898569107, 0.35310497879981995, -0.96435546875, 0.499267578125, 0.375732421875, 0, 
145, 1022829913, 0.5496729612350464, -0.5483492612838745, -0.463506281375885, -0.42701008915901184, 9.587462425231934, -1.9893841743469238, -0.3143676221370697, -0.1004590392112732, -0.031915340572595596, 0.3472393751144409, -0.9619140625, 0.5009765625, 0.37158203125, 0, 
146, 1022838246, 0.5496192574501038, -0.5483995676040649, -0.4634549915790558, -0.4270703196525574, 9.547664642333984, -2.142677068710327, -0.2774301767349243, -0.4104937016963959, 0.08569242060184479, 0.23422938585281372, -0.9638671875, 0.500732421875, 0.375244140625, 0, 
147, 1022846579, 0.5495839715003967, -0.548435389995575, -0.46342337131500244, -0.4271039664745331, 9.548101425170898, -2.1865954399108887, -0.26798802614212036, 0.24032554030418396, -0.08578206598758698, 0.29726600646972656, -0.964599609375, 0.499755859375, 0.3701171875, 0, 
148, 1022854912, 0.5495940446853638, -0.5484289526939392, -0.46342793107032776, -0.42709407210350037, 9.605295181274414, -2.184206247329712, -0.2516654133796692, 1.419784426689148, -0.15693841874599457, 0.35200363397598267, -0.96142578125, 0.500244140625, 0.376220703125, 0, 
149, 1022863245, 0.5496070384979248, -0.5484124422073364, -0.46345430612564087, -0.42707008123397827, 9.617753982543945, -2.1055259704589844, -0.26968249678611755, 1.709404468536377, -0.34517747163772583, 0.24511542916297913, -0.9619140625, 0.499755859375, 0.373046875, 0, 
150, 1022871578, 0.5496262907981873, -0.5483890175819397, -0.463496595621109, -0.4270295202732086, 9.661867141723633, -2.0308961868286133, -0.2610410451889038, 1.6573561429977417, -0.4337514340877533, 0.2561039328575134, -0.9580078125, 0.5009765625, 0.373046875, 0, 
151, 1022879911, 0.5496202707290649, -0.5483895540237427, -0.4635191857814789, -0.4270121455192566, 9.671895027160645, -1.9615956544876099, -0.29772278666496277, 1.371975064277649, -0.4888860583305359, 0.22005188465118408, -0.96240234375, 0.498291015625, 0.369873046875, 0, 
152, 1022888244, 0.5496270656585693, -0.5483777523040771, -0.46355491876602173, -0.4269796311855316, 9.678760528564453, -1.9442009925842285, -0.274577260017395, 1.581538200378418, -0.5117723941802979, 0.24073538184165955, -0.95947265625, 0.50048828125, 0.3701171875, 0, 
153, 1022896577, 0.5496383905410767, -0.5483688712120056, -0.4635932147502899, -0.42693501710891724, 9.704061508178711, -1.9659740924835205, -0.20845505595207214, 1.837501049041748, -0.6467081904411316, 0.34875059127807617, -0.965087890625, 0.498291015625, 0.37255859375, 0, 
154, 1022904910, 0.5496376156806946, -0.5483889579772949, -0.4635792374610901, -0.4269252419471741, 9.643806457519531, -1.9278271198272705, -0.29386740922927856, 1.1315984725952148, -0.26333990693092346, 0.5923675894737244, -0.9609375, 0.498291015625, 0.3720703125, 0, 
155, 1022913243, 0.5496277213096619, -0.5484183430671692, -0.463534951210022, -0.4269484281539917, 9.566555976867676, -1.9083999395370483, -0.38574567437171936, 0.47254419326782227, 0.12900610268115997, 0.5793811678886414, -0.964111328125, 0.497802734375, 0.37158203125, 0, 
156, 1022921576, 0.5496052503585815, -0.5484325289726257, -0.46352291107177734, -0.4269721508026123, 9.556334495544434, -1.9075344800949097, -0.43663814663887024, 0.7576306462287903, -0.11777423322200775, 0.16069090366363525, -0.9599609375, 0.499267578125, 0.37255859375, 0, 
157, 1022929909, 0.5495766401290894, -0.5484821796417236, -0.46349433064460754, -0.4269762635231018, 9.659749984741211, -1.9820671081542969, -0.4314308762550354, 0.39319127798080444, -0.37217482924461365, 0.6237962245941162, -0.96142578125, 0.500732421875, 0.375244140625, 0, 
158, 1022938242, 0.5495721101760864, -0.5485246777534485, -0.4634464681148529, -0.426979660987854, 9.697473526000977, -2.019848346710205, -0.36219850182533264, 0.477282851934433, -0.024410365149378777, 0.8760708570480347, -0.95849609375, 0.50244140625, 0.373046875, 0, 
159, 1022946575, 0.5495904684066772, -0.548528254032135, -0.46343618631362915, -0.4269624352455139, 9.58614730834961, -2.029090166091919, -0.3484296202659607, 1.3378698825836182, -0.10002358257770538, 0.6300205588340759, -0.95947265625, 0.500244140625, 0.37353515625, 0, 
160, 1022954908, 0.5496113300323486, -0.5485315322875977, -0.4634369909763336, -0.42693066596984863, 9.565610885620117, -2.0467050075531006, -0.3079927861690521, 1.7466217279434204, -0.3265814781188965, 0.6637031435966492, -0.960205078125, 0.496337890625, 0.37353515625, 0, 
161, 1022963241, 0.5496246218681335, -0.5485517382621765, -0.46344611048698425, -0.4268776476383209, 9.640746116638184, -2.0728838443756104, -0.3562418520450592, 1.516554832458496, -0.6479633450508118, 0.8300677537918091, -0.966552734375, 0.497314453125, 0.375, 0, 
162, 1022971574, 0.5496413111686707, -0.5485734343528748, -0.46342840790748596, -0.4268474578857422, 9.628495216369629, -2.0293426513671875, -0.33697932958602905, 1.535022497177124, -0.32537761330604553, 0.8822182416915894, -0.9619140625, 0.497802734375, 0.37353515625, 0, 
163, 1022979907, 0.5496361255645752, -0.5486088991165161, -0.46339768171310425, -0.4268418252468109, 9.622233390808105, -2.0340969562530518, -0.3225431442260742, 0.7255871891975403, -0.19551344215869904, 0.7615240216255188, -0.96240234375, 0.50146484375, 0.375, 0, 
164, 1022988240, 0.5496200323104858, -0.5486475229263306, -0.4633643329143524, -0.4268490672111511, 9.62969970703125, -2.0394399166107178, -0.3076218068599701, 0.5661898255348206, -0.17576487362384796, 0.640752911567688, -0.962890625, 0.498779296875, 0.376220703125, 0, 
165, 1022996573, 0.5496188998222351, -0.5486785173416138, -0.4633192718029022, -0.4268594980239868, 9.598657608032227, -2.106440544128418, -0.2778662145137787, 0.6037914752960205, 0.08407872170209885, 0.7436964511871338, -0.96240234375, 0.499267578125, 0.377685546875, 0, 
166, 1023004906, 0.5495989322662354, -0.5487263202667236, -0.4632590413093567, -0.42688918113708496, 9.632755279541016, -2.131675958633423, -0.31594106554985046, 0.13895723223686218, 0.1266111582517624, 0.7111791968345642, -0.96240234375, 0.498779296875, 0.3701171875, 0, 
167, 1023013239, 0.5495921969413757, -0.548748254776001, -0.46321743726730347, -0.4269148111343384, 9.612776756286621, -2.169593095779419, -0.329452782869339, 0.5531906485557556, 0.19121026992797852, 0.5110296010971069, -0.963623046875, 0.50146484375, 0.375, 0, 
168, 1023021572, 0.5496199131011963, -0.5487467646598816, -0.46318474411964417, -0.4269164800643921, 9.605574607849121, -2.1642212867736816, -0.3561042845249176, 0.9107140898704529, 0.36267194151878357, 0.690739095211029, -0.9619140625, 0.499755859375, 0.3740234375, 0, 
169, 1023029905, 0.5496330857276917, -0.5487475395202637, -0.4631573557853699, -0.42692816257476807, 9.548408508300781, -2.1132001876831055, -0.4386481046676636, 1.0369795560836792, 0.22926020622253418, 0.49154993891716003, -0.964599609375, 0.499267578125, 0.37158203125, 0, 
170, 1023038238, 0.5496614575386047, -0.5487222671508789, -0.46313387155532837, -0.42694973945617676, 9.569231033325195, -2.0959970951080322, -0.4492913484573364, 1.3112822771072388, 0.5267951488494873, 0.31427380442619324, -0.9619140625, 0.501953125, 0.37353515625, 0, 
171, 1023046571, 0.5497161149978638, -0.5486651659011841, -0.46315157413482666, -0.4269336760044098, 9.611822128295898, -2.169543504714966, -0.38063809275627136, 2.2266452312469482, 0.2843436300754547, 0.23636814951896667, -0.9619140625, 0.501953125, 0.3720703125, 0, 
172, 1023054904, 0.5497665405273438, -0.548599123954773, -0.46317896246910095, -0.42692387104034424, 9.59510326385498, -2.1757028102874756, -0.31805795431137085, 2.3315742015838623, 0.27400827407836914, 0.03454079478979111, -0.9619140625, 0.498291015625, 0.373046875, 0, 
173, 1023063237, 0.5498292446136475, -0.5485204458236694, -0.46321791410446167, -0.42690202593803406, 9.610737800598145, -2.122253179550171, -0.2014629989862442, 2.6120500564575195, 0.25579655170440674, 0.029110580682754517, -0.9609375, 0.498779296875, 0.37255859375, 0, 
174, 1023071570, 0.5499042868614197, -0.5484236478805542, -0.463288813829422, -0.4268527626991272, 9.634343147277832, -2.0313284397125244, -0.18828152120113373, 3.156480312347412, 0.005929695442318916, -0.04418455436825752, -0.9609375, 0.5009765625, 0.3720703125, 0, 
175, 1023079903, 0.5500102639198303, -0.5483086109161377, -0.46335533261299133, -0.42679187655448914, 9.635923385620117, -1.9919071197509766, -0.15930858254432678, 3.6243631839752197, 0.24333523213863373, 0.13941827416419983, -0.963623046875, 0.501953125, 0.37109375, 0, 
176, 1023088236, 0.5500624775886536, -0.5482460260391235, -0.46337583661079407, -0.42678260803222656, 9.598194122314453, -1.892699956893921, -0.1531936079263687, 2.321789503097534, 0.3107134699821472, 0.11307403445243835, -0.96337890625, 0.500732421875, 0.3740234375, 0, 
177, 1023096569, 0.5501023530960083, -0.5482093691825867, -0.4633796215057373, -0.4267743229866028, 9.643054008483887, -1.8676435947418213, -0.22111737728118896, 1.8293558359146118, 0.23489533364772797, 0.32674798369407654, -0.96240234375, 0.499755859375, 0.375, 0, 
178, 1023104902, 0.5501172542572021, -0.5482038259506226, -0.4633457064628601, -0.4267989993095398, 9.673625946044922, -1.884330153465271, -0.23615796864032745, 1.0339313745498657, 0.41311919689178467, 0.41268375515937805, -0.9599609375, 0.5009765625, 0.369384765625, 0, 
179, 1023113235, 0.5501073002815247, -0.5482258796691895, -0.46329379081726074, -0.4268398582935333, 9.64502239227295, -1.8907970190048218, -0.30882418155670166, 0.3704330623149872, 0.36379897594451904, 0.45583099126815796, -0.958984375, 0.499267578125, 0.36962890625, 0, 
180, 1023121568, 0.5501015782356262, -0.5482587814331055, -0.4632306396961212, -0.42687323689460754, 9.592985153198242, -1.9520752429962158, -0.34681275486946106, 0.17499646544456482, 0.38370123505592346, 0.6976805925369263, -0.962158203125, 0.500244140625, 0.368896484375, 0, 
181, 1023129901, 0.5500799417495728, -0.5482912063598633, -0.463165819644928, -0.4269298017024994, 9.567872047424316, -2.0105998516082764, -0.32674187421798706, 0.030544975772500038, 0.4448296129703522, 0.43222740292549133, -0.964111328125, 0.500732421875, 0.373046875, 0, 
182, 1023138234, 0.5500279068946838, -0.5483515858650208, -0.4630998373031616, -0.4269910454750061, 9.533609390258789, -2.0663418769836426, -0.33029013872146606, -0.43275249004364014, 0.12688010931015015, 0.40574225783348083, -0.9609375, 0.501953125, 0.373046875, 0, 
183, 1023146567, 0.5500020980834961, -0.5484040975570679, -0.46304064989089966, -0.4270210564136505, 9.54684829711914, -2.1091156005859375, -0.35718435049057007, 0.047002118080854416, 0.05722219869494438, 0.6940176486968994, -0.96044921875, 0.498779296875, 0.37451171875, 0, 
184, 1023154900, 0.5500034689903259, -0.5484294295310974, -0.4629972577095032, -0.4270337224006653, 9.582413673400879, -2.1654086112976074, -0.2791537046432495, 0.7124727368354797, 0.12982574105262756, 0.693492591381073, -0.96240234375, 0.498779296875, 0.369873046875, 0, 
185, 1023163233, 0.5500138998031616, -0.5484508872032166, -0.46296149492263794, -0.4270314574241638, 9.566305160522461, -2.112191677093506, -0.3104119300842285, 0.8990468382835388, 0.04870546609163284, 0.7758935689926147, -0.96142578125, 0.498779296875, 0.3740234375, 0, 
186, 1023171566, 0.5500292181968689, -0.5484517216682434, -0.4629476070404053, -0.42702576518058777, 9.585875511169434, -2.077028274536133, -0.30871671438217163, 1.142817497253418, 0.03205621615052223, 0.539884090423584, -0.962890625, 0.499267578125, 0.3740234375, 0, 
187, 1023179899, 0.5500499606132507, -0.5484486222267151, -0.4629411995410919, -0.42701005935668945, 9.63339900970459, -2.0679008960723877, -0.3514474630355835, 1.4192205667495728, -0.06408680975437164, 0.5608876347541809, -0.96142578125, 0.498291015625, 0.3740234375, 0, 
188, 1023188232, 0.5500572919845581, -0.5484567284584045, -0.46291911602020264, -0.42701393365859985, 9.646459579467773, -2.0675363540649414, -0.26614299416542053, 1.1467877626419067, 0.024730542674660683, 0.52162104845047, -0.958984375, 0.499267578125, 0.37060546875, 0, 
189, 1023196565, 0.5500536561012268, -0.548469066619873, -0.46289464831352234, -0.42702925205230713, 9.65063762664795, -2.0965054035186768, -0.23743146657943726, 0.8166970610618591, 0.05984766036272049, 0.41747361421585083, -0.96240234375, 0.499755859375, 0.37353515625, 0, 
190, 1023204898, 0.5500331521034241, -0.548494815826416, -0.46286121010780334, -0.4270589351654053, 9.594823837280273, -2.0623292922973633, -0.28555625677108765, 0.450285404920578, 0.05011425167322159, 0.3634275794029236, -0.96142578125, 0.499267578125, 0.37255859375, 0, 
191, 1023213231, 0.5500186681747437, -0.5485058426856995, -0.4628264307975769, -0.4271010756492615, 9.5714693069458, -2.1093661785125732, -0.2792755961418152, 0.5133733153343201, 0.2789774239063263, 0.2200646996498108, -0.96044921875, 0.498291015625, 0.37158203125, 0, 
192, 1023221564, 0.5499953627586365, -0.5485172271728516, -0.4628051817417145, -0.427139550447464, 9.57433032989502, -2.1807444095611572, -0.2931235134601593, 0.5390899777412415, 0.09373529255390167, 0.0985763818025589, -0.9619140625, 0.50244140625, 0.373046875, 0, 
193, 1023229897, 0.5499793291091919, -0.5485166311264038, -0.46279066801071167, -0.42717665433883667, 9.578149795532227, -2.2279670238494873, -0.2844756543636322, 0.7404434680938721, 0.14708973467350006, 0.02316807582974434, -0.96142578125, 0.5009765625, 0.3720703125, 0, 
194, 1023238230, 0.549985945224762, -0.5484906435012817, -0.46280282735824585, -0.4271884858608246, 9.62048053741455, -2.198805332183838, -0.3364339768886566, 1.3900587558746338, 0.05599271133542061, -0.013639579527080059, -0.964599609375, 0.498779296875, 0.3720703125, 0, 
195, 1023246563, 0.5499994158744812, -0.5484517216682434, -0.462833434343338, -0.4271880090236664, 9.594843864440918, -2.142474412918091, -0.28452739119529724, 1.7566497325897217, -0.06632806360721588, -0.10449326783418655, -0.963623046875, 0.501220703125, 0.37158203125, 0, 
196, 1023254896, 0.5500088930130005, -0.5484124422073364, -0.46286916732788086, -0.4271872043609619, 9.559488296508789, -2.078444719314575, -0.30396002531051636, 1.6230460405349731, -0.09819217771291733, -0.1591796576976776, -0.9609375, 0.500244140625, 0.37451171875, 0, 
197, 1023263229, 0.5499969720840454, -0.5483806133270264, -0.4629043936729431, -0.4272052049636841, 9.560940742492676, -2.074589490890503, -0.30463942885398865, 1.4229347705841064, -0.16372618079185486, -0.38303524255752563, -0.961181640625, 0.5029296875, 0.36962890625, 0, 
198, 1023271562, 0.5499932169914246, -0.5483402013778687, -0.4629403352737427, -0.42722299695014954, 9.608945846557617, -2.0907366275787354, -0.34624701738357544, 1.6717513799667358, -0.09436284005641937, -0.3962778151035309, -0.96240234375, 0.501953125, 0.373046875, 0, 
199, 1023279895, 0.550014317035675, -0.5482763051986694, -0.46299004554748535, -0.42722415924072266, 9.615272521972656, -2.1104793548583984, -0.3280179500579834, 2.1049137115478516, -0.0008452697657048702, -0.374198317527771, -0.95947265625, 0.498779296875, 0.37109375, 0, 
200, 1023288228, 0.5500447154045105, -0.5481983423233032, -0.46305277943611145, -0.42721712589263916, 9.635995864868164, -2.1116411685943604, -0.324571430683136, 2.390781879425049, -0.015816790983080864, -0.44441983103752136, -0.962890625, 0.496826171875, 0.37109375, 0, 
201, 1023296561, 0.5500805377960205, -0.5481172800064087, -0.4631202816963196, -0.42720165848731995, 9.61844253540039, -2.065636157989502, -0.31095874309539795, 2.5570178031921387, -0.0676087737083435, -0.40733036398887634, -0.9609375, 0.497802734375, 0.3720703125, 0, 
202, 1023304894, 0.5501168370246887, -0.5480438470840454, -0.46319323778152466, -0.4271702766418457, 9.642414093017578, -2.028359889984131, -0.3145786225795746, 2.8994674682617188, -0.32624852657318115, -0.28165414929389954, -0.964111328125, 0.500244140625, 0.37255859375, 0, 
203, 1023313227, 0.5501695871353149, -0.547944962978363, -0.4632837176322937, -0.4271310567855835, 9.608607292175293, -1.9842647314071655, -0.2614476978778839, 3.1047914028167725, -0.2078339159488678, -0.413567453622818, -0.96044921875, 0.50146484375, 0.3720703125, 0, 
204, 1023321560, 0.5502073764801025, -0.5478614568710327, -0.4633783996105194, -0.42708656191825867, 9.606555938720703, -1.963106393814087, -0.26119348406791687, 2.966653823852539, -0.4730437099933624, -0.39571434259414673, -0.963623046875, 0.500244140625, 0.3720703125, 0, 
205, 1023329893, 0.5502338409423828, -0.5477930307388306, -0.46344757080078125, -0.42706525325775146, 9.67140007019043, -1.9231270551681519, -0.24215582013130188, 2.436387300491333, -0.25790974497795105, -0.3495062589645386, -0.9619140625, 0.499755859375, 0.375, 0, 
206, 1023338226, 0.5502739548683167, -0.5477172136306763, -0.4634990394115448, -0.4270550012588501, 9.685056686401367, -1.9286742210388184, -0.22182774543762207, 2.4236316680908203, 0.09107141196727753, -0.26503047347068787, -0.96728515625, 0.500732421875, 0.3701171875, 0, 
207, 1023346559, 0.5503041744232178, -0.5476626753807068, -0.4635410010814667, -0.42704033851623535, 9.631122589111328, -1.9339408874511719, -0.28400158882141113, 2.15793514251709, -0.05875905230641365, -0.08291327208280563, -0.963623046875, 0.498779296875, 0.3701171875, 0, 
208, 1023354892, 0.5503214597702026, -0.5476169586181641, -0.4635934829711914, -0.42702001333236694, 9.624008178710938, -1.9337633848190308, -0.19316914677619934, 1.8948769569396973, -0.27338072657585144, -0.13214382529258728, -0.96142578125, 0.497314453125, 0.369873046875, 0, 
209, 1023363225, 0.5503324866294861, -0.547581672668457, -0.46362337470054626, -0.4270184636116028, 9.641364097595215, -1.951330304145813, -0.28061020374298096, 1.7127342224121094, -0.10399378836154938, -0.08255467563867569, -0.9619140625, 0.50146484375, 0.37109375, 0, 
210, 1023371558, 0.550348699092865, -0.5475437045097351, -0.4636441469192505, -0.4270237386226654, 9.62783432006836, -2.021200180053711, -0.28650712966918945, 1.6065247058868408, 0.08104342967271805, -0.048193179070949554, -0.963623046875, 0.499755859375, 0.37158203125, 0, 
211, 1023379891, 0.5503647923469543, -0.5475164651870728, -0.4636615812778473, -0.4270189106464386, 9.582771301269531, -2.0334889888763428, -0.25816041231155396, 1.6381840705871582, -0.051753561943769455, 0.11659599840641022, -0.96337890625, 0.497802734375, 0.373046875, 0, 
212, 1023388224, 0.5503690838813782, -0.5475070476531982, -0.4636619985103607, -0.42702507972717285, 9.58917236328125, -2.0068302154541016, -0.26620736718177795, 1.2800841331481934, -0.02476896345615387, 0.20787231624126434, -0.9619140625, 0.50244140625, 0.37353515625, 0, 
213, 1023396557, 0.5503501296043396, -0.547520637512207, -0.4636598825454712, -0.42703431844711304, 9.612383842468262, -1.975379228591919, -0.3016926050186157, 0.8607022762298584, -0.25926730036735535, 0.21281586587429047, -0.9609375, 0.500244140625, 0.3720703125, 0, 
214, 1023404890, 0.5503096580505371, -0.5475495457649231, -0.4636393189430237, -0.4270716607570648, 9.656002044677734, -1.979563593864441, -0.32121986150741577, 0.791774332523346, -0.24389874935150146, 0.09673215448856354, -0.9609375, 0.498779296875, 0.37060546875, 0, 
215, 1023413223, 0.5502929091453552, -0.5475506782531738, -0.463637113571167, -0.4270941913127899, 9.657818794250488, -2.032487392425537, -0.29403191804885864, 0.8860988020896912, -0.07285968959331512, 0.04502982273697853, -0.96240234375, 0.498291015625, 0.37158203125, 0, 
216, 1023421556, 0.5502728819847107, -0.547560453414917, -0.4636220335960388, -0.42712363600730896, 9.604522705078125, -2.1113686561584473, -0.34269970655441284, 0.6694408655166626, 0.011154999025166035, 0.12990258634090424, -0.962646484375, 0.500732421875, 0.37109375, 0, 
217, 1023429889, 0.5502452254295349, -0.5475730895996094, -0.4636206328868866, -0.42714446783065796, 9.596375465393066, -2.135509967803955, -0.2745548188686371, 0.7325542569160461, -0.22778740525245667, 0.0617431104183197, -0.9609375, 0.49560546875, 0.373046875, 0, 
218, 1023438222, 0.5502400994300842, -0.5475677251815796, -0.46364790201187134, -0.4271286427974701, 9.623163223266602, -2.1200597286224365, -0.2991032898426056, 1.4389948844909668, -0.4693552255630493, 0.14406725764274597, -0.96240234375, 0.498291015625, 0.369873046875, 0, 
219, 1023446555, 0.5502561330795288, -0.5475344657897949, -0.46368345618247986, -0.42711201310157776, 9.632768630981445, -2.12941837310791, -0.27639564871788025, 1.8635765314102173, -0.24151666462421417, 0.03200498968362808, -0.96142578125, 0.499267578125, 0.3720703125, 0, 
220, 1023454888, 0.5502586364746094, -0.547507643699646, -0.463702917098999, -0.4271220564842224, 9.59112548828125, -2.1089587211608887, -0.30747923254966736, 1.6180639266967773, -0.07779042422771454, -0.09159650653600693, -0.962890625, 0.500244140625, 0.3720703125, 0, 
221, 1023463221, 0.5502535700798035, -0.5474918484687805, -0.46373245120048523, -0.4271166920661926, 9.610759735107422, -2.069746494293213, -0.30895987153053284, 1.4666070938110352, -0.3476363718509674, -0.021029286086559296, -0.96240234375, 0.498779296875, 0.3701171875, 0, 
222, 1023471554, 0.5502451658248901, -0.5474768877029419, -0.46376049518585205, -0.42711639404296875, 9.63177490234375, -2.0248982906341553, -0.26967647671699524, 1.3467838764190674, -0.31328773498535156, -0.05904081463813782, -0.962158203125, 0.50244140625, 0.37109375, 0, 
223, 1023479887, 0.55022132396698, -0.5474740266799927, -0.4637645483016968, -0.4271462857723236, 9.641037940979004, -2.016958713531494, -0.2901693880558014, 0.853171706199646, -0.08737014979124069, -0.12399850785732269, -0.963623046875, 0.497802734375, 0.3701171875, 0, 
224, 1023488220, 0.5501894354820251, -0.5474709272384644, -0.4637666940689087, -0.4271891415119171, 9.629622459411621, -2.0197627544403076, -0.334724098443985, 0.5848625898361206, 0.003009672276675701, -0.2505072057247162, -0.962646484375, 0.499755859375, 0.3701171875, 0, 
225, 1023496553, 0.5501503944396973, -0.5474693775177002, -0.46378371119499207, -0.4272230863571167, 9.667016983032227, -2.0486600399017334, -0.29219362139701843, 0.7792746424674988, -0.2569875717163086, -0.33290818333625793, -0.963623046875, 0.498779296875, 0.37109375, 0, 
226, 1023504886, 0.5501222610473633, -0.5474662780761719, -0.4638051390647888, -0.42723971605300903, 9.652568817138672, -2.0123164653778076, -0.2617797553539276, 1.1033332347869873, -0.36391422152519226, -0.1822836995124817, -0.962890625, 0.500732421875, 0.3740234375, 0, 
227, 1023513219, 0.5501143932342529, -0.5474446415901184, -0.46384283900260925, -0.4272366166114807, 9.613506317138672, -2.0165295600891113, -0.26253074407577515, 1.5236499309539795, -0.3760938048362732, -0.1539415419101715, -0.966064453125, 0.497314453125, 0.373046875, 0, 
228, 1023521552, 0.5501238107681274, -0.5474139451980591, -0.46389079093933105, -0.42721182107925415, 9.573522567749023, -1.9700431823730469, -0.28335273265838623, 1.5545662641525269, -0.37091973423957825, -0.00858076848089695, -0.96337890625, 0.497314453125, 0.37158203125, 0, 
229, 1023529885, 0.5501207709312439, -0.54739910364151, -0.46392130851745605, -0.42720168828964233, 9.640522956848145, -2.0319509506225586, -0.3418129086494446, 1.5119186639785767, -0.3843671977519989, 0.025703884661197662, -0.96142578125, 0.498291015625, 0.37109375, 0, 
230, 1023538218, 0.5500949025154114, -0.5473998785018921, -0.46391189098358154, -0.4272441267967224, 9.630595207214355, -1.9374977350234985, -0.24264588952064514, 0.6574404835700989, 0.07528022676706314, -0.10446765273809433, -0.96142578125, 0.496826171875, 0.3740234375, 0, 
231, 1023546551, 0.5500702857971191, -0.5474222302436829, -0.4638948440551758, -0.42726585268974304, 9.65241813659668, -1.88430917263031, -0.29742950201034546, 0.5848114490509033, -0.13972565531730652, 0.25382423400878906, -0.958984375, 0.497314453125, 0.3701171875, 0, 
232, 1023554884, 0.5500509738922119, -0.5474341511726379, -0.46390342712402344, -0.42726609110832214, 9.65889835357666, -1.8681581020355225, -0.22767499089241028, 0.8820005059242249, -0.3745185136795044, 0.1924397349357605, -0.963134765625, 0.50146484375, 0.37255859375, 0, 
233, 1023563217, 0.5500279664993286, -0.5474528670310974, -0.46389132738113403, -0.42728477716445923, 9.65718936920166, -1.8674640655517578, -0.21080835163593292, 0.6728346943855286, -0.16850325465202332, 0.22599439322948456, -0.9609375, 0.497314453125, 0.368408203125, 0, 
234, 1023571550, 0.5499764680862427, -0.5475050806999207, -0.4638557434082031, -0.4273228943347931, 9.653312683105469, -1.8875207901000977, -0.256357878446579, -0.18946851789951324, -0.19505241513252258, 0.30730679631233215, -0.962890625, 0.500244140625, 0.3720703125, 0, 
235, 1023579883, 0.5499395728111267, -0.5475630760192871, -0.46382468938827515, -0.42732980847358704, 9.64786148071289, -1.9087647199630737, -0.2985668182373047, 0.2349337786436081, -0.4345839321613312, 0.6255764961242676, -0.963134765625, 0.50341796875, 0.3701171875, 0, 
236, 1023588216, 0.5499317646026611, -0.5475925207138062, -0.4638160467147827, -0.42731136083602905, 9.64098834991455, -1.9710803031921387, -0.29461801052093506, 0.8259822726249695, -0.4087647795677185, 0.6454018950462341, -0.962890625, 0.498291015625, 0.375732421875, 0, 
237, 1023596549, 0.5499086976051331, -0.5476431846618652, -0.463788241147995, -0.42730626463890076, 9.62764835357666, -2.0231029987335205, -0.3039815127849579, 0.4897826313972473, -0.4172303080558777, 0.7271753549575806, -0.962646484375, 0.500244140625, 0.37109375, 0, 
238, 1023604882, 0.5498977899551392, -0.5476818680763245, -0.46378278732299805, -0.42727676033973694, 9.607892036437988, -2.0669641494750977, -0.3405039310455322, 0.9862633347511292, -0.6284196376800537, 0.7394957542419434, -0.965087890625, 0.497314453125, 0.37158203125, 0, 
239, 1023613215, 0.5498898029327393, -0.5477145910263062, -0.46379536390304565, -0.4272313714027405, 9.585553169250488, -2.0551834106445312, -0.318937748670578, 1.2326977252960205, -0.8246501684188843, 0.7011511921882629, -0.964111328125, 0.498779296875, 0.37353515625, 0, 
240, 1023621548, 0.5498912930488586, -0.5477508902549744, -0.4638063907623291, -0.42717111110687256, 9.593853950500488, -2.039973258972168, -0.3086489737033844, 1.4117670059204102, -0.8951151371002197, 0.9044771194458008, -0.962646484375, 0.50146484375, 0.37109375, 0, 
241, 1023629881, 0.5498977899551392, -0.547776460647583, -0.4638134241104126, -0.4271222949028015, 9.60429573059082, -2.0174174308776855, -0.3095078468322754, 1.385230541229248, -0.6737824082374573, 0.8084748387336731, -0.96240234375, 0.500732421875, 0.375732421875, 0, 
242, 1023638214, 0.5498908758163452, -0.5478151440620422, -0.46380913257598877, -0.4270859360694885, 9.639643669128418, -1.9668673276901245, -0.3013639450073242, 1.0890661478042603, -0.6678271293640137, 0.8053627610206604, -0.96142578125, 0.499755859375, 0.3701171875, 0, 
243, 1023646547, 0.5498756766319275, -0.5478569269180298, -0.4637860357761383, -0.42707693576812744, 9.651610374450684, -2.0025742053985596, -0.2608928084373474, 0.6698250770568848, -0.38016653060913086, 0.710884690284729, -0.964599609375, 0.50146484375, 0.37158203125, 0, 
244, 1023654880, 0.5498554706573486, -0.5479110479354858, -0.4637499451637268, -0.4270731508731842, 9.592692375183105, -2.0597612857818604, -0.24685890972614288, 0.12188531458377838, -0.28103935718536377, 0.8297603130340576, -0.9619140625, 0.49560546875, 0.37451171875, 0, 
245, 1023663213, 0.5497967004776001, -0.54799485206604, -0.46368759870529175, -0.4271089434623718, 9.572592735290527, -2.1418330669403076, -0.3308189809322357, -0.4940216541290283, -0.2707168161869049, 0.6790717840194702, -0.96142578125, 0.500244140625, 0.37158203125, 0, 
246, 1023671546, 0.5497384667396545, -0.5480723977088928, -0.46361082792282104, -0.42716750502586365, 9.557465553283691, -2.255849599838257, -0.3217563331127167, -0.028559869155287743, -0.08900945633649826, 0.5598118901252747, -0.96240234375, 0.499267578125, 0.37109375, 0, 
247, 1023679879, 0.5496963858604431, -0.5481181740760803, -0.4635610282421112, -0.4272170662879944, 9.55858039855957, -2.305203914642334, -0.3534577488899231, -0.09354318678379059, 0.06778807193040848, 0.3371985852718353, -0.964599609375, 0.500732421875, 0.37353515625, 0, 
248, 1023688212, 0.5496656894683838, -0.5481463670730591, -0.46353328227996826, -0.42725053429603577, 9.592527389526367, -2.280712366104126, -0.45515647530555725, 0.48581230640411377, -0.07146371155977249, 0.2443469762802124, -0.96337890625, 0.499267578125, 0.37158203125, 0, 
249, 1023696545, 0.5496731996536255, -0.5481308102607727, -0.46353891491889954, -0.427254855632782, 9.59831428527832, -2.2142341136932373, -0.3946366608142853, 1.358105182647705, -0.0158552099019289, 0.16120319068431854, -0.96337890625, 0.498779296875, 0.37353515625, 0, 
250, 1023704878, 0.5496906042098999, -0.5480821132659912, -0.4635692238807678, -0.4272617697715759, 9.560456275939941, -2.081878185272217, -0.3738401234149933, 1.714988350868225, 0.09808972477912903, -0.1918250173330307, -0.96240234375, 0.497314453125, 0.37451171875, 0, 
251, 1023713211, 0.5496960878372192, -0.5480371713638306, -0.4636034071445465, -0.4272751212120056, 9.593728065490723, -2.0213074684143066, -0.3567984104156494, 1.6759649515151978, -0.003624414326623082, -0.3218812644481659, -0.96240234375, 0.499755859375, 0.3720703125, 0, 
252, 1023721544, 0.5497158765792847, -0.5479812026023865, -0.4636584520339966, -0.4272618293762207, 9.599166870117188, -2.0072438716888428, -0.24477359652519226, 2.0564770698547363, -0.18173301219940186, -0.25831955671310425, -0.96337890625, 0.496826171875, 0.37158203125, 0, 
253, 1023729877, 0.5497347116470337, -0.5479286909103394, -0.46367666125297546, -0.42728495597839355, 9.620376586914062, -2.1783902645111084, -0.34503933787345886, 1.677617073059082, 0.3220093548297882, -0.24482084810733795, -0.96240234375, 0.497314453125, 0.37255859375, 0, 
254, 1023738210, 0.5497093200683594, -0.5479052662849426, -0.4636659622192383, -0.4273594915866852, 9.625688552856445, -2.130338668823242, -0.30989670753479004, 0.4835454821586609, 0.5057274103164673, -0.4832509458065033, -0.9609375, 0.499267578125, 0.37255859375, 0, 
255, 1023746543, 0.5497071146965027, -0.5478713512420654, -0.4636966288089752, -0.4273724853992462, 9.693196296691895, -2.0346405506134033, -0.4097863733768463, 1.514838695526123, -0.09336388856172562, -0.2677968144416809, -0.964111328125, 0.499755859375, 0.37158203125, 0, 
256, 1023754876, 0.5497333407402039, -0.5478067994117737, -0.4637555778026581, -0.4273577332496643, 9.64553451538086, -1.9581668376922607, -0.29061201214790344, 2.1205127239227295, -0.1136503592133522, -0.29177170991897583, -0.962890625, 0.496337890625, 0.37158203125, 0, 
257, 1023763209, 0.5497282147407532, -0.5477555990219116, -0.46377843618392944, -0.42740511894226074, 9.595860481262207, -1.9768741130828857, -0.29517635703086853, 1.3581820726394653, 0.3083569407463074, -0.5952748656272888, -0.962890625, 0.498291015625, 0.376708984375, 0, 
258, 1023771542, 0.5496881604194641, -0.5477437973022461, -0.46381404995918274, -0.4274330735206604, 9.642797470092773, -1.993647575378418, -0.36267808079719543, 1.0717380046844482, -0.40483298897743225, -0.5006045699119568, -0.96337890625, 0.498291015625, 0.37353515625, 0, 
259, 1023779875, 0.5497053265571594, -0.5476995706558228, -0.46387481689453125, -0.42740169167518616, 9.696393013000488, -2.0030276775360107, -0.29962432384490967, 2.19830322265625, -0.4709177017211914, -0.1097826212644577, -0.9619140625, 0.496337890625, 0.37158203125, 0, 
260, 1023788208, 0.5497465133666992, -0.5476381778717041, -0.4639599323272705, -0.4273351728916168, 9.672869682312012, -1.9099340438842773, -0.19716563820838928, 2.956023693084717, -0.6803909540176392, 0.0017801893409341574, -0.964111328125, 0.498291015625, 0.37255859375, 0, 
261, 1023796541, 0.5497887134552002, -0.5475744009017944, -0.4640352129936218, -0.42728090286254883, 9.656834602355957, -1.853829264640808, -0.22154033184051514, 2.7670416831970215, -0.4790630638599396, -0.024333523586392403, -0.9609375, 0.498779296875, 0.373046875, 0, 
262, 1023804874, 0.5498355031013489, -0.5475083589553833, -0.46413668990135193, -0.4271949529647827, 9.676874160766602, -1.8356544971466064, -0.24184635281562805, 3.1249749660491943, -0.8601515889167786, 0.03428465500473976, -0.9599609375, 0.497314453125, 0.37353515625, 0, 
263, 1023813207, 0.5498667359352112, -0.5474853515625, -0.4641933739185333, -0.42712271213531494, 9.735219955444336, -1.754440426826477, -0.15434709191322327, 2.3808560371398926, -0.782591700553894, 0.4473654329776764, -0.964111328125, 0.498291015625, 0.37255859375, 0, 
264, 1023821540, 0.5498590469360352, -0.5475130081176758, -0.4642060697078705, -0.42708343267440796, 9.738653182983398, -1.7187495231628418, -0.14155475795269012, 1.3236027956008911, -0.7650459408760071, 0.6231558918952942, -0.962890625, 0.500244140625, 0.37353515625, 0, 
265, 1023829873, 0.5498448014259338, -0.5475589036941528, -0.4641819894313812, -0.42706912755966187, 9.68437671661377, -1.754034399986267, -0.2337048351764679, 0.6731036901473999, -0.43175357580184937, 0.789392352104187, -0.96142578125, 0.499755859375, 0.3720703125, 0, 
266, 1023838206, 0.5498141646385193, -0.5476206541061401, -0.4641268849372864, -0.4270890951156616, 9.599730491638184, -1.85727858543396, -0.20530804991722107, 0.08954736590385437, -0.14898519217967987, 0.77004075050354, -0.95947265625, 0.498779296875, 0.37353515625, 0, 
267, 1023846539, 0.5497634410858154, -0.5477073192596436, -0.4640713930130005, -0.42710360884666443, 9.586448669433594, -1.9298158884048462, -0.27736568450927734, -0.2764416038990021, -0.4492608606815338, 0.8531588912010193, -0.96142578125, 0.495849609375, 0.37060546875, 0, 
268, 1023854872, 0.549734354019165, -0.547785758972168, -0.4640217125415802, -0.42709439992904663, 9.615931510925293, -1.9611879587173462, -0.28994762897491455, 0.29106733202934265, -0.5183552503585815, 1.0630803108215332, -0.96044921875, 0.500244140625, 0.37353515625, 0, 
269, 1023863205, 0.5497132539749146, -0.5478540658950806, -0.4639856815338135, -0.42707309126853943, 9.595630645751953, -1.9937618970870972, -0.25200143456459045, 0.42754000425338745, -0.5689689517021179, 1.036902666091919, -0.96142578125, 0.500244140625, 0.373046875, 0, 
270, 1023871538, 0.5497023463249207, -0.547923743724823, -0.4639628827571869, -0.4270224869251251, 9.594780921936035, -2.029569149017334, -0.29623499512672424, 0.6460293531417847, -0.8067202568054199, 1.2325184345245361, -0.9619140625, 0.498779296875, 0.373046875, 0, 
271, 1023879871, 0.5497041344642639, -0.5479880571365356, -0.4639391303062439, -0.42696353793144226, 9.612770080566406, -2.0845181941986084, -0.3068574368953705, 0.9403114318847656, -0.7746769785881042, 1.337178349494934, -0.96337890625, 0.499755859375, 0.375732421875, 0, 
272, 1023888204, 0.5497012138366699, -0.5480544567108154, -0.463915079832077, -0.42690807580947876, 9.605157852172852, -2.114655017852783, -0.29233378171920776, 0.8790420889854431, -0.7916334271430969, 1.2994741201400757, -0.9599609375, 0.497802734375, 0.37353515625, 0, 
273, 1023896537, 0.5496997237205505, -0.5481243133544922, -0.46389085054397583, -0.4268467426300049, 9.592660903930664, -2.0799710750579834, -0.28667524456977844, 0.8871874213218689, -0.8425545692443848, 1.3748055696487427, -0.963134765625, 0.501953125, 0.37353515625, 0, 
274, 1023904870, 0.5497010946273804, -0.5481898784637451, -0.463871031999588, -0.4267823100090027, 9.601021766662598, -2.087592124938965, -0.3758617043495178, 0.9027352333068848, -0.8392248153686523, 1.3585917949676514, -0.964111328125, 0.501708984375, 0.375, 0, 
275, 1023913203, 0.5496817231178284, -0.5482697486877441, -0.46384477615356445, -0.4267330765724182, 9.627803802490234, -2.0319008827209473, -0.37946513295173645, 0.5880900025367737, -0.9093053340911865, 1.2582608461380005, -0.963134765625, 0.499755859375, 0.37158203125, 0, 
276, 1023921536, 0.5496676564216614, -0.5483516454696655, -0.4638054370880127, -0.4266888201236725, 9.647497177124023, -2.0202345848083496, -0.3117852807044983, 0.4715452194213867, -0.7444264888763428, 1.3658150434494019, -0.96240234375, 0.497314453125, 0.37255859375, 0, 
277, 1023929869, 0.5496273636817932, -0.5484573841094971, -0.46375375986099243, -0.42666095495224, 9.64725399017334, -2.021965742111206, -0.28396785259246826, -0.05166390910744667, -0.8416069149971008, 1.3286488056182861, -0.959228515625, 0.4951171875, 0.373046875, 0, 
278, 1023938202, 0.5495977401733398, -0.5485495328903198, -0.4636990427970886, -0.42664027214050293, 9.61800479888916, -2.10597562789917, -0.32060468196868896, 0.03953557088971138, -0.6095675826072693, 1.2787010669708252, -0.9609375, 0.499755859375, 0.37158203125, 0, 
279, 1023946535, 0.5495672225952148, -0.5486261248588562, -0.4636739492416382, -0.4266084134578705, 9.577392578125, -2.1346585750579834, -0.3197108209133148, 0.424543172121048, -0.8393529653549194, 1.0309345722198486, -0.9599609375, 0.499755859375, 0.37353515625, 0, 
280, 1023954868, 0.549556314945221, -0.5486884713172913, -0.4636780023574829, -0.4265378415584564, 9.613285064697266, -2.168578863143921, -0.29043859243392944, 0.9045539498329163, -1.0994142293930054, 1.1362347602844238, -0.956787109375, 0.499755859375, 0.37109375, 0, 
281, 1023963201, 0.5495585203170776, -0.5487443804740906, -0.4636687934398651, -0.4264730215072632, 9.613490104675293, -2.1271719932556152, -0.29874187707901, 1.1323412656784058, -0.8769289255142212, 1.2199931144714355, -0.9599609375, 0.500244140625, 0.375732421875, 0, 
282, 1023971534, 0.5495585799217224, -0.5487852692604065, -0.46367180347442627, -0.42641693353652954, 9.613585472106934, -2.0001423358917236, -0.33535388112068176, 1.065897822380066, -0.7918896079063416, 0.961980938911438, -0.96044921875, 0.499267578125, 0.37451171875, 0, 
283, 1023979867, 0.5495466589927673, -0.5488490462303162, -0.46367156505584717, -0.42635056376457214, 9.620359420776367, -1.9506545066833496, -0.351006418466568, 1.027092456817627, -1.0943682193756104, 1.1310607194900513, -0.96142578125, 0.499267578125, 0.37451171875, 0, 
284, 1023988200, 0.5495262742042542, -0.5489161610603333, -0.46363741159439087, -0.4263276159763336, 9.627676963806152, -1.9659945964813232, -0.3617049753665924, 0.5182144045829773, -0.5951723456382751, 1.031113862991333, -0.96142578125, 0.497802734375, 0.37451171875, 0, 
285, 1023996533, 0.5494967699050903, -0.5489773750305176, -0.46359682083129883, -0.42633089423179626, 9.575825691223145, -2.069153070449829, -0.39462950825691223, 0.23364025354385376, -0.3595726788043976, 0.7900071740150452, -0.96142578125, 0.496826171875, 0.37451171875, 0, 
286, 1024004866, 0.5494778156280518, -0.5490326285362244, -0.4635610580444336, -0.4263231158256531, 9.579639434814453, -2.1475841999053955, -0.36518868803977966, 0.41821640729904175, -0.36874252557754517, 0.8653128147125244, -0.96240234375, 0.499755859375, 0.3740234375, 0, 
287, 1024013199, 0.5494825839996338, -0.5490630269050598, -0.4635385274887085, -0.42630231380462646, 9.59470272064209, -2.1656017303466797, -0.3132370114326477, 0.9832151532173157, -0.2796050012111664, 0.8396986126899719, -0.9609375, 0.500732421875, 0.3720703125, 0, 
288, 1024021532, 0.5495031476020813, -0.5490759611129761, -0.4635171592235565, -0.4262821674346924, 9.55075454711914, -2.181910276412964, -0.35013166069984436, 1.3177499771118164, -0.09565635025501251, 0.808667004108429, -0.96240234375, 0.50341796875, 0.37451171875, 0, 
289, 1024029865, 0.5495169162750244, -0.5490950345993042, -0.46349528431892395, -0.426263689994812, 9.535219192504883, -2.1885409355163574, -0.45559316873550415, 1.1266677379608154, -0.14383672177791595, 0.7983700633049011, -0.9599609375, 0.498291015625, 0.3740234375, 0, 
290, 1024038198, 0.5495162606239319, -0.5491111278533936, -0.46348312497138977, -0.42625707387924194, 9.5664701461792, -2.2068450450897217, -0.43870484828948975, 1.093458890914917, -0.21513395011425018, 0.5314056873321533, -0.958984375, 0.5009765625, 0.375, 0, 
291, 1024046531, 0.5495229363441467, -0.5491149425506592, -0.4634702205657959, -0.42625755071640015, 9.583922386169434, -2.2065377235412598, -0.3783138692378998, 1.1207380294799805, -0.024973880499601364, 0.4476984143257141, -0.9599609375, 0.499267578125, 0.3740234375, 0, 
292, 1024054864, 0.5495247840881348, -0.5491018295288086, -0.4634755551815033, -0.4262663424015045, 9.596397399902344, -2.1705448627471924, -0.373028039932251, 1.163846731185913, -0.006582858040928841, 0.11706985533237457, -0.960693359375, 0.498779296875, 0.378662109375, 0, 
293, 1024063197, 0.549521267414093, -0.5490873456001282, -0.46348702907562256, -0.426277220249176, 9.61301326751709, -2.1532204151153564, -0.31352341175079346, 1.2589523792266846, -0.08642242103815079, 0.01015604380518198, -0.957763671875, 0.50048828125, 0.373046875, 0, 
294, 1024071530, 0.5495285391807556, -0.5490602850914001, -0.4635055959224701, -0.42628249526023865, 9.616518020629883, -2.1268908977508545, -0.29026955366134644, 1.623199462890625, -0.0626908391714096, -0.020350506529211998, -0.9609375, 0.50244140625, 0.376708984375, 0, 
295, 1024079863, 0.549524188041687, -0.5490387678146362, -0.46351930499076843, -0.42630085349082947, 9.602434158325195, -2.0879578590393066, -0.2228611260652542, 1.2716313600540161, -0.01147517655044794, -0.11367597430944443, -0.96044921875, 0.50146484375, 0.375, 0, 
296, 1024088196, 0.5495103001594543, -0.5490303635597229, -0.4635300040245056, -0.4263176918029785, 9.631582260131836, -2.059246301651001, -0.2662931978702545, 1.0955336093902588, -0.137497216463089, -0.05112602189183235, -0.9609375, 0.501220703125, 0.376220703125, 0, 
297, 1024096529, 0.5494990348815918, -0.5490117073059082, -0.4635523557662964, -0.4263320565223694, 9.64516544342041, -2.055483818054199, -0.28509074449539185, 1.2733604907989502, -0.1675427258014679, -0.17028343677520752, -0.9619140625, 0.5029296875, 0.375244140625, 0, 
298, 1024104862, 0.549475908279419, -0.5490009188652039, -0.46357691287994385, -0.4263491630554199, 9.591161727905273, -2.0537028312683105, -0.26049938797950745, 1.0772836208343506, -0.2765953540802002, -0.22585351765155792, -0.958251953125, 0.500244140625, 0.375732421875, 0, 
299, 1024113195, 0.5494545102119446, -0.5489774942398071, -0.4636254608631134, -0.4263540804386139, 9.568572998046875, -2.0926358699798584, -0.30823013186454773, 1.4460643529891968, -0.47281312942504883, -0.3871591091156006, -0.96142578125, 0.500244140625, 0.373046875, 0, 
300, 1024121528, 0.5494571924209595, -0.5489364266395569, -0.4636915624141693, -0.42633163928985596, 9.59115982055664, -2.0885815620422363, -0.34775838255882263, 1.9027917385101318, -0.5242465138435364, -0.27724847197532654, -0.95947265625, 0.499755859375, 0.37255859375, 0, 
301, 1024129861, 0.5494751334190369, -0.5488997101783752, -0.46375131607055664, -0.4262907803058624, 9.651095390319824, -2.0558764934539795, -0.4022781252861023, 2.2019917964935303, -0.5751164555549622, 0.019710157066583633, -0.956787109375, 0.5009765625, 0.37451171875, 0, 
302, 1024138194, 0.549522340297699, -0.5488325953483582, -0.4638175964355469, -0.42624402046203613, 9.646496772766113, -1.9586036205291748, -0.3503040373325348, 2.5754215717315674, -0.2692568302154541, -0.00040982774225994945, -0.9599609375, 0.498291015625, 0.373046875, 0, 
303, 1024146527, 0.5495507717132568, -0.548784613609314, -0.46386778354644775, -0.4262145757675171, 9.628291130065918, -1.9080675840377808, -0.3955783247947693, 2.237172842025757, -0.28333187103271484, -0.004239155910909176, -0.958740234375, 0.498779296875, 0.37255859375, 0, 
304, 1024154860, 0.5495575070381165, -0.5487565994262695, -0.46390092372894287, -0.4262060225009918, 9.635775566101074, -1.9090611934661865, -0.38876211643218994, 1.7543188333511353, -0.2660422623157501, -0.03405412286520004, -0.95849609375, 0.50341796875, 0.3740234375, 0, 
305, 1024163193, 0.5495778322219849, -0.5487245321273804, -0.463923841714859, -0.4261961579322815, 9.651537895202637, -1.9192123413085938, -0.33762380480766296, 1.7703789472579956, -0.07470391690731049, 0.10681135207414627, -0.95947265625, 0.5029296875, 0.375732421875, 0, 
306, 1024171526, 0.5495867729187012, -0.5487165451049805, -0.46392112970352173, -0.42619776725769043, 9.628549575805664, -1.9928032159805298, -0.27826687693595886, 1.4090262651443481, -0.035040270537137985, 0.29903340339660645, -0.9619140625, 0.500244140625, 0.375244140625, 0, 
307, 1024179859, 0.549595057964325, -0.5487051606178284, -0.4639163017272949, -0.4262070655822754, 9.61824893951416, -2.0281386375427246, -0.2765861451625824, 1.2370522022247314, 0.0812099277973175, 0.23348654806613922, -0.958984375, 0.499267578125, 0.37158203125, 0, 
308, 1024188192, 0.5495998859405518, -0.548690140247345, -0.4639193117618561, -0.4262169301509857, 9.567686080932617, -2.058309316635132, -0.3456396758556366, 1.2909958362579346, 0.02478177100419998, 0.12762293219566345, -0.964111328125, 0.5029296875, 0.375732421875, 0, 
309, 1024196525, 0.5496045351028442, -0.5486856698989868, -0.4639241099357605, -0.4262113571166992, 9.597891807556152, -2.11104679107666, -0.34187713265419006, 1.3098608255386353, -0.16778606176376343, 0.29558831453323364, -0.95947265625, 0.500244140625, 0.37353515625, 0, 
310, 1024204858, 0.5496185421943665, -0.5486717820167542, -0.4639355540275574, -0.4261987805366516, 9.591748237609863, -2.1194591522216797, -0.3364270031452179, 1.4831922054290771, -0.14214618504047394, 0.2974837124347687, -0.96240234375, 0.499755859375, 0.375732421875, 0, 
311, 1024213191, 0.5496387481689453, -0.5486481785774231, -0.4639582633972168, -0.4261784255504608, 9.5851469039917, -2.0631988048553467, -0.30580946803092957, 1.7701996564865112, -0.20182736217975616, 0.24133731424808502, -0.962890625, 0.499755859375, 0.376708984375, 0, 
312, 1024221524, 0.5496630668640137, -0.5486161708831787, -0.46399426460266113, -0.42614907026290894, 9.621611595153809, -2.0426058769226074, -0.3016509711742401, 1.9238978624343872, -0.27811935544013977, 0.18571600317955017, -0.9619140625, 0.5009765625, 0.37353515625, 0, 
313, 1024229857, 0.5496765375137329, -0.5485987663269043, -0.4640219807624817, -0.4261239767074585, 9.62158489227295, -2.0657598972320557, -0.262052983045578, 1.7329437732696533, -0.35585856437683105, 0.23955711722373962, -0.95947265625, 0.50244140625, 0.37451171875, 0, 
314, 1024238190, 0.5496677160263062, -0.548604428768158, -0.4640313982963562, -0.42611783742904663, 9.660107612609863, -2.013746976852417, -0.2851337790489197, 1.1798044443130493, -0.35419362783432007, 0.25141650438308716, -0.96142578125, 0.495849609375, 0.3720703125, 0, 
315, 1024246523, 0.549658477306366, -0.5486158132553101, -0.46404534578323364, -0.42609983682632446, 9.64561653137207, -1.9837983846664429, -0.3176933526992798, 1.2173421382904053, -0.5109911561012268, 0.34089985489845276, -0.9609375, 0.5009765625, 0.375, 0, 
316, 1024254856, 0.5496342182159424, -0.5486212968826294, -0.4640656113624573, -0.4261019825935364, 9.601633071899414, -2.018339157104492, -0.31139183044433594, 0.9737635254859924, -0.44919684529304504, 0.019249098375439644, -0.959716796875, 0.498779296875, 0.377197265625, 0, 
317, 1024263189, 0.5496071577072144, -0.5486397743225098, -0.4640733003616333, -0.42610466480255127, 9.589065551757812, -2.059846878051758, -0.3380149006843567, 0.8608815670013428, -0.46387380361557007, 0.17252467572689056, -0.9619140625, 0.497314453125, 0.3720703125, 0, 
318, 1024271522, 0.5495707392692566, -0.5486714243888855, -0.4640738070011139, -0.42611053586006165, 9.609565734863281, -2.0626940727233887, -0.34787824749946594, 0.6933645009994507, -0.5358754396438599, 0.230335995554924, -0.95849609375, 0.50146484375, 0.37255859375, 0, 
319, 1024279855, 0.5495858788490295, -0.5486557483673096, -0.46409252285957336, -0.42609071731567383, 9.646505355834961, -2.0691089630126953, -0.36168646812438965, 1.6459324359893799, -0.24692124128341675, 0.28858280181884766, -0.959228515625, 0.500732421875, 0.376220703125, 0, 
320, 1024288188, 0.5496056079864502, -0.5486229062080383, -0.4641077220439911, -0.4260907769203186, 9.594215393066406, -2.089359760284424, -0.2903195917606354, 1.4156347513198853, 0.1155330017209053, 0.09360723197460175, -0.957275390625, 0.500244140625, 0.37451171875, 0, 
321, 1024296521, 0.5496059060096741, -0.5486059784889221, -0.46412894129753113, -0.4260891079902649, 9.53878116607666, -2.0770068168640137, -0.34549662470817566, 1.4440665245056152, -0.2164146602153778, 0.0375632718205452, -0.96240234375, 0.501220703125, 0.375244140625, 0, 
322, 1024304854, 0.5496050715446472, -0.5485963225364685, -0.464142382144928, -0.4260878562927246, 9.573657989501953, -2.1176846027374268, -0.3806527256965637, 1.313356876373291, -0.20030328631401062, 0.13528156280517578, -0.960205078125, 0.500244140625, 0.377685546875, 0, 
323, 1024313187, 0.5496131181716919, -0.5485756397247314, -0.46415451169013977, -0.4260910451412201, 9.613792419433594, -2.132605791091919, -0.38695448637008667, 1.4439640045166016, -0.038703106343746185, 0.09035421162843704, -0.96142578125, 0.50146484375, 0.373046875, 0, 
324, 1024321520, 0.549629271030426, -0.5485535860061646, -0.4641540050506592, -0.4260993003845215, 9.654328346252441, -2.149665355682373, -0.3667977750301361, 1.5612515211105347, 0.12168042361736298, 0.18335950374603271, -0.96142578125, 0.499267578125, 0.373046875, 0, 
325, 1024329853, 0.5496512651443481, -0.5485129952430725, -0.46418705582618713, -0.42608731985092163, 9.619718551635742, -2.043041706085205, -0.3125467598438263, 1.9216694831848145, -0.1087324246764183, 0.0016008896054700017, -0.959228515625, 0.497314453125, 0.375, 0, 
326, 1024338186, 0.5496556758880615, -0.5484839677810669, -0.46424198150634766, -0.42605888843536377, 9.631255149841309, -1.960440993309021, -0.3083159029483795, 1.9558387994766235, -0.5789841413497925, -0.06595664471387863, -0.959716796875, 0.500244140625, 0.377685546875, 0, 
327, 1024346519, 0.5496621131896973, -0.5484507083892822, -0.46428030729293823, -0.42605167627334595, 9.653955459594727, -1.9803462028503418, -0.2914445996284485, 1.747902512550354, -0.2525050938129425, -0.11844021826982498, -0.96044921875, 0.5009765625, 0.37255859375, 0, 
328, 1024354852, 0.549673855304718, -0.5484188795089722, -0.46429920196533203, -0.42605677247047424, 9.639028549194336, -1.9945638179779053, -0.3114027678966522, 1.7474159002304077, -0.02156718447804451, -0.028252501040697098, -0.96240234375, 0.5009765625, 0.373046875, 0, 
329, 1024363185, 0.5496773719787598, -0.5484049320220947, -0.46431809663772583, -0.4260496199131012, 9.647082328796387, -2.015263319015503, -0.36888641119003296, 1.4660305976867676, -0.2382764369249344, 0.1337319165468216, -0.957763671875, 0.497802734375, 0.375732421875, 0, 
330, 1024371518, 0.5497022271156311, -0.548374354839325, -0.46434536576271057, -0.42602747678756714, 9.659485816955566, -2.033808708190918, -0.3729303479194641, 1.9781618118286133, -0.19534698128700256, 0.20255737006664276, -0.95947265625, 0.499755859375, 0.375, 0, 
331, 1024379851, 0.5497181415557861, -0.5483370423316956, -0.46436911821365356, -0.42602917551994324, 9.595717430114746, -2.024369478225708, -0.29010722041130066, 1.7080470323562622, 0.009720603004097939, -0.045644570142030716, -0.96142578125, 0.500244140625, 0.37451171875, 0, 
332, 1024388184, 0.5497128963470459, -0.5483294129371643, -0.46439212560653687, -0.4260205030441284, 9.5862398147583, -2.044940710067749, -0.3779277205467224, 1.386997938156128, -0.3716113269329071, 0.1060045138001442, -0.962890625, 0.499755859375, 0.37451171875, 0, 
333, 1024396517, 0.5497214794158936, -0.548306405544281, -0.4644186794757843, -0.4260101318359375, 9.606361389160156, -2.0936944484710693, -0.371153861284256, 1.6384657621383667, -0.23402445018291473, 0.07292371988296509, -0.956787109375, 0.497314453125, 0.37451171875, 0, 
334, 1024404850, 0.5497256517410278, -0.5482847094535828, -0.4644417464733124, -0.42600706219673157, 9.586640357971191, -2.079331159591675, -0.36605384945869446, 1.4694244861602783, -0.17630276083946228, 0.02923864871263504, -0.9609375, 0.500244140625, 0.3740234375, 0, 
335, 1024413183, 0.5497332215309143, -0.5482548475265503, -0.46448278427124023, -0.4259910583496094, 9.586565017700195, -2.0600569248199463, -0.33836641907691956, 1.8023842573165894, -0.35147854685783386, -0.04336490482091904, -0.958740234375, 0.499755859375, 0.37353515625, 0, 
336, 1024421516, 0.5497305989265442, -0.5482387542724609, -0.4645157754421234, -0.4259796440601349, 9.594952583312988, -2.0477945804595947, -0.32955288887023926, 1.5569483041763306, -0.40421825647354126, 0.011692898347973824, -0.96142578125, 0.499755859375, 0.375, 0, 
337, 1024429849, 0.5497332811355591, -0.5482198596000671, -0.4645315706729889, -0.4259832799434662, 9.635079383850098, -2.036714792251587, -0.3499528467655182, 1.4101275205612183, -0.10929593443870544, 0.03884398192167282, -0.9638671875, 0.501220703125, 0.375244140625, 0, 
338, 1024438182, 0.5497347712516785, -0.5482039451599121, -0.46455997228622437, -0.4259709119796753, 9.625301361083984, -2.0054783821105957, -0.3193601369857788, 1.567629337310791, -0.35142725706100464, 0.0800572857260704, -0.958984375, 0.500244140625, 0.3740234375, 0, 
339, 1024446515, 0.5497326850891113, -0.5481961965560913, -0.46458712220191956, -0.42595380544662476, 9.618356704711914, -1.9570320844650269, -0.31243619322776794, 1.4899415969848633, -0.44604629278182983, 0.15410804748535156, -0.96142578125, 0.498779296875, 0.37451171875, 0, 
340, 1024454848, 0.5497286319732666, -0.5481904149055481, -0.4646110236644745, -0.42594054341316223, 9.659341812133789, -1.971137523651123, -0.30922454595565796, 1.2939287424087524, -0.3907451629638672, 0.15517103672027588, -0.95947265625, 0.5029296875, 0.37060546875, 0, 
341, 1024463181, 0.5497106909751892, -0.5481978058815002, -0.4646202325820923, -0.42594414949417114, 9.628506660461426, -2.00429105758667, -0.3801950514316559, 1.0164624452590942, -0.3445626497268677, 0.13679282367229462, -0.96142578125, 0.497314453125, 0.37451171875, 0, 
342, 1024471514, 0.549701452255249, -0.5482038259506226, -0.46462875604629517, -0.4259388744831085, 9.615559577941895, -2.021343231201172, -0.37397924065589905, 1.29780912399292, -0.3741983473300934, 0.24844525754451752, -0.95947265625, 0.501953125, 0.37158203125, 0, 
343, 1024479847, 0.5496892333030701, -0.5482071042060852, -0.4646371304988861, -0.42594122886657715, 9.597362518310547, -2.0202560424804688, -0.2914281189441681, 1.0948933362960815, -0.28708434104919434, 0.1602042317390442, -0.9638671875, 0.49658203125, 0.37353515625, 0, 
344, 1024488180, 0.5496681928634644, -0.5482337474822998, -0.4646241068840027, -0.4259484112262726, 9.62151050567627, -1.9989979267120361, -0.28632116317749023, 0.9259929656982422, -0.3316274881362915, 0.3746466040611267, -0.95849609375, 0.501953125, 0.3740234375, 0, 
345, 1024496513, 0.5496660470962524, -0.5482432842254639, -0.4646463990211487, -0.4259147047996521, 9.62863540649414, -1.9915517568588257, -0.2546197474002838, 1.434281826019287, -0.6372053027153015, 0.42659226059913635, -0.96240234375, 0.499267578125, 0.37451171875, 0, 
346, 1024504846, 0.5496812462806702, -0.5482428073883057, -0.4646720886230469, -0.4258674383163452, 9.627752304077148, -1.9688061475753784, -0.25171566009521484, 1.5036708116531372, -0.5402554273605347, 0.5513335466384888, -0.95947265625, 0.50048828125, 0.37353515625, 0, 
347, 1024513179, 0.5496728420257568, -0.5482692718505859, -0.4646674394607544, -0.42584919929504395, 9.634907722473145, -1.9672964811325073, -0.34091880917549133, 1.0035529136657715, -0.4551905393600464, 0.584094226360321, -0.9619140625, 0.5029296875, 0.375, 0, 
348, 1024521512, 0.5496522188186646, -0.548305869102478, -0.4646430015563965, -0.42585521936416626, 9.621009826660156, -1.9942626953125, -0.3863679766654968, 0.5343512892723083, -0.2535809278488159, 0.5460314154624939, -0.96337890625, 0.500732421875, 0.37451171875, 0, 
349, 1024529845, 0.5496197938919067, -0.5483450293540955, -0.46462804079055786, -0.4258630871772766, 9.605924606323242, -1.9840770959854126, -0.34029650688171387, 0.498209685087204, -0.40890568494796753, 0.40476900339126587, -0.96044921875, 0.50146484375, 0.37255859375, 0, 
350, 1024538178, 0.5495768785476685, -0.5484106540679932, -0.4645923674106598, -0.42587289214134216, 9.629728317260742, -2.0446112155914307, -0.34811440110206604, 0.08154291659593582, -0.45757266879081726, 0.6562238931655884, -0.9609375, 0.499755859375, 0.37158203125, 0, 
351, 1024546511, 0.5495477318763733, -0.5484565496444702, -0.4645763635635376, -0.4258689880371094, 9.620494842529297, -2.094559669494629, -0.3853381872177124, 0.5417539477348328, -0.5099282264709473, 0.5632954835891724, -0.9609375, 0.499755859375, 0.375, 0, 
352, 1024554844, 0.5495606064796448, -0.5484384894371033, -0.4645937383174896, -0.42585673928260803, 9.593719482421875, -2.119415760040283, -0.38596805930137634, 1.7626307010650635, -0.2154669314622879, 0.20797477662563324, -0.96044921875, 0.501220703125, 0.377685546875, 0, 
353, 1024563177, 0.5496026277542114, -0.5483905076980591, -0.46462082862854004, -0.4258347451686859, 9.62018871307373, -2.1086196899414062, -0.302510142326355, 2.156398296356201, 0.03512992337346077, 0.1931697428226471, -0.960205078125, 0.497802734375, 0.375732421875, 0, 
354, 1024571510, 0.5496631860733032, -0.5483362674713135, -0.4646385908126831, -0.4258069097995758, 9.649679183959961, -2.0622780323028564, -0.34981390833854675, 2.56335711479187, 0.1636621654033661, 0.368217408657074, -0.9619140625, 0.499267578125, 0.377197265625, 0, 
355, 1024579843, 0.5497281551361084, -0.5482674241065979, -0.46467360854148865, -0.42577362060546875, 9.640127182006836, -2.041444778442383, -0.3506029546260834, 2.605877161026001, 0.15782210230827332, 0.21906574070453644, -0.96240234375, 0.500732421875, 0.375732421875, 0, 
356, 1024588176, 0.5497682690620422, -0.5482197999954224, -0.46468573808670044, -0.42576971650123596, 9.615527153015137, -2.0629847049713135, -0.3070220649242401, 2.3597240447998047, 0.1764436513185501, 0.1456809639930725, -0.9619140625, 0.499755859375, 0.3740234375, 0, 
357, 1024596509, 0.5498068332672119, -0.548180341720581, -0.464711457490921, -0.42574265599250793, 9.610498428344727, -2.0609922409057617, -0.29569581151008606, 2.090877056121826, -0.06529068201780319, 0.27587810158729553, -0.9609375, 0.50439453125, 0.37451171875, 0, 
358, 1024604842, 0.5498355031013489, -0.5481479167938232, -0.46472692489624023, -0.4257305860519409, 9.607275009155273, -2.0265724658966064, -0.321593314409256, 1.764526128768921, 0.029315492138266563, 0.2288760095834732, -0.9599609375, 0.501953125, 0.37451171875, 0, 
359, 1024613175, 0.5498610734939575, -0.5481176972389221, -0.4647389352321625, -0.4257231056690216, 9.627398490905762, -2.018047332763672, -0.3026922643184662, 1.7185486555099487, 0.04908968135714531, 0.21404534578323364, -0.964111328125, 0.500732421875, 0.3740234375, 0, 
360, 1024621508, 0.5498896837234497, -0.5480907559394836, -0.4647226929664612, -0.425738662481308, 9.639815330505371, -2.0335962772369385, -0.29892444610595703, 1.330416202545166, 0.4521808922290802, 0.29513999819755554, -0.9619140625, 0.500732421875, 0.375732421875, 0, 
361, 1024629841, 0.5498992800712585, -0.5480838418006897, -0.4647020399570465, -0.42575761675834656, 9.588364601135254, -2.030320644378662, -0.32585516571998596, 1.061697244644165, 0.2559758424758911, 0.3160156309604645, -0.95849609375, 0.499755859375, 0.373046875, 0, 
362, 1024638174, 0.5499152541160583, -0.5480574369430542, -0.4647041857242584, -0.4257690906524658, 9.585867881774902, -2.059704065322876, -0.3240237832069397, 1.3756507635116577, 0.19765223562717438, 0.11676248908042908, -0.96142578125, 0.499755859375, 0.37353515625, 0, 
363, 1024646507, 0.5499250888824463, -0.5480439066886902, -0.4647037088871002, -0.4257742464542389, 9.572985649108887, -2.0890519618988037, -0.3037024438381195, 1.3176603317260742, 0.04022715613245964, 0.22664758563041687, -0.958984375, 0.499755859375, 0.3720703125, 0, 
364, 1024654840, 0.5499082803726196, -0.5480668544769287, -0.464682400226593, -0.42578965425491333, 9.617247581481934, -2.0415072441101074, -0.34664154052734375, 0.8066306114196777, -0.14059652388095856, 0.37979504466056824, -0.9619140625, 0.499267578125, 0.375244140625, 0, 
365, 1024663173, 0.5498995184898376, -0.5480804443359375, -0.46466749906539917, -0.42579975724220276, 9.648905754089355, -2.007960319519043, -0.33581167459487915, 0.8586274981498718, -0.09182702749967575, 0.3622749149799347, -0.962646484375, 0.50146484375, 0.37255859375, 0, 
366, 1024671506, 0.5498810410499573, -0.5480963587760925, -0.46465548872947693, -0.4258158802986145, 9.642633438110352, -1.9806865453720093, -0.30139219760894775, 0.605379581451416, -0.11026927828788757, 0.26071450114250183, -0.9599609375, 0.500244140625, 0.375, 0, 
367, 1024679839, 0.5498381853103638, -0.5481372475624084, -0.46463680267333984, -0.42583903670310974, 9.627920150756836, -2.0156354904174805, -0.3215346038341522, 0.28702032566070557, -0.3410279452800751, 0.2678608298301697, -0.96240234375, 0.50244140625, 0.3740234375, 0, 
368, 1024688172, 0.5497967600822449, -0.5481804609298706, -0.46463337540626526, -0.42584070563316345, 9.639720916748047, -2.053881883621216, -0.3345310389995575, 0.40275824069976807, -0.6023571491241455, 0.34287214279174805, -0.95947265625, 0.500732421875, 0.375, 0, 
369, 1024696505, 0.5497769713401794, -0.5482064485549927, -0.4646585285663605, -0.42580538988113403, 9.600245475769043, -2.085139513015747, -0.34463828802108765, 1.2039713859558105, -0.8792726397514343, 0.41863903403282166, -0.958984375, 0.501953125, 0.37353515625, 0, 
370, 1024704838, 0.5497843623161316, -0.5481955409049988, -0.46474388241767883, -0.42571669816970825, 9.59772777557373, -2.1065549850463867, -0.3616732060909271, 2.2746849060058594, -1.3221042156219482, 0.2968817949295044, -0.9609375, 0.500732421875, 0.3740234375, 0, 
371, 1024713171, 0.5497968196868896, -0.5481816530227661, -0.4648313522338867, -0.425622820854187, 9.629365921020508, -2.0545461177825928, -0.33145424723625183, 2.488307476043701, -1.3531488180160522, 0.32551851868629456, -0.962890625, 0.501220703125, 0.37451171875, 0, 
372, 1024721504, 0.5498090386390686, -0.5481822490692139, -0.46490949392318726, -0.42552125453948975, 9.63524341583252, -1.9738235473632812, -0.32546088099479675, 2.3748364448547363, -1.4230499267578125, 0.5476195216178894, -0.956787109375, 0.50146484375, 0.374755859375, 0, 
373, 1024729837, 0.5498155355453491, -0.5481902956962585, -0.46496671438217163, -0.4254399836063385, 9.643303871154785, -1.9156708717346191, -0.3091834485530853, 2.0218982696533203, -1.1969276666641235, 0.564191997051239, -0.963623046875, 0.500732421875, 0.37353515625, 0, 
374, 1024738170, 0.5497984886169434, -0.5482314229011536, -0.4649951756000519, -0.42537808418273926, 9.634797096252441, -1.9248894453048706, -0.2761858105659485, 1.1252461671829224, -1.1377842426300049, 0.7148036360740662, -0.95947265625, 0.498779296875, 0.37060546875, 0, 
375, 1024746503, 0.5497569441795349, -0.5482997298240662, -0.4649767577648163, -0.42536380887031555, 9.608736038208008, -1.9827394485473633, -0.3284585475921631, 0.33161473274230957, -0.7778019309043884, 0.7321445345878601, -0.962890625, 0.500732421875, 0.3740234375, 0, 
376, 1024754836, 0.5497309565544128, -0.5483577847480774, -0.46494436264038086, -0.4253576993942261, 9.6027193069458, -2.0401482582092285, -0.3928411304950714, 0.247062087059021, -0.4180242717266083, 0.8077576160430908, -0.95849609375, 0.500244140625, 0.3720703125, 0, 
377, 1024763169, 0.5496953129768372, -0.5484243631362915, -0.4648911654949188, -0.42537617683410645, 9.611103057861328, -2.0465142726898193, -0.3819904327392578, -0.023565096780657768, -0.21946275234222412, 0.77092444896698, -0.962890625, 0.499267578125, 0.37353515625, 0, 
378, 1024771502, 0.5496829152107239, -0.5484616756439209, -0.4648537039756775, -0.4253849387168884, 9.61905574798584, -2.093844413757324, -0.39681801199913025, 0.29419228434562683, -0.041571903973817825, 0.6831700801849365, -0.95947265625, 0.50390625, 0.376220703125, 0, 
379, 1024779835, 0.5496687293052673, -0.5485042929649353, -0.464824378490448, -0.4253804385662079, 9.590482711791992, -2.1337575912475586, -0.4155369699001312, 0.6043550372123718, -0.2977398633956909, 0.7358072400093079, -0.9599609375, 0.499755859375, 0.375, 0, 
380, 1024788168, 0.5496606826782227, -0.5485360026359558, -0.46479907631874084, -0.4253775179386139, 9.60432243347168, -2.106397867202759, -0.34086874127388, 0.8384947180747986, -0.2284277081489563, 0.6586316227912903, -0.96142578125, 0.50439453125, 0.37451171875, 0, 
381, 1024796501, 0.5496735572814941, -0.5485537052154541, -0.46478110551834106, -0.42535755038261414, 9.602720260620117, -2.071599245071411, -0.2907058298587799, 1.1633857488632202, -0.18150246143341064, 0.7661346197128296, -0.95947265625, 0.501953125, 0.375732421875, 0, 
382, 1024804834, 0.5496848821640015, -0.5485685467720032, -0.46475547552108765, -0.42535194754600525, 9.6087646484375, -2.033259868621826, -0.26545631885528564, 0.9306291937828064, 0.0165339894592762, 0.6933901906013489, -0.959228515625, 0.497314453125, 0.375244140625, 0, 
383, 1024813167, 0.549674391746521, -0.5486041307449341, -0.46471089124679565, -0.4253683090209961, 9.614337921142578, -2.0037548542022705, -0.2572881877422333, 0.46406590938568115, 0.040995582938194275, 0.6705678701400757, -0.96044921875, 0.498779296875, 0.375732421875, 0, 
384, 1024821500, 0.5496671199798584, -0.5486316084861755, -0.46467354893684387, -0.42538323998451233, 9.613191604614258, -2.030313014984131, -0.3156120479106903, 0.3555128276348114, 0.09801287204027176, 0.6032024621963501, -0.9609375, 0.499267578125, 0.37353515625, 0, 
385, 1024829833, 0.5496310591697693, -0.5486868023872375, -0.4646291136741638, -0.42540717124938965, 9.621088981628418, -2.10306453704834, -0.3212270140647888, 0.0756516382098198, -0.18137438595294952, 0.5880131721496582, -0.96044921875, 0.50439453125, 0.373046875, 0, 
386, 1024838166, 0.5495882630348206, -0.5487508773803711, -0.4645950496196747, -0.4254169166088104, 9.636194229125977, -2.0671427249908447, -0.44058647751808167, -0.06657139211893082, -0.4211236238479614, 0.6418542861938477, -0.96044921875, 0.5029296875, 0.37451171875, 0, 
387, 1024846499, 0.5495790839195251, -0.5487731695175171, -0.46460965275764465, -0.4253840446472168, 9.64123821258545, -2.0312857627868652, -0.316570520401001, 1.235028862953186, -0.6915587186813354, 0.5177277326583862, -0.96044921875, 0.500244140625, 0.376220703125, 0, 
388, 1024854832, 0.5495670437812805, -0.5487964749336243, -0.4645947217941284, -0.4253859519958496, 9.667396545410156, -1.9295796155929565, -0.37468773126602173, 0.8935142159461975, -0.24945706129074097, 0.4662943482398987, -0.9609375, 0.500732421875, 0.375, 0, 
389, 1024863165, 0.5495748519897461, -0.548805296421051, -0.46457913517951965, -0.42538151144981384, 9.675858497619629, -1.9084428548812866, -0.3762967586517334, 1.1067783832550049, -0.06360014528036118, 0.5440592169761658, -0.961181640625, 0.496337890625, 0.376708984375, 0, 
390, 1024871498, 0.549605131149292, -0.5488035082817078, -0.4645761251449585, -0.4253479242324829, 9.622631072998047, -1.9995826482772827, -0.3470316231250763, 1.6966228485107422, -0.18739372491836548, 0.731734573841095, -0.9609375, 0.501953125, 0.3740234375, 0, 
391, 1024879831, 0.5496333837509155, -0.5487983822822571, -0.46458855271339417, -0.42530450224876404, 9.603302955627441, -2.039623975753784, -0.3462306559085846, 1.7801764011383057, -0.3551669716835022, 0.6592207551002502, -0.9609375, 0.500244140625, 0.37109375, 0, 
392, 1024888164, 0.5496847629547119, -0.548777163028717, -0.46459972858428955, -0.4252532124519348, 9.590020179748535, -2.0912342071533203, -0.30834031105041504, 2.109959602355957, -0.15988405048847198, 0.7610885500907898, -0.960205078125, 0.498779296875, 0.377197265625, 0, 
393, 1024896497, 0.5497422218322754, -0.548753023147583, -0.4646325409412384, -0.42517417669296265, 9.623014450073242, -2.055626630783081, -0.3109341561794281, 2.4917402267456055, -0.4807536005973816, 0.8226907849311829, -0.959716796875, 0.499267578125, 0.377685546875, 0, 
394, 1024904830, 0.5497977137565613, -0.5487350225448608, -0.464656800031662, -0.4250991940498352, 9.625690460205078, -2.081388473510742, -0.25214189291000366, 2.5689926147460938, -0.48080483078956604, 0.8787347674369812, -0.96044921875, 0.500732421875, 0.375, 0, 
395, 1024913163, 0.549837589263916, -0.5487320423126221, -0.46465790271759033, -0.425050288438797, 9.625086784362793, -2.007657527923584, -0.2658120095729828, 1.8188798427581787, -0.2503023147583008, 0.8664911985397339, -0.9609375, 0.50439453125, 0.37451171875, 0, 
396, 1024921496, 0.5498641133308411, -0.548743724822998, -0.4646455645561218, -0.4250143766403198, 9.638227462768555, -2.0120089054107666, -0.33622652292251587, 1.3753178119659424, -0.20424789190292358, 0.8894671201705933, -0.96044921875, 0.499267578125, 0.376220703125, 0, 
397, 1024929829, 0.5498912334442139, -0.5487546920776367, -0.4646420478820801, -0.4249688386917114, 9.613558769226074, -2.036083698272705, -0.3300853669643402, 1.5704984664916992, -0.3532715141773224, 0.8909528255462646, -0.9609375, 0.5029296875, 0.37451171875, 0, 
398, 1024938162, 0.5499154329299927, -0.5487567782402039, -0.4646527171134949, -0.4249233305454254, 9.60222053527832, -2.040968656539917, -0.3184572756290436, 1.7200855016708374, -0.4304215908050537, 0.7100393772125244, -0.95849609375, 0.5009765625, 0.37353515625, 0, 
399, 1024946495, 0.5499376058578491, -0.5487611889839172, -0.46468544006347656, -0.4248529374599457, 9.594571113586426, -2.0558974742889404, -0.32015174627304077, 1.9534311294555664, -0.8073094487190247, 0.7351669669151306, -0.9619140625, 0.500732421875, 0.375, 0, 
400, 1024954828, 0.5499762296676636, -0.548750638961792, -0.46473342180252075, -0.4247643053531647, 9.638823509216309, -2.0461738109588623, -0.324718713760376, 2.338080406188965, -0.8546702265739441, 0.7609861493110657, -0.958984375, 0.506103515625, 0.375732421875, 0, 
401, 1024963161, 0.550008237361908, -0.5487501621246338, -0.4647640585899353, -0.4246898293495178, 9.640274047851562, -2.103346109390259, -0.29993849992752075, 2.079991102218628, -0.7308765649795532, 0.8071429133415222, -0.95947265625, 0.501953125, 0.37451171875, 0, 
402, 1024971494, 0.5500338673591614, -0.5487546324729919, -0.46477413177490234, -0.4246397614479065, 9.596855163574219, -2.128056526184082, -0.3218636214733124, 1.3905327320098877, -0.38902896642684937, 0.7855756878852844, -0.957763671875, 0.5009765625, 0.37353515625, 0, 
403, 1024979827, 0.5500376224517822, -0.5487847328186035, -0.464756578207016, -0.42461535334587097, 9.55968189239502, -2.1336286067962646, -0.3404255509376526, 1.0316004753112793, -0.34676554799079895, 0.82281893491745, -0.96142578125, 0.500244140625, 0.376708984375, 0, 
404, 1024988160, 0.5500498414039612, -0.548803985118866, -0.46475017070770264, -0.4245814085006714, 9.569552421569824, -2.1345012187957764, -0.37553855776786804, 1.2359507083892822, -0.3714832067489624, 0.7955396771430969, -0.95703125, 0.50341796875, 0.373046875, 0, 
405, 1024996493, 0.550075352191925, -0.5488192439079285, -0.46475398540496826, -0.42452436685562134, 9.614899635314941, -2.061251163482666, -0.3258639872074127, 1.6410399675369263, -0.5287290811538696, 0.9406955242156982, -0.957275390625, 0.501953125, 0.376708984375, 0, 
406, 1025004826, 0.5500852465629578, -0.5488410592079163, -0.4647562503814697, -0.4244810938835144, 9.647582054138184, -1.9673198461532593, -0.2983798384666443, 1.4960378408432007, -0.576653242111206, 0.7955653071403503, -0.964111328125, 0.50439453125, 0.375, 0, 
407, 1025013159, 0.5500693917274475, -0.548895001411438, -0.46477675437927246, -0.42440956830978394, 9.629687309265137, -1.9357925653457642, -0.26264575123786926, 1.2271907329559326, -1.2559939622879028, 0.9295533299446106, -0.9609375, 0.50341796875, 0.375244140625, 0, 
408, 1025021492, 0.5500413775444031, -0.5489550828933716, -0.46483200788497925, -0.42430752515792847, 9.621984481811523, -1.9592198133468628, -0.353401243686676, 1.4291846752166748, -1.848630666732788, 0.8706150650978088, -0.958984375, 0.50390625, 0.374755859375, 0, 
409, 1025029825, 0.5500704050064087, -0.5489529967308044, -0.464926540851593, -0.42416912317276, 9.640189170837402, -2.0037176609039307, -0.31051939725875854, 2.8467791080474854, -1.7072913646697998, 0.7800943851470947, -0.9609375, 0.50341796875, 0.374755859375, 0, 
410, 1025038158, 0.5500971674919128, -0.5489542484283447, -0.4649916887283325, -0.4240614175796509, 9.623242378234863, -2.0196073055267334, -0.15936052799224854, 2.4931485652923584, -1.2968742847442627, 0.7783269286155701, -0.95703125, 0.50341796875, 0.373046875, 0, 
411, 1025046491, 0.5501201748847961, -0.5489736199378967, -0.46501076221466064, -0.4239855408668518, 9.606241226196289, -1.925024390220642, -0.27810531854629517, 1.802051067352295, -0.826750636100769, 0.9804232120513916, -0.956298828125, 0.50439453125, 0.3740234375, 0, 
412, 1025054824, 0.5501333475112915, -0.5490245819091797, -0.46501249074935913, -0.42390045523643494, 9.612077713012695, -1.9295519590377808, -0.310891717672348, 1.3616015911102295, -0.9933072924613953, 1.3288922309875488, -0.9580078125, 0.50341796875, 0.375244140625, 0, 
413, 1025063157, 0.5501625537872314, -0.5490727424621582, -0.4650110602378845, -0.4238016605377197, 9.621756553649902, -2.056786298751831, -0.40763166546821594, 1.6566776037216187, -0.9749161601066589, 1.527837872505188, -0.96142578125, 0.5048828125, 0.375732421875, 0, 
414, 1025071490, 0.550203800201416, -0.5491043925285339, -0.465006947517395, -0.42371177673339844, 9.620238304138184, -2.1648104190826416, -0.40973159670829773, 1.8269610404968262, -0.7166991829872131, 1.4464104175567627, -0.962890625, 0.500732421875, 0.376708984375, 0, 
415, 1025079823, 0.5502575039863586, -0.5491320490837097, -0.4649992883205414, -0.4236145615577698, 9.579345703125, -2.14941668510437, -0.3658285140991211, 1.9506137371063232, -0.6386910080909729, 1.574135661125183, -0.95849609375, 0.5048828125, 0.376220703125, 0, 
416, 1025088156, 0.5502738952636719, -0.5491843223571777, -0.4649750590324402, -0.42355218529701233, 9.582361221313477, -2.0567402839660645, -0.2936542332172394, 1.6183457374572754, -0.7324902415275574, 1.3599237203598022, -0.956298828125, 0.506591796875, 0.375732421875, 0, 
417, 1025096489, 0.5502760410308838, -0.5492454171180725, -0.46492618322372437, -0.4235237240791321, 9.55692195892334, -2.067908525466919, -0.3161988854408264, 0.6292136907577515, -0.33197328448295593, 1.2779197692871094, -0.9599609375, 0.507568359375, 0.375732421875, 0, 
418, 1025104822, 0.5502650141716003, -0.5493302941322327, -0.464842289686203, -0.423520028591156, 9.59819221496582, -2.077836513519287, -0.4033559560775757, 0.030737081542611122, -0.11000032722949982, 1.4324760437011719, -0.958984375, 0.5029296875, 0.376220703125, 0, 
419, 1025113155, 0.5502470135688782, -0.5494124293327332, -0.46479329466819763, -0.42349058389663696, 9.690220832824707, -2.1172916889190674, -0.4348284900188446, 0.3242762088775635, -0.5898829698562622, 1.3051990270614624, -0.956787109375, 0.50390625, 0.376220703125, 0, 
420, 1025121488, 0.550244927406311, -0.549467921257019, -0.4647325575351715, -0.42348796129226685, 9.659378051757812, -2.1635918617248535, -0.3776271939277649, 0.2789774537086487, -0.011219034902751446, 1.1188682317733765, -0.95947265625, 0.50341796875, 0.375732421875, 0, 
421, 1025129821, 0.5502274036407471, -0.5495457649230957, -0.4646492302417755, -0.42350122332572937, 9.604616165161133, -2.1860947608947754, -0.4111025035381317, -0.11334298551082611, 0.01950524002313614, 1.2158693075180054, -0.958984375, 0.50439453125, 0.375244140625, 0, 
422, 1025138154, 0.5502217411994934, -0.5495941638946533, -0.4646016061306, -0.4234977960586548, 9.567242622375488, -2.2161295413970947, -0.4548063576221466, 0.5075076222419739, -0.12617571651935577, 0.955065131187439, -0.956787109375, 0.50439453125, 0.376708984375, 0, 
423, 1025146487, 0.5502327084541321, -0.5496112108230591, -0.46457386016845703, -0.42349180579185486, 9.58792781829834, -2.2168734073638916, -0.4221894145011902, 1.0078177452087402, -0.010079200379550457, 0.7185561060905457, -0.95947265625, 0.5029296875, 0.37451171875, 0, 
424, 1025154820, 0.5502627491950989, -0.5496176481246948, -0.46455249190330505, -0.42346811294555664, 9.583386421203613, -2.1996278762817383, -0.3770120441913605, 1.3803893327713013, -0.005122845992445946, 0.8496368527412415, -0.956787109375, 0.5048828125, 0.378173828125, 0, 
425, 1025163153, 0.5503007769584656, -0.5496065616607666, -0.46454572677612305, -0.423440545797348, 9.581725120544434, -2.174290180206299, -0.41422897577285767, 1.684584140777588, 0.0053405677899718285, 0.70127934217453, -0.96044921875, 0.506591796875, 0.375244140625, 0, 
426, 1025171486, 0.5503602623939514, -0.5495725870132446, -0.46455007791519165, -0.4234025776386261, 9.589644432067871, -2.143890619277954, -0.37685635685920715, 2.301041841506958, 0.07959622144699097, 0.6698505878448486, -0.961669921875, 0.508056640625, 0.377685546875, 0, 
427, 1025179819, 0.5504056811332703, -0.5495591759681702, -0.4645400047302246, -0.4233720004558563, 9.589447975158691, -2.147050142288208, -0.3252921998500824, 1.7583787441253662, 0.06909439712762833, 0.7785830497741699, -0.9599609375, 0.50390625, 0.377197265625, 0, 
428, 1025188152, 0.5504292845726013, -0.5495493412017822, -0.4645150899887085, -0.4233812987804413, 9.589037895202637, -2.1161539554595947, -0.35102561116218567, 1.1917407512664795, 0.3296680450439453, 0.48591485619544983, -0.958984375, 0.50341796875, 0.376220703125, 0, 
429, 1025196485, 0.5504510998725891, -0.5495301485061646, -0.46449336409568787, -0.4234018921852112, 9.609451293945312, -2.0754332542419434, -0.3702096939086914, 1.229367971420288, 0.427053302526474, 0.30387449264526367, -0.9580078125, 0.50390625, 0.375244140625, 0, 
430, 1025204818, 0.5504759550094604, -0.5495206117630005, -0.46446412801742554, -0.4234139621257782, 9.634343147277832, -2.0469939708709717, -0.30767980217933655, 1.2858730554580688, 0.3618651032447815, 0.5019237399101257, -0.956787109375, 0.50390625, 0.378173828125, 0, 
431, 1025213151, 0.5504969954490662, -0.5495093464851379, -0.4644392132759094, -0.423428475856781, 9.599630355834961, -2.038252592086792, -0.28595635294914246, 1.185695767402649, 0.3538222312927246, 0.4211108088493347, -0.956787109375, 0.50439453125, 0.37451171875, 0, 
432, 1025221484, 0.5505086779594421, -0.5495001077651978, -0.4644118547439575, -0.4234553575515747, 9.588164329528809, -2.0529589653015137, -0.32170626521110535, 1.0818171501159668, 0.377374529838562, 0.3015819787979126, -0.95947265625, 0.50341796875, 0.378173828125, 0, 
433, 1025229817, 0.5505248308181763, -0.549500584602356, -0.46439164876937866, -0.4234558641910553, 9.627920150756836, -2.06581974029541, -0.3301895260810852, 1.1746944189071655, 0.1123952567577362, 0.5377196073532104, -0.958984375, 0.505859375, 0.376708984375, 0, 
434, 1025238150, 0.5505658388137817, -0.5494862794876099, -0.4643745720386505, -0.4234396815299988, 9.662552833557129, -2.036924362182617, -0.3530011773109436, 1.5457295179367065, 0.22180648148059845, 0.6939281225204468, -0.95947265625, 0.50390625, 0.374755859375, 0, 
435, 1025246483, 0.5506213307380676, -0.5494692921638489, -0.4643706679344177, -0.42339375615119934, 9.623717308044434, -2.016261339187622, -0.34505778551101685, 1.995797038078308, -0.009144281968474388, 0.8826536536216736, -0.958984375, 0.50537109375, 0.374755859375, 0, 
436, 1025254816, 0.5506637096405029, -0.5494700074195862, -0.46434786915779114, -0.4233628809452057, 9.616718292236328, -2.006887674331665, -0.3342241942882538, 1.3521884679794312, 0.1083097830414772, 0.9588304758071899, -0.95654296875, 0.506103515625, 0.37451171875, 0, 
437, 1025263149, 0.5506824851036072, -0.5494805574417114, -0.46433115005493164, -0.4233431816101074, 9.593293190002441, -2.0164010524749756, -0.37184807658195496, 1.2685192823410034, -0.10897575318813324, 0.7429664731025696, -0.956298828125, 0.506103515625, 0.375244140625, 0, 
438, 1025271482, 0.5507134199142456, -0.5494721531867981, -0.4643526077270508, -0.4232902526855469, 9.611968994140625, -2.145974636077881, -0.3451259136199951, 1.9163799285888672, -0.4526931643486023, 0.6594128012657166, -0.958984375, 0.50439453125, 0.373046875, 0, 
439, 1025279815, 0.5507379174232483, -0.5494727492332458, -0.46437549591064453, -0.42323243618011475, 9.598384857177734, -2.179537534713745, -0.35636812448501587, 1.860477328300476, -0.6020882725715637, 0.7020221948623657, -0.95947265625, 0.50244140625, 0.3740234375, 0, 
440, 1025288148, 0.5508038401603699, -0.549433171749115, -0.4644496738910675, -0.4231167435646057, 9.59591007232666, -2.1719391345977783, -0.3663088381290436, 2.7657864093780518, -0.8420935273170471, 0.7547106146812439, -0.957763671875, 0.5029296875, 0.376708984375, 0, 
