PacketCounter,SampleTimeFine,Quat_W,Quat_X,Quat_Y,Quat_Z,Acc_X,Acc_Y,Acc_Z,Gyr_X,Gyr_Y,Gyr_Z,Mag_X,Mag_Y,Mag_Z,Status,
0, 1006747223, 0.5577387809753418, -0.5546703338623047, -0.4558403789997101, -0.4165099859237671, 0, 0, 0, 0, 0, 0, -0.949462890625, 0.529296875, 0.36865234375, 0, 
1, 1006755556, 0.5577145218849182, -0.554686427116394, -0.4558413624763489, -0.41652005910873413, 9.536599159240723, -2.370352029800415, -0.3932203948497772, 0.8143405318260193, -0.36005929112434387, 0.25986918807029724, -0.95068359375, 0.523681640625, 0.373291015625, 0, 
2, 1006763889, 0.5576999187469482, -0.5546972155570984, -0.45583823323249817, -0.4165286421775818, 9.525755882263184, -2.39577317237854, -0.3274001181125641, 0.9118027091026306, -0.20826932787895203, 0.2323082834482193, -0.9462890625, 0.526123046875, 0.37109375, 0, 
3, 1006772222, 0.5576779842376709, -0.554703950881958, -0.4558451771736145, -0.41654160618782043, 9.52499771118164, -2.4104506969451904, -0.30619877576828003, 0.9168871641159058, -0.3141457438468933, 0.14659026265144348, -0.951416015625, 0.525146484375, 0.37255859375, 0, 
4, 1006780555, 0.5576411485671997, -0.5547237396240234, -0.4558563232421875, -0.41655221581459045, 9.533345222473145, -2.413447856903076, -0.3039529025554657, 0.7424798011779785, -0.49290749430656433, 0.03747362270951271, -0.94970703125, 0.525634765625, 0.37109375, 0, 
5, 1006788888, 0.5576213002204895, -0.5547223687171936, -0.45587149262428284, -0.4165642559528351, 9.504218101501465, -2.3488290309906006, -0.3596950173377991, 1.0406551361083984, -0.32380229234695435, 0.051458992063999176, -0.94873046875, 0.525146484375, 0.37060546875, 0, 
6, 1006797221, 0.5576050877571106, -0.5547195672988892, -0.4558989107608795, -0.4165596663951874, 9.507186889648438, -2.3243231773376465, -0.3345170319080353, 1.2615268230438232, -0.47559231519699097, 0.006070573814213276, -0.950439453125, 0.525634765625, 0.37060546875, 0, 
7, 1006805554, 0.5575776100158691, -0.5547191500663757, -0.4559369385242462, -0.4165550768375397, 9.49145793914795, -2.32421612739563, -0.2855629622936249, 1.2189302444458008, -0.6796352863311768, -0.03402851149439812, -0.951904296875, 0.526611328125, 0.36767578125, 0, 
8, 1006813887, 0.5575472116470337, -0.5547237992286682, -0.45597028732299805, -0.41655296087265015, 9.534467697143555, -2.319352149963379, -0.3201039731502533, 1.114513874053955, -0.6344133615493774, -0.09280037134885788, -0.94775390625, 0.525634765625, 0.36962890625, 0, 
9, 1006822220, 0.5575202703475952, -0.5547203421592712, -0.45599669218063354, -0.4165646731853485, 9.573700904846191, -2.3603596687316895, -0.3450745940208435, 1.075682520866394, -0.44458630681037903, -0.08621752262115479, -0.951416015625, 0.524169921875, 0.3701171875, 0, 
10, 1006830553, 0.5574871897697449, -0.5547201633453369, -0.4560410976409912, -0.41656064987182617, 9.557378768920898, -2.376246452331543, -0.28427550196647644, 1.2080185413360596, -0.7221548557281494, -0.20776985585689545, -0.9501953125, 0.525634765625, 0.3720703125, 0, 
11, 1006838886, 0.5574549436569214, -0.554715096950531, -0.45608898997306824, -0.4165584146976471, 9.5439453125, -2.422102689743042, -0.29071304202079773, 1.2590420246124268, -0.741032600402832, -0.18410231173038483, -0.951416015625, 0.527099609375, 0.3720703125, 0, 
12, 1006847219, 0.5574265718460083, -0.5547099113464355, -0.45613980293273926, -0.4165474772453308, 9.549667358398438, -2.4073965549468994, -0.30177128314971924, 1.3609610795974731, -0.7649818658828735, -0.20805160701274872, -0.950439453125, 0.529296875, 0.372802734375, 0, 
13, 1006855552, 0.5574125051498413, -0.5546770691871643, -0.456210196018219, -0.4165329337120056, 9.554195404052734, -2.381692409515381, -0.3245820701122284, 1.8167535066604614, -0.7347699403762817, -0.3329850435256958, -0.9521484375, 0.524169921875, 0.374267578125, 0, 
14, 1006863885, 0.5574063062667847, -0.5546426177024841, -0.45628613233566284, -0.41650399565696716, 9.571310997009277, -2.3254477977752686, -0.3275618255138397, 2.0101027488708496, -0.7892130017280579, -0.3189868927001953, -0.950927734375, 0.52880859375, 0.374267578125, 0, 
15, 1006872218, 0.5573866963386536, -0.5546061396598816, -0.45635753870010376, -0.4165005087852478, 9.549946784973145, -2.3272600173950195, -0.31098100543022156, 1.7387839555740356, -0.6712978482246399, -0.4795752763748169, -0.951904296875, 0.52978515625, 0.373291015625, 0, 
16, 1006880551, 0.5573619604110718, -0.5545834898948669, -0.4564189612865448, -0.4164965748786926, 9.560858726501465, -2.292203664779663, -0.3453541696071625, 1.5393770933151245, -0.671400249004364, -0.43170228600502014, -0.949951171875, 0.52880859375, 0.373291015625, 0, 
17, 1006888884, 0.5573453903198242, -0.554542064666748, -0.4564914107322693, -0.4164946377277374, 9.539948463439941, -2.304231882095337, -0.35633453726768494, 1.7969154119491577, -0.6197491884231567, -0.5131940841674805, -0.94921875, 0.524169921875, 0.37158203125, 0, 
18, 1006897217, 0.5573300719261169, -0.5545122623443604, -0.4565581977367401, -0.4164815843105316, 9.515949249267578, -2.3328068256378174, -0.3044058382511139, 1.7528847455978394, -0.6825041174888611, -0.3947538137435913, -0.9501953125, 0.524658203125, 0.372802734375, 0, 
19, 1006905550, 0.5573086738586426, -0.5544729232788086, -0.45663654804229736, -0.4164764881134033, 9.534610748291016, -2.3246583938598633, -0.2980393171310425, 1.7969410419464111, -0.7301977872848511, -0.5484904050827026, -0.951416015625, 0.527587890625, 0.3720703125, 0, 
20, 1006913883, 0.557303786277771, -0.5544266104698181, -0.4567292630672455, -0.4164429306983948, 9.521198272705078, -2.2934823036193848, -0.3211246430873871, 2.2376723289489746, -0.8771082758903503, -0.4796009361743927, -0.9482421875, 0.52734375, 0.37060546875, 0, 
21, 1006922216, 0.5572900772094727, -0.5543821454048157, -0.45683249831199646, -0.4164073169231415, 9.538545608520508, -2.2981297969818115, -0.31096357107162476, 2.231550693511963, -1.0761821269989014, -0.4930740296840668, -0.94921875, 0.524169921875, 0.373779296875, 0, 
22, 1006930549, 0.5572897791862488, -0.554333508014679, -0.4569218158721924, -0.4163745045661926, 9.5983304977417, -2.3071365356445312, -0.3366260230541229, 2.266386032104492, -0.8042358756065369, -0.4472757875919342, -0.9501953125, 0.524658203125, 0.37060546875, 0, 
23, 1006938882, 0.5572821497917175, -0.5542823076248169, -0.457013875246048, -0.41635197401046753, 9.559706687927246, -2.3290908336639404, -0.3244697153568268, 2.181654214859009, -0.815659761428833, -0.5159732103347778, -0.94873046875, 0.521484375, 0.37158203125, 0, 
24, 1006947215, 0.5572566986083984, -0.554246187210083, -0.45711636543273926, -0.4163218140602112, 9.562993049621582, -2.3393166065216064, -0.34192758798599243, 2.0388290882110596, -1.1124262809753418, -0.6324411034584045, -0.951171875, 0.527099609375, 0.375244140625, 0, 
25, 1006955548, 0.5572416186332703, -0.554207980632782, -0.457197368144989, -0.4163039028644562, 9.581809997558594, -2.3379547595977783, -0.2874094545841217, 1.932094693183899, -0.8146350979804993, -0.4274247884750366, -0.951171875, 0.523681640625, 0.37158203125, 0, 
26, 1006963881, 0.5572231411933899, -0.5541704893112183, -0.4572748839855194, -0.41629359126091003, 9.549762725830078, -2.3513946533203125, -0.2888818681240082, 1.831328272819519, -0.7187610864639282, -0.5632314682006836, -0.9482421875, 0.524169921875, 0.37158203125, 0, 
27, 1006972214, 0.5571913719177246, -0.5541332364082336, -0.4573523998260498, -0.41630029678344727, 9.546293258666992, -2.321622133255005, -0.2567656934261322, 1.6227385997772217, -0.7107309699058533, -0.6802244186401367, -0.94970703125, 0.525634765625, 0.375244140625, 0, 
28, 1006980547, 0.5571661591529846, -0.5541081428527832, -0.4574153423309326, -0.41629838943481445, 9.548562049865723, -2.2954301834106445, -0.33510783314704895, 1.5518513917922974, -0.6567490100860596, -0.47716763615608215, -0.952880859375, 0.525146484375, 0.37255859375, 0, 
29, 1006988880, 0.5571371912956238, -0.5540884137153625, -0.45747801661491394, -0.41629427671432495, 9.546024322509766, -2.29827880859375, -0.30154529213905334, 1.4890196323394775, -0.7619978785514832, -0.3581382632255554, -0.954833984375, 0.524658203125, 0.37158203125, 0, 
30, 1006997213, 0.5571010112762451, -0.5540663599967957, -0.4575574994087219, -0.41628462076187134, 9.547112464904785, -2.2734241485595703, -0.3344804346561432, 1.5866609811782837, -0.9285672307014465, -0.5862842202186584, -0.950927734375, 0.525634765625, 0.37158203125, 0, 
31, 1007005546, 0.5570738315582275, -0.5540313124656677, -0.45763662457466125, -0.4162808656692505, 9.572789192199707, -2.2933056354522705, -0.33624979853630066, 1.7145017385482788, -0.7884830236434937, -0.5740918517112732, -0.94970703125, 0.523681640625, 0.3720703125, 0, 
32, 1007013879, 0.5570542216300964, -0.5540053248405457, -0.4577096104621887, -0.4162614941596985, 9.562708854675293, -2.303243637084961, -0.3266947269439697, 1.7671259641647339, -0.8261486887931824, -0.3932681381702423, -0.95068359375, 0.526611328125, 0.373291015625, 0, 
33, 1007022212, 0.5570382475852966, -0.5539712309837341, -0.45777755975723267, -0.4162535071372986, 9.558463096618652, -2.3093390464782715, -0.3120878040790558, 1.7554203271865845, -0.6678014993667603, -0.38558390736579895, -0.950927734375, 0.526611328125, 0.372802734375, 0, 
34, 1007030545, 0.5570377111434937, -0.5539343953132629, -0.457845002412796, -0.4162290692329407, 9.541863441467285, -2.2644450664520264, -0.3506420850753784, 1.9956690073013306, -0.6398948431015015, -0.27153652906417847, -0.95068359375, 0.524169921875, 0.375244140625, 0, 
35, 1007038878, 0.5570377111434937, -0.5538917779922485, -0.4579262435436249, -0.41619640588760376, 9.55339527130127, -2.250762462615967, -0.34798377752304077, 2.1754682064056396, -0.8086029291152954, -0.260048508644104, -0.95361328125, 0.5224609375, 0.375244140625, 0, 
36, 1007047211, 0.5570416450500488, -0.5538472533226013, -0.45799484848976135, -0.41617491841316223, 9.584664344787598, -2.2236268520355225, -0.31464883685112, 2.0775961875915527, -0.5538181662559509, -0.3254416584968567, -0.94873046875, 0.523681640625, 0.376220703125, 0, 
37, 1007055544, 0.557051956653595, -0.5538005232810974, -0.45804184675216675, -0.4161713421344757, 9.587931632995605, -2.2828850746154785, -0.3236995041370392, 1.9058910608291626, -0.23460078239440918, -0.18808533251285553, -0.951171875, 0.524169921875, 0.37158203125, 0, 
38, 1007063877, 0.5570709705352783, -0.5537539720535278, -0.45809194445610046, -0.4161527454853058, 9.554071426391602, -2.3225455284118652, -0.3694351315498352, 2.0830390453338623, -0.2851376533508301, -0.13385997712612152, -0.952392578125, 0.525634765625, 0.373291015625, 0, 
39, 1007072210, 0.5570853352546692, -0.5537095665931702, -0.45813870429992676, -0.4161412715911865, 9.529230117797852, -2.322978973388672, -0.2876138389110565, 1.966699242591858, -0.2818077802658081, -0.0883178785443306, -0.947265625, 0.525146484375, 0.374755859375, 0, 
40, 1007080543, 0.557098388671875, -0.5536646842956543, -0.4581804573535919, -0.4161374568939209, 9.563865661621094, -2.312520980834961, -0.27791860699653625, 1.8839141130447388, -0.15386471152305603, -0.20655317604541779, -0.94873046875, 0.527587890625, 0.374755859375, 0, 
41, 1007088876, 0.5571097731590271, -0.5536185503005981, -0.45821720361709595, -0.4161432981491089, 9.575444221496582, -2.3162944316864014, -0.30900073051452637, 1.7901147603988647, -0.08270835876464844, -0.17302414774894714, -0.951171875, 0.523681640625, 0.373291015625, 0, 
42, 1007097209, 0.5571239590644836, -0.553571343421936, -0.45825108885765076, -0.41614973545074463, 9.568425178527832, -2.3083810806274414, -0.2884101867675781, 1.8010519742965698, 0.004367226734757423, -0.2337554693222046, -0.94970703125, 0.525146484375, 0.373291015625, 0, 
43, 1007105542, 0.5571240186691284, -0.5535323023796082, -0.45828282833099365, -0.4161667823791504, 9.546270370483398, -2.3267412185668945, -0.3229365646839142, 1.5507243871688843, -0.07020862400531769, -0.2410043478012085, -0.954833984375, 0.52392578125, 0.37255859375, 0, 
44, 1007113875, 0.5571243166923523, -0.5534996390342712, -0.458304762840271, -0.41618552803993225, 9.552593231201172, -2.286313056945801, -0.2841324508190155, 1.4376885890960693, 0.018147684633731842, -0.22496981918811798, -0.94775390625, 0.522705078125, 0.372802734375, 0, 
45, 1007122208, 0.5571209192276001, -0.5534671545028687, -0.4583277404308319, -0.41620779037475586, 9.55590534210205, -2.2930798530578613, -0.296199232339859, 1.3948103189468384, -0.022130697965621948, -0.19356676936149597, -0.953369140625, 0.5234375, 0.374755859375, 0, 
46, 1007130541, 0.5571163296699524, -0.5534375905990601, -0.45835191011428833, -0.4162266254425049, 9.554359436035156, -2.2844250202178955, -0.35155507922172546, 1.3900972604751587, -0.04661790654063225, -0.2511219382286072, -0.952880859375, 0.523681640625, 0.37158203125, 0, 
47, 1007138874, 0.5571013689041138, -0.5534139275550842, -0.4583640694618225, -0.41626468300819397, 9.561026573181152, -2.2631239891052246, -0.33614057302474976, 1.0749653577804565, 0.05749114975333214, -0.2433096170425415, -0.95068359375, 0.5224609375, 0.37109375, 0, 
48, 1007147207, 0.5570942163467407, -0.5533944964408875, -0.45837491750717163, -0.41628819704055786, 9.55955982208252, -2.2621653079986572, -0.36501672863960266, 1.186387300491333, 0.01704627275466919, -0.13588352501392365, -0.951904296875, 0.5234375, 0.37158203125, 0, 
49, 1007155540, 0.5570952296257019, -0.5533478856086731, -0.45841047167778015, -0.4163096845149994, 9.556620597839355, -2.28786563873291, -0.3623986542224884, 1.6103798151016235, -0.016111353412270546, -0.3480718731880188, -0.94921875, 0.5224609375, 0.374755859375, 0, 
50, 1007163873, 0.5570995807647705, -0.5532971620559692, -0.45844244956970215, -0.4163359999656677, 9.55189037322998, -2.2745625972747803, -0.34324410557746887, 1.6175519227981567, 0.12734118103981018, -0.4507593512535095, -0.95166015625, 0.5234375, 0.373291015625, 0, 
51, 1007172206, 0.5571049451828003, -0.5532405376434326, -0.45848578214645386, -0.41635653376579285, 9.554166793823242, -2.281094551086426, -0.351359486579895, 1.781226634979248, 0.0011398333590477705, -0.43790093064308167, -0.95263671875, 0.5205078125, 0.37060546875, 0, 
52, 1007180539, 0.5571227073669434, -0.5531817078590393, -0.45853033661842346, -0.41636180877685547, 9.542941093444824, -2.304745674133301, -0.32372382283210754, 1.9847575426101685, 0.003726871218532324, -0.35806143283843994, -0.95166015625, 0.5224609375, 0.374755859375, 0, 
53, 1007188872, 0.5571227669715881, -0.5531207919120789, -0.45859530568122864, -0.41637125611305237, 9.548453330993652, -2.3171770572662354, -0.27915164828300476, 1.9574272632598877, -0.256193608045578, -0.5760641694068909, -0.951904296875, 0.525634765625, 0.37060546875, 0, 
54, 1007197205, 0.5571160316467285, -0.5530756711959839, -0.4586488902568817, -0.4163811206817627, 9.572453498840332, -2.3355112075805664, -0.3076591193675995, 1.7172038555145264, -0.2639162838459015, -0.5157297849655151, -0.952880859375, 0.524658203125, 0.373779296875, 0, 
55, 1007205538, 0.5571079850196838, -0.5530378818511963, -0.45868247747421265, -0.4164049029350281, 9.590968132019043, -2.3112552165985107, -0.31747177243232727, 1.4508799314498901, -0.0919807180762291, -0.3484560549259186, -0.95263671875, 0.52294921875, 0.374755859375, 0, 
56, 1007213871, 0.5571116209030151, -0.5529854893684387, -0.4587351083755493, -0.41641172766685486, 9.590314865112305, -2.3014304637908936, -0.34610167145729065, 1.8654719591140747, -0.17315222322940826, -0.47178858518600464, -0.951904296875, 0.525634765625, 0.37255859375, 0, 
57, 1007222204, 0.557110607624054, -0.5529410243034363, -0.45879098773002625, -0.41641053557395935, 9.556699752807617, -2.289130210876465, -0.29001301527023315, 1.8397680521011353, -0.368652880191803, -0.3285665810108185, -0.947265625, 0.522705078125, 0.36962890625, 0, 
58, 1007230537, 0.5571066737174988, -0.552905797958374, -0.4588387608528137, -0.41640985012054443, 9.560722351074219, -2.283468008041382, -0.26941996812820435, 1.696533441543579, -0.33827441930770874, -0.31158438324928284, -0.95166015625, 0.52197265625, 0.37255859375, 0, 
59, 1007238870, 0.5570923089981079, -0.5528683662414551, -0.4588978588581085, -0.41641393303871155, 9.547323226928711, -2.232048749923706, -0.31925350427627563, 1.6667695045471191, -0.4775902032852173, -0.42543962597846985, -0.953125, 0.52099609375, 0.37158203125, 0, 
60, 1007247203, 0.5570895671844482, -0.5528231859207153, -0.45897239446640015, -0.41639551520347595, 9.53419017791748, -2.241788625717163, -0.3406200408935547, 2.046436309814453, -0.6137683391571045, -0.4365946054458618, -0.94970703125, 0.523681640625, 0.373291015625, 0, 
61, 1007255536, 0.5570811629295349, -0.5527822971343994, -0.4590357542037964, -0.41639089584350586, 9.548032760620117, -2.221961736679077, -0.3179229199886322, 1.8206981420516968, -0.5195847153663635, -0.37865522503852844, -0.95166015625, 0.521484375, 0.3701171875, 0, 
62, 1007263869, 0.557070791721344, -0.5527510046958923, -0.4590988755226135, -0.4163767695426941, 9.526141166687012, -2.2173869609832764, -0.27756139636039734, 1.7891157865524292, -0.6222978234291077, -0.3383128046989441, -0.9482421875, 0.524169921875, 0.3720703125, 0, 
63, 1007272202, 0.5570659637451172, -0.5527183413505554, -0.4591444134712219, -0.41637641191482544, 9.566353797912598, -2.203129768371582, -0.29837071895599365, 1.6554607152938843, -0.3737117052078247, -0.20309525728225708, -0.951171875, 0.5205078125, 0.36962890625, 0, 
64, 1007280535, 0.5570685267448425, -0.5526829957962036, -0.45919564366340637, -0.4163632392883301, 9.586943626403809, -2.224713087081909, -0.2829415798187256, 1.8452110290527344, -0.41843411326408386, -0.20629702508449554, -0.950927734375, 0.524169921875, 0.3701171875, 0, 
65, 1007288868, 0.5570551156997681, -0.5526643991470337, -0.4592161774635315, -0.41638338565826416, 9.60838508605957, -2.2661349773406982, -0.27192962169647217, 1.2082618474960327, -0.162189319729805, -0.13193891942501068, -0.952392578125, 0.524169921875, 0.373779296875, 0, 
66, 1007297201, 0.5570440292358398, -0.5526374578475952, -0.4592462182044983, -0.4164009094238281, 9.612848281860352, -2.293609380722046, -0.3191812038421631, 1.3612045049667358, -0.15768124163150787, -0.306013286113739, -0.952880859375, 0.5234375, 0.3720703125, 0, 
67, 1007305534, 0.5570324659347534, -0.5526037812232971, -0.45928195118904114, -0.41642168164253235, 9.580582618713379, -2.31343674659729, -0.318837970495224, 1.4251118898391724, -0.17484275996685028, -0.3363405168056488, -0.94921875, 0.523193359375, 0.3701171875, 0, 
68, 1007313867, 0.5570168495178223, -0.5525866150856018, -0.4593183696269989, -0.4164252281188965, 9.54709243774414, -2.2982442378997803, -0.323859304189682, 1.3767523765563965, -0.3968157172203064, -0.2111637443304062, -0.9521484375, 0.5205078125, 0.37109375, 0, 
69, 1007322200, 0.557013750076294, -0.5525534749031067, -0.45934784412384033, -0.41644051671028137, 9.555733680725098, -2.276263475418091, -0.32973891496658325, 1.4801057577133179, -0.11861952394247055, -0.19553905725479126, -0.952392578125, 0.525146484375, 0.37109375, 0, 
70, 1007330533, 0.5570123791694641, -0.552524745464325, -0.4593771994113922, -0.41644802689552307, 9.558094024658203, -2.2477807998657227, -0.31245049834251404, 1.508742332458496, -0.1556064635515213, -0.17845436930656433, -0.945556640625, 0.523193359375, 0.37109375, 0, 
71, 1007338866, 0.5569960474967957, -0.5525067448616028, -0.45940104126930237, -0.41646766662597656, 9.55576229095459, -2.204928159713745, -0.34013915061950684, 1.2042148113250732, -0.2110612988471985, -0.16641566157341003, -0.951416015625, 0.524169921875, 0.36962890625, 0, 
72, 1007347199, 0.5569871068000793, -0.5524853467941284, -0.45942604541778564, -0.4164806604385376, 9.570561408996582, -2.2440688610076904, -0.3452891409397125, 1.333733081817627, -0.17050112783908844, -0.18515248596668243, -0.952392578125, 0.524658203125, 0.37109375, 0, 
73, 1007355532, 0.5569685697555542, -0.5524657964706421, -0.45944681763648987, -0.41650819778442383, 9.559330940246582, -2.2637314796447754, -0.2848692536354065, 1.135274052619934, -0.13633176684379578, -0.2276977300643921, -0.947021484375, 0.523193359375, 0.373291015625, 0, 
74, 1007363865, 0.5569270253181458, -0.5524665117263794, -0.4594811797142029, -0.41652488708496094, 9.549824714660645, -2.276292085647583, -0.27934712171554565, 0.9488665461540222, -0.5468639135360718, -0.3309102952480316, -0.9521484375, 0.5205078125, 0.3701171875, 0, 
75, 1007372198, 0.5568819642066956, -0.5524718165397644, -0.45950573682785034, -0.41655105352401733, 9.541255950927734, -2.253917694091797, -0.2877730429172516, 0.7695925831794739, -0.4832637310028076, -0.2395443171262741, -0.951171875, 0.52197265625, 0.37158203125, 0, 
76, 1007380531, 0.5568253397941589, -0.5524921417236328, -0.4595223069190979, -0.41658148169517517, 9.553544044494629, -2.252251386642456, -0.301885724067688, 0.4937271773815155, -0.513821542263031, -0.2642108201980591, -0.94873046875, 0.5224609375, 0.37060546875, 0, 
77, 1007388864, 0.556770920753479, -0.5525116920471191, -0.45953571796417236, -0.4166135787963867, 9.542593955993652, -2.2582309246063232, -0.3129081726074219, 0.4906022548675537, -0.49545609951019287, -0.1647251397371292, -0.95263671875, 0.52294921875, 0.373046875, 0, 
78, 1007397197, 0.5567260384559631, -0.5525336265563965, -0.45955121517181396, -0.41662731766700745, 9.576433181762695, -2.245677947998047, -0.37754136323928833, 0.6710289120674133, -0.5676626563072205, -0.05097232386469841, -0.94873046875, 0.525634765625, 0.37109375, 0, 
79, 1007405530, 0.5566861033439636, -0.5525477528572083, -0.4595699906349182, -0.41664132475852966, 9.615616798400879, -2.2644612789154053, -0.3618909418582916, 0.7853964567184448, -0.5506548285484314, -0.01728960871696472, -0.95166015625, 0.52099609375, 0.37255859375, 0, 
80, 1007413863, 0.556655764579773, -0.5525500774383545, -0.4596022963523865, -0.41664305329322815, 9.61557388305664, -2.286957025527954, -0.37375035881996155, 1.1050236225128174, -0.5833001136779785, -0.12700818479061127, -0.9501953125, 0.52099609375, 0.374267578125, 0, 
81, 1007422196, 0.5566338300704956, -0.552538275718689, -0.4596579670906067, -0.4166264235973358, 9.573777198791504, -2.31644344329834, -0.30902090668678284, 1.5249049663543701, -0.8013925552368164, -0.12381920218467712, -0.94921875, 0.523681640625, 0.37158203125, 0, 
82, 1007430529, 0.5566269159317017, -0.5525230765342712, -0.4597011208534241, -0.41660821437835693, 9.547764778137207, -2.2622270584106445, -0.31092461943626404, 1.605487585067749, -0.569737434387207, -0.03311920911073685, -0.94970703125, 0.52197265625, 0.374267578125, 0, 
83, 1007438862, 0.5566281676292419, -0.5525001883506775, -0.45975303649902344, -0.4165797233581543, 9.55423641204834, -2.247318983078003, -0.33862051367759705, 1.8397810459136963, -0.6535985469818115, 0.056005530059337616, -0.955810546875, 0.51953125, 0.3720703125, 0, 
84, 1007447195, 0.5566376447677612, -0.5524758100509644, -0.45981085300445557, -0.4165356457233429, 9.555704116821289, -2.2090039253234863, -0.3004113733768463, 2.0462570190429688, -0.721783459186554, 0.08886858820915222, -0.951171875, 0.518310546875, 0.375244140625, 0, 
85, 1007455528, 0.556637167930603, -0.552456796169281, -0.4598471522331238, -0.41652145981788635, 9.580421447753906, -2.2469778060913086, -0.29721394181251526, 1.6140424013137817, -0.45493435859680176, 0.08218327164649963, -0.952880859375, 0.524658203125, 0.37109375, 0, 
86, 1007463861, 0.5566319227218628, -0.5524532794952393, -0.4598669409751892, -0.41651129722595215, 9.565389633178711, -2.2585816383361816, -0.2992965281009674, 1.3433257341384888, -0.3872103989124298, 0.16509655117988586, -0.94970703125, 0.5224609375, 0.372802734375, 0, 
87, 1007472194, 0.5566402673721313, -0.5524294376373291, -0.45988720655441284, -0.41650936007499695, 9.57564640045166, -2.2603416442871094, -0.35935178399086, 1.552222728729248, -0.15818069875240326, 0.12919819355010986, -0.94873046875, 0.523681640625, 0.37158203125, 0, 
88, 1007480527, 0.5566443800926208, -0.5524119138717651, -0.45991504192352295, -0.416496217250824, 9.558036804199219, -2.3023428916931152, -0.32964593172073364, 1.5853420495986938, -0.3305132985115051, 0.09233932197093964, -0.95068359375, 0.521484375, 0.373291015625, 0, 
89, 1007488860, 0.5566408634185791, -0.5524008870124817, -0.45993131399154663, -0.4164976477622986, 9.535297393798828, -2.264997720718384, -0.32654157280921936, 1.3188512325286865, -0.25108352303504944, 0.14541201293468475, -0.951171875, 0.521484375, 0.37255859375, 0, 
90, 1007497193, 0.5566442608833313, -0.5523883700370789, -0.45994850993156433, -0.41649067401885986, 9.538809776306152, -2.271864414215088, -0.3040888011455536, 1.4422736167907715, -0.23529238998889923, 0.15403123199939728, -0.95263671875, 0.5224609375, 0.375732421875, 0, 
91, 1007505526, 0.5566275119781494, -0.5523859262466431, -0.4599669575691223, -0.4164960980415344, 9.551884651184082, -2.268044948577881, -0.3106694221496582, 1.141639232635498, -0.36976704001426697, 0.07749585807323456, -0.951171875, 0.52294921875, 0.37060546875, 0, 
92, 1007513859, 0.5566065311431885, -0.5523937344551086, -0.45998507738113403, -0.4164935052394867, 9.574581146240234, -2.253460168838501, -0.36105406284332275, 1.0789098739624023, -0.47985708713531494, 0.10241851210594177, -0.94921875, 0.521484375, 0.3720703125, 0, 
93, 1007522192, 0.5565893054008484, -0.5523859262466431, -0.4600179195404053, -0.41649067401885986, 9.593757629394531, -2.262723207473755, -0.33384469151496887, 1.3124990463256836, -0.5162677764892578, -0.006518822629004717, -0.9521484375, 0.52099609375, 0.373291015625, 0, 
94, 1007530525, 0.5565902590751648, -0.5523728132247925, -0.4600432515144348, -0.4164787828922272, 9.578378677368164, -2.2775795459747314, -0.3387371897697449, 1.507205605506897, -0.3476620018482208, 0.1120750829577446, -0.951171875, 0.523681640625, 0.372802734375, 0, 
95, 1007538858, 0.5565865635871887, -0.5523583292961121, -0.4600663185119629, -0.41647741198539734, 9.57707691192627, -2.3246166706085205, -0.33777156472206116, 1.4034677743911743, -0.30383604764938354, 0.09178859740495682, -0.94970703125, 0.52001953125, 0.3720703125, 0, 
96, 1007547191, 0.5565599799156189, -0.5523535013198853, -0.46010053157806396, -0.41648149490356445, 9.551491737365723, -2.3362185955047607, -0.3163130283355713, 1.1834160089492798, -0.5161012411117554, -0.18452493846416473, -0.94921875, 0.522705078125, 0.37109375, 0, 
97, 1007555524, 0.5565346479415894, -0.5523433685302734, -0.46015024185180664, -0.4164741039276123, 9.557886123657227, -2.3362042903900146, -0.39637479186058044, 1.395361065864563, -0.7173393964767456, -0.16087017953395844, -0.951904296875, 0.524658203125, 0.37255859375, 0, 
98, 1007563857, 0.5565139651298523, -0.5523277521133423, -0.46020716428756714, -0.4164595305919647, 9.533977508544922, -2.3768277168273926, -0.34413114190101624, 1.5588053464889526, -0.7329384088516235, -0.24847087264060974, -0.95166015625, 0.52294921875, 0.375732421875, 0, 
99, 1007572190, 0.5564790368080139, -0.5523117780685425, -0.4602534770965576, -0.4164762496948242, 9.547951698303223, -2.3309903144836426, -0.3348819613456726, 1.1953266859054565, -0.5330065488815308, -0.41118529438972473, -0.947998046875, 0.51806640625, 0.373046875, 0, 
100, 1007580523, 0.5564494132995605, -0.5522934198379517, -0.4603115916252136, -0.4164760410785675, 9.543244361877441, -2.334451913833618, -0.32961711287498474, 1.4259059429168701, -0.6731932759284973, -0.4360567629337311, -0.953857421875, 0.524658203125, 0.373291015625, 0, 
101, 1007588856, 0.5564147233963013, -0.5522776246070862, -0.4603676497936249, -0.41648146510124207, 9.558394432067871, -2.2699975967407227, -0.360939621925354, 1.3204009532928467, -0.6921734809875488, -0.39709749817848206, -0.951171875, 0.5224609375, 0.3720703125, 0, 
102, 1007597189, 0.5563883185386658, -0.5522651672363281, -0.4604049026966095, -0.4164921045303345, 9.556485176086426, -2.2086408138275146, -0.334903359413147, 1.2192376852035522, -0.44557246565818787, -0.304028183221817, -0.953369140625, 0.52099609375, 0.37255859375, 0, 
103, 1007605522, 0.5563634634017944, -0.5522470474243164, -0.4604388475418091, -0.4165116846561432, 9.548050880432129, -2.1939198970794678, -0.33105504512786865, 1.1999757289886475, -0.34023383259773254, -0.297176331281662, -0.9501953125, 0.52099609375, 0.373046875, 0, 
104, 1007613855, 0.5563371777534485, -0.5522345900535583, -0.46046173572540283, -0.416537880897522, 9.56644058227539, -2.1938626766204834, -0.33297935128211975, 1.0400019884109497, -0.2162097543478012, -0.31359508633613586, -0.95068359375, 0.5224609375, 0.373291015625, 0, 
105, 1007622188, 0.5563059449195862, -0.5522290468215942, -0.4604805111885071, -0.41656607389450073, 9.551097869873047, -2.210257053375244, -0.332378089427948, 0.9099841117858887, -0.271638959646225, -0.20424789190292358, -0.94970703125, 0.52197265625, 0.373291015625, 0, 
106, 1007630521, 0.5562731623649597, -0.5522346496582031, -0.46050262451171875, -0.41657793521881104, 9.561827659606934, -2.211179733276367, -0.37197640538215637, 0.9392867684364319, -0.4627723693847656, -0.11987461149692535, -0.95166015625, 0.52197265625, 0.373779296875, 0, 
107, 1007638854, 0.5562679767608643, -0.5522128939628601, -0.4605412483215332, -0.41657108068466187, 9.545769691467285, -2.2203855514526367, -0.3466911315917969, 1.5742381811141968, -0.4328550100326538, -0.041341379284858704, -0.95361328125, 0.518798828125, 0.37255859375, 0, 
108, 1007647187, 0.5562583208084106, -0.5521998405456543, -0.4605731964111328, -0.4165658950805664, 9.559602737426758, -2.2102999687194824, -0.2924225330352783, 1.4208087921142578, -0.4149506092071533, -0.049691613763570786, -0.95166015625, 0.52099609375, 0.373046875, 0, 
109, 1007655520, 0.5562458634376526, -0.5521934032440186, -0.46060559153556824, -0.41655516624450684, 9.6068115234375, -2.1935768127441406, -0.328666090965271, 1.3898026943206787, -0.5480037331581116, 0.09054630994796753, -0.949951171875, 0.518310546875, 0.374267578125, 0, 
110, 1007663853, 0.5562443137168884, -0.5521805882453918, -0.4606435298919678, -0.41653236746788025, 9.593971252441406, -2.2065272331237793, -0.3263401985168457, 1.6238911151885986, -0.5438798666000366, 0.08670417964458466, -0.9521484375, 0.521484375, 0.37060546875, 0, 
111, 1007672186, 0.5562477111816406, -0.5521711707115173, -0.46066248416900635, -0.4165191650390625, 9.608993530273438, -2.2016165256500244, -0.3105621337890625, 1.4694117307662964, -0.3480333983898163, 0.28290918469429016, -0.953369140625, 0.5224609375, 0.37255859375, 0, 
112, 1007680519, 0.5562694072723389, -0.5521607398986816, -0.4606483578681946, -0.41651982069015503, 9.639564514160156, -2.1653730869293213, -0.2720226049423218, 1.3380364179611206, 0.1670304387807846, 0.45132285356521606, -0.95166015625, 0.52294921875, 0.3720703125, 0, 
113, 1007688852, 0.556304931640625, -0.5521278977394104, -0.4606342017650604, -0.41653168201446533, 9.59458065032959, -2.186523914337158, -0.3261195719242096, 1.54243803024292, 0.43631285429000854, 0.3798846900463104, -0.95068359375, 0.52294921875, 0.3720703125, 0, 
114, 1007697185, 0.5563345551490784, -0.5521062612533569, -0.4606311619281769, -0.41652408242225647, 9.580689430236816, -2.2200353145599365, -0.32008281350135803, 1.5986484289169312, 0.13182365894317627, 0.4036162793636322, -0.954345703125, 0.521484375, 0.373046875, 0, 
115, 1007705518, 0.556365966796875, -0.552078366279602, -0.46063053607940674, -0.4165198504924774, 9.575484275817871, -2.2359628677368164, -0.30341580510139465, 1.6569206714630127, 0.1537238210439682, 0.4063057601451874, -0.94970703125, 0.52197265625, 0.37158203125, 0, 
116, 1007713851, 0.5563900470733643, -0.5520659685134888, -0.46061962842941284, -0.4165162444114685, 9.577048301696777, -2.2405710220336914, -0.30706465244293213, 1.4154679775238037, 0.13496139645576477, 0.4602365493774414, -0.949462890625, 0.51904296875, 0.373046875, 0, 
117, 1007722184, 0.5564068555831909, -0.5520498156547546, -0.4606183171272278, -0.4165166914463043, 9.581326484680176, -2.2380244731903076, -0.34690573811531067, 1.4195023775100708, 0.03628256171941757, 0.3675002157688141, -0.95263671875, 0.5205078125, 0.373046875, 0, 
118, 1007730517, 0.5564314723014832, -0.5520234704017639, -0.4606245160102844, -0.4165116548538208, 9.575310707092285, -2.2448196411132812, -0.37494486570358276, 1.6338679790496826, 0.07631761580705643, 0.2554379403591156, -0.9521484375, 0.51953125, 0.37255859375, 0, 
119, 1007738850, 0.5564473867416382, -0.5520171523094177, -0.46062156558036804, -0.4165021777153015, 9.575654029846191, -2.2491114139556885, -0.31635594367980957, 1.3921592235565186, -0.08966262638568878, 0.5130018591880798, -0.949951171875, 0.51904296875, 0.376220703125, 0, 
120, 1007747183, 0.5564641356468201, -0.5520067811012268, -0.4606264531612396, -0.41648805141448975, 9.549324035644531, -2.3014414310455322, -0.27388235926628113, 1.5025053024291992, -0.12237200886011124, 0.39217954874038696, -0.953369140625, 0.5234375, 0.37109375, 0, 
121, 1007755516, 0.5564761757850647, -0.5520011186599731, -0.4606212377548218, -0.4164852797985077, 9.562070846557617, -2.29242205619812, -0.28736570477485657, 1.302714467048645, -0.04891038313508034, 0.46051836013793945, -0.9501953125, 0.5205078125, 0.369140625, 0, 
122, 1007763849, 0.5564550161361694, -0.552020788192749, -0.46061548590660095, -0.41649383306503296, 9.534317970275879, -2.273087739944458, -0.3502604067325592, 0.7795435786247253, -0.28374168276786804, 0.27181825041770935, -0.9521484375, 0.517822265625, 0.374267578125, 0, 
123, 1007772182, 0.5564360618591309, -0.55203777551651, -0.4606112241744995, -0.4165011942386627, 9.560318946838379, -2.2486464977264404, -0.33739227056503296, 0.8339610695838928, -0.3052704632282257, 0.3410407304763794, -0.951171875, 0.521484375, 0.373046875, 0, 
124, 1007780515, 0.5564353466033936, -0.5520445108413696, -0.46062207221984863, -0.4164813160896301, 9.528717041015625, -2.261972188949585, -0.35325053334236145, 1.308874487876892, -0.4206625521183014, 0.39867275953292847, -0.953125, 0.52001953125, 0.37255859375, 0, 
125, 1007788848, 0.5564179420471191, -0.5520442724227905, -0.4606517553329468, -0.4164724051952362, 9.543838500976562, -2.25620698928833, -0.3155476748943329, 1.2749357223510742, -0.5796501040458679, 0.10782311856746674, -0.94921875, 0.525146484375, 0.375732421875, 0, 
126, 1007797181, 0.5563927888870239, -0.552066445350647, -0.4606665074825287, -0.4164603352546692, 9.546127319335938, -2.2237257957458496, -0.3511902689933777, 0.9777721166610718, -0.6352201104164124, 0.2668234705924988, -0.9521484375, 0.518310546875, 0.373046875, 0, 
127, 1007805514, 0.5563686490058899, -0.5520813465118408, -0.46069222688674927, -0.41644394397735596, 9.557579040527344, -2.2225098609924316, -0.36990928649902344, 1.1334426403045654, -0.7364603877067566, 0.2513396739959717, -0.948486328125, 0.51953125, 0.37158203125, 0, 
128, 1007813847, 0.5563622713088989, -0.5520894527435303, -0.4607093930244446, -0.4164227843284607, 9.587069511413574, -2.2498409748077393, -0.37185484170913696, 1.3000632524490356, -0.5218899846076965, 0.3376852571964264, -0.95263671875, 0.52099609375, 0.373291015625, 0, 
129, 1007822180, 0.5563535094261169, -0.5521093010902405, -0.4607144296169281, -0.4164026975631714, 9.604816436767578, -2.2964560985565186, -0.34624767303466797, 1.1123108863830566, -0.5348508358001709, 0.5566869974136353, -0.953125, 0.51953125, 0.377685546875, 0, 
130, 1007830513, 0.556338906288147, -0.5521292686462402, -0.46072596311569214, -0.41638314723968506, 9.580182075500488, -2.2884089946746826, -0.34162694215774536, 1.104985237121582, -0.5877185463905334, 0.3951379656791687, -0.9501953125, 0.5205078125, 0.373046875, 0, 
131, 1007838846, 0.5563297867774963, -0.5521315932273865, -0.4607676565647125, -0.41634583473205566, 9.599430084228516, -2.238264799118042, -0.3544470965862274, 1.5685516595840454, -0.8492143154144287, 0.29601091146469116, -0.95068359375, 0.525146484375, 0.374267578125, 0, 
132, 1007847179, 0.5563321113586426, -0.5521409511566162, -0.46079298853874207, -0.4163021445274353, 9.564554214477539, -2.237431764602661, -0.3287198543548584, 1.547010064125061, -0.7098729014396667, 0.505586564540863, -0.9521484375, 0.51904296875, 0.373291015625, 0, 
133, 1007855512, 0.5563345551490784, -0.5521460175514221, -0.46081069111824036, -0.41627267003059387, 9.566713333129883, -2.235678195953369, -0.32739993929862976, 1.4447709321975708, -0.5471584796905518, 0.5021926760673523, -0.95166015625, 0.52197265625, 0.374267578125, 0, 
134, 1007863845, 0.5563421845436096, -0.5521429181098938, -0.4608318507671356, -0.4162432551383972, 9.57915210723877, -2.2347769737243652, -0.3353899121284485, 1.5678728818893433, -0.46488553285598755, 0.3781941831111908, -0.953369140625, 0.52294921875, 0.373046875, 0, 
135, 1007872178, 0.5563377141952515, -0.5521453022956848, -0.4608476758003235, -0.41622865200042725, 9.565811157226562, -2.234140396118164, -0.29413938522338867, 1.3082597255706787, -0.4473269581794739, 0.34695756435394287, -0.95263671875, 0.518310546875, 0.373046875, 0, 
136, 1007880511, 0.5563512444496155, -0.55214524269104, -0.4608462154865265, -0.4162122309207916, 9.598106384277344, -2.2404708862304688, -0.3456614315509796, 1.37648344039917, -0.17150011658668518, 0.5048309564590454, -0.94921875, 0.5205078125, 0.373046875, 0, 
137, 1007888844, 0.5563974976539612, -0.5521138310432434, -0.4608250856399536, -0.41621530055999756, 9.59641170501709, -2.193209648132324, -0.3906412720680237, 1.6285020112991333, 0.48303326964378357, 0.5672272443771362, -0.9521484375, 0.52099609375, 0.3720703125, 0, 
138, 1007897177, 0.556460976600647, -0.5520663261413574, -0.46080753207206726, -0.41621291637420654, 9.575572967529297, -2.1891870498657227, -0.3528503179550171, 1.9377936124801636, 0.6451200842857361, 0.5035502314567566, -0.9521484375, 0.52197265625, 0.3720703125, 0, 
139, 1007905510, 0.5565057396888733, -0.5520280003547668, -0.4607939124107361, -0.41621899604797363, 9.57121467590332, -2.2154793739318848, -0.3862549960613251, 1.691179871559143, 0.48036935925483704, 0.4351345896720886, -0.956298828125, 0.52001953125, 0.373779296875, 0, 
140, 1007913843, 0.556553065776825, -0.5519988536834717, -0.4607715904712677, -0.41621899604797363, 9.580349922180176, -2.2385706901550293, -0.37236684560775757, 1.6334965229034424, 0.49179330468177795, 0.5464540719985962, -0.9482421875, 0.524169921875, 0.37255859375, 0, 
141, 1007922176, 0.5566083192825317, -0.5519586205482483, -0.46074917912483215, -0.4162234365940094, 9.581395149230957, -2.2945022583007812, -0.3526618778705597, 1.7464553117752075, 0.6123082637786865, 0.5618994235992432, -0.951171875, 0.5205078125, 0.37060546875, 0, 
142, 1007930509, 0.5566653609275818, -0.5519112348556519, -0.46074554324150085, -0.4162139296531677, 9.587888717651367, -2.294105291366577, -0.32428836822509766, 2.0117037296295166, 0.44365134835243225, 0.4175504446029663, -0.95263671875, 0.5205078125, 0.37109375, 0, 
143, 1007938842, 0.5567206740379333, -0.5518559217453003, -0.46074503660202026, -0.41621387004852295, 9.549595832824707, -2.2889580726623535, -0.2867719531059265, 2.0177228450775146, 0.49544331431388855, 0.3339456021785736, -0.955810546875, 0.5234375, 0.37158203125, 0, 
144, 1007947175, 0.5567696690559387, -0.5518238544464111, -0.46073591709136963, -0.4162009656429291, 9.542556762695312, -2.273817539215088, -0.32783472537994385, 1.8246300220489502, 0.32215023040771484, 0.5357985496520996, -0.94921875, 0.5224609375, 0.37255859375, 0, 
145, 1007955508, 0.5568206906318665, -0.5517933368682861, -0.46072524785995483, -0.416185200214386, 9.576142311096191, -2.2583770751953125, -0.32941561937332153, 1.8371937274932861, 0.2857908010482788, 0.6634727120399475, -0.952880859375, 0.521484375, 0.37060546875, 0, 
146, 1007963841, 0.5568612813949585, -0.5517686009407043, -0.4607137441635132, -0.41617631912231445, 9.576300621032715, -2.2220194339752197, -0.32284975051879883, 1.6653224229812622, 0.2735728621482849, 0.5206477642059326, -0.95068359375, 0.52294921875, 0.37060546875, 0, 
147, 1007972174, 0.5568875074386597, -0.5517600178718567, -0.46069616079330444, -0.41617193818092346, 9.595417022705078, -2.1815667152404785, -0.2461862415075302, 1.3675824403762817, 0.1437855064868927, 0.6268956065177917, -0.95166015625, 0.5234375, 0.37255859375, 0, 
148, 1007980507, 0.5568940043449402, -0.5517708659172058, -0.46065011620521545, -0.41619983315467834, 9.572685241699219, -2.164121150970459, -0.293080598115921, 0.7049165368080139, 0.39816048741340637, 0.5316874980926514, -0.95263671875, 0.52197265625, 0.3720703125, 0, 
149, 1007988840, 0.5568968653678894, -0.5517824292182922, -0.4606022834777832, -0.4162335693836212, 9.5590238571167, -2.2384679317474365, -0.29901745915412903, 0.624295711517334, 0.4005553722381592, 0.5578267574310303, -0.951904296875, 0.524169921875, 0.37255859375, 0, 
150, 1007997173, 0.5568972826004028, -0.551805317401886, -0.4605714976787567, -0.41623666882514954, 9.550089836120605, -2.267601490020752, -0.3343167304992676, 0.8105496168136597, -0.013626772910356522, 0.6473869681358337, -0.9501953125, 0.52099609375, 0.3701171875, 0, 
151, 1008005506, 0.5568628311157227, -0.5518555045127869, -0.4605424702167511, -0.4162483513355255, 9.57287883758545, -2.2869069576263428, -0.3093103766441345, 0.29387208819389343, -0.3694213032722473, 0.6149465441703796, -0.95068359375, 0.526123046875, 0.3720703125, 0, 
152, 1008013839, 0.5568427443504333, -0.5519008040428162, -0.4605056047439575, -0.41625604033470154, 9.571627616882324, -2.306427240371704, -0.32709991931915283, 0.4192921817302704, -0.19028814136981964, 0.6831444501876831, -0.953125, 0.5205078125, 0.37109375, 0, 
153, 1008022172, 0.5568320751190186, -0.5519356727600098, -0.46048757433891296, -0.41624411940574646, 9.552556991577148, -2.280061721801758, -0.3707175552845001, 0.8057599067687988, -0.3939213156700134, 0.7506380081176758, -0.94873046875, 0.52197265625, 0.3720703125, 0, 
154, 1008030505, 0.556821346282959, -0.5519711375236511, -0.4604851305484772, -0.4162140190601349, 9.54786491394043, -2.2660279273986816, -0.35242030024528503, 0.9998644590377808, -0.6257044672966003, 0.702893078327179, -0.951171875, 0.52099609375, 0.36962890625, 0, 
155, 1008038838, 0.5568270087242126, -0.5519874095916748, -0.46047741174697876, -0.4161934554576874, 9.553201675415039, -2.245062828063965, -0.3056478500366211, 1.1828012466430664, -0.3262740969657898, 0.7139327526092529, -0.94775390625, 0.522705078125, 0.369140625, 0, 
156, 1008047171, 0.5568256974220276, -0.55201256275177, -0.46045565605163574, -0.41618573665618896, 9.535848617553711, -2.2349987030029297, -0.3031303286552429, 0.9002506136894226, -0.1905442774295807, 0.6658548712730408, -0.9501953125, 0.5205078125, 0.37158203125, 0, 
157, 1008055504, 0.5568117499351501, -0.5520409345626831, -0.4604407548904419, -0.4161832332611084, 9.528888702392578, -2.2413861751556396, -0.34882983565330505, 0.7848714590072632, -0.32772135734558105, 0.595223605632782, -0.94921875, 0.52001953125, 0.3720703125, 0, 
158, 1008063837, 0.556793212890625, -0.5520730018615723, -0.4604339301586151, -0.4161730408668518, 9.573944091796875, -2.2509567737579346, -0.32884481549263, 0.8184515833854675, -0.47087928652763367, 0.5175868272781372, -0.95068359375, 0.52197265625, 0.3720703125, 0, 
159, 1008072170, 0.556786060333252, -0.5520957708358765, -0.46041372418403625, -0.41617506742477417, 9.564424514770508, -2.2565500736236572, -0.3298601806163788, 0.8218712210655212, -0.1798887848854065, 0.6026901602745056, -0.94873046875, 0.5205078125, 0.3720703125, 0, 
160, 1008080503, 0.556783139705658, -0.552127480506897, -0.4603947401046753, -0.41615790128707886, 9.564416885375977, -2.2949109077453613, -0.3163696825504303, 0.912622332572937, -0.3296295702457428, 0.7495109438896179, -0.951171875, 0.525146484375, 0.377197265625, 0, 
161, 1008088836, 0.5567593574523926, -0.5521611571311951, -0.4603770673274994, -0.41616469621658325, 9.561190605163574, -2.326683759689331, -0.31947407126426697, 0.590523362159729, -0.3279646635055542, 0.5222101807594299, -0.94970703125, 0.523193359375, 0.373779296875, 0, 
162, 1008097169, 0.5567424297332764, -0.5522009134292603, -0.46037524938583374, -0.4161366820335388, 9.552879333496094, -2.3105616569519043, -0.35655468702316284, 0.9126478433609009, -0.6783416867256165, 0.6736158728599548, -0.94970703125, 0.52294921875, 0.37109375, 0, 
163, 1008105502, 0.5567336082458496, -0.5522199869155884, -0.46038588881492615, -0.4161110520362854, 9.563264846801758, -2.2806625366210938, -0.37425076961517334, 1.1903573274612427, -0.6137170791625977, 0.5483623147010803, -0.951904296875, 0.526611328125, 0.372802734375, 0, 
164, 1008113835, 0.5567371845245361, -0.5522318482398987, -0.4604050815105438, -0.4160694479942322, 9.595988273620605, -2.2342331409454346, -0.3113369047641754, 1.4880719184875488, -0.6544948816299438, 0.5587617754936218, -0.952880859375, 0.5234375, 0.373291015625, 0, 
165, 1008122168, 0.5567282438278198, -0.5522394180297852, -0.46043798327445984, -0.41603487730026245, 9.61014461517334, -2.23325777053833, -0.2903708815574646, 1.4591020345687866, -0.7854604721069336, 0.37267428636550903, -0.95166015625, 0.5224609375, 0.374755859375, 0, 
166, 1008130501, 0.5567265152931213, -0.5522609353065491, -0.4604176878929138, -0.4160311222076416, 9.60047435760498, -2.173841953277588, -0.26660075783729553, 0.9094846248626709, -0.15208451449871063, 0.5998597741127014, -0.9521484375, 0.52197265625, 0.37255859375, 0, 
167, 1008138834, 0.5567100048065186, -0.552302896976471, -0.460366427898407, -0.41605424880981445, 9.563944816589355, -2.216308355331421, -0.36109697818756104, 0.2892231345176697, 0.050780218094587326, 0.744797945022583, -0.94970703125, 0.523681640625, 0.373291015625, 0, 
168, 1008147167, 0.5567314624786377, -0.5523029565811157, -0.46033090353012085, -0.4160647690296173, 9.578235626220703, -2.2414863109588623, -0.4256156086921692, 1.0709950923919678, 0.34362778067588806, 0.6034842133522034, -0.95068359375, 0.523681640625, 0.3701171875, 0, 
169, 1008155500, 0.5567671060562134, -0.5522838234901428, -0.4603123664855957, -0.41606298089027405, 9.568078994750977, -2.326083183288574, -0.35690540075302124, 1.4992140531539917, 0.28865963220596313, 0.5967220664024353, -0.955322265625, 0.52392578125, 0.37060546875, 0, 
170, 1008163833, 0.5567927956581116, -0.5522938370704651, -0.4602639675140381, -0.41606879234313965, 9.563093185424805, -2.323772668838501, -0.3353610336780548, 0.9833688139915466, 0.37646520137786865, 0.8244581818580627, -0.94873046875, 0.524658203125, 0.369140625, 0, 
171, 1008172166, 0.5568244457244873, -0.5522932410240173, -0.46020209789276123, -0.4160957336425781, 9.57478141784668, -2.2885875701904297, -0.3710249066352844, 0.8981247544288635, 0.7104235887527466, 0.8032239675521851, -0.94970703125, 0.523193359375, 0.3701171875, 0, 
172, 1008180499, 0.556861937046051, -0.5522914528846741, -0.4601552486419678, -0.41609978675842285, 9.579473495483398, -2.2777090072631836, -0.40882107615470886, 1.181776762008667, 0.4926513731479645, 0.8176960349082947, -0.952392578125, 0.525146484375, 0.37255859375, 0, 
173, 1008188832, 0.5568986535072327, -0.5522826910018921, -0.460121750831604, -0.4160992205142975, 9.5496244430542, -2.289538621902466, -0.34310004115104675, 1.339637279510498, 0.3616345524787903, 0.7736139297485352, -0.95068359375, 0.526123046875, 0.372802734375, 0, 
174, 1008197165, 0.5569382905960083, -0.5522786378860474, -0.4600937068462372, -0.4160822927951813, 9.517069816589355, -2.2649872303009033, -0.33843672275543213, 1.457821249961853, 0.21596640348434448, 0.8346782326698303, -0.95166015625, 0.5224609375, 0.374755859375, 0, 
175, 1008205498, 0.5569723844528198, -0.5522770285606384, -0.46007686853408813, -0.4160577058792114, 9.552608489990234, -2.246936798095703, -0.32323434948921204, 1.5048493146896362, -0.006070574279874563, 0.8602669835090637, -0.9501953125, 0.52294921875, 0.37060546875, 0, 
176, 1008213831, 0.557014524936676, -0.552264928817749, -0.460067480802536, -0.4160275459289551, 9.551291465759277, -2.2325167655944824, -0.3788556754589081, 1.7283333539962769, 0.03392605483531952, 0.7582197785377502, -0.953857421875, 0.52294921875, 0.375244140625, 0, 
177, 1008222164, 0.5570485591888428, -0.5522458553314209, -0.4600757956504822, -0.4159984290599823, 9.549226760864258, -2.2544116973876953, -0.3321613371372223, 1.8151270151138306, -0.13179804384708405, 0.5935074687004089, -0.9482421875, 0.523193359375, 0.3720703125, 0, 
178, 1008230497, 0.5570746660232544, -0.5522526502609253, -0.4600635766983032, -0.41596800088882446, 9.562249183654785, -2.293802261352539, -0.3098468482494354, 1.4462822675704956, -0.15597788989543915, 0.8080266714096069, -0.9501953125, 0.52099609375, 0.373779296875, 0, 
179, 1008238830, 0.5570991635322571, -0.55225670337677, -0.46005308628082275, -0.41594117879867554, 9.569574356079102, -2.2853047847747803, -0.33258575201034546, 1.4432340860366821, -0.16371339559555054, 0.8112283945083618, -0.94921875, 0.523681640625, 0.3720703125, 0, 
180, 1008247163, 0.55713951587677, -0.5522516369819641, -0.4600377678871155, -0.4159107208251953, 9.56003189086914, -2.318265914916992, -0.28536561131477356, 1.6264783143997192, 0.02499949373304844, 0.838610053062439, -0.94970703125, 0.523681640625, 0.37255859375, 0, 
181, 1008255496, 0.5571455955505371, -0.5522699356079102, -0.46002352237701416, -0.4158942401409149, 9.577542304992676, -2.2690320014953613, -0.284475713968277, 1.1063940525054932, -0.25214651226997375, 0.7442086935043335, -0.947998046875, 0.52197265625, 0.373779296875, 0, 
182, 1008263829, 0.5571438074111938, -0.5523062944412231, -0.4599854648113251, -0.41589057445526123, 9.59164810180664, -2.2743606567382812, -0.31179919838905334, 0.6901500225067139, -0.09957534819841385, 0.8279545903205872, -0.94921875, 0.523681640625, 0.369140625, 0, 
183, 1008272162, 0.5571486949920654, -0.5523284673690796, -0.4599289894104004, -0.41591671109199524, 9.607090950012207, -2.276120185852051, -0.3117063641548157, 0.5566741228103638, 0.36390140652656555, 0.7567981481552124, -0.94775390625, 0.525146484375, 0.3720703125, 0, 
184, 1008280495, 0.5571506023406982, -0.5523546934127808, -0.45986849069595337, -0.41594624519348145, 9.592635154724121, -2.2530813217163086, -0.3108484148979187, 0.458955854177475, 0.40493541955947876, 0.7008310556411743, -0.953857421875, 0.523681640625, 0.37109375, 0, 
185, 1008288828, 0.5571489930152893, -0.5523896813392639, -0.4597989320755005, -0.4159788489341736, 9.572478294372559, -2.2586746215820312, -0.34329354763031006, 0.2926042079925537, 0.4000559151172638, 0.8490990400314331, -0.952392578125, 0.52294921875, 0.37109375, 0, 
186, 1008297161, 0.5571500658988953, -0.5524193048477173, -0.45973852276802063, -0.4160049557685852, 9.54321575164795, -2.296091318130493, -0.3725556433200836, 0.44826191663742065, 0.35320743918418884, 0.7422363758087158, -0.94873046875, 0.526123046875, 0.37158203125, 0, 
187, 1008305494, 0.5571616888046265, -0.5524343252182007, -0.4596901535987854, -0.41602280735969543, 9.564288139343262, -2.2607061862945557, -0.30758655071258545, 0.75965416431427, 0.3227521777153015, 0.7523541450500488, -0.95068359375, 0.52197265625, 0.37255859375, 0, 
188, 1008313827, 0.5571675300598145, -0.5524554252624512, -0.4596405029296875, -0.41604194045066833, 9.55217170715332, -2.2441327571868896, -0.3363550007343292, 0.6530988812446594, 0.2712419033050537, 0.7567341327667236, -0.9501953125, 0.525634765625, 0.372802734375, 0, 
189, 1008322160, 0.5571843981742859, -0.552474856376648, -0.4595786929130554, -0.41606178879737854, 9.562457084655762, -2.2442760467529297, -0.3788217008113861, 0.6775989532470703, 0.47545138001441956, 0.8270323872566223, -0.94873046875, 0.523193359375, 0.37255859375, 0, 
190, 1008330493, 0.5572111010551453, -0.5524893999099731, -0.45952752232551575, -0.41606324911117554, 9.5608549118042, -2.277336359024048, -0.40908539295196533, 0.9677187204360962, 0.34206533432006836, 0.9114953875541687, -0.954833984375, 0.525146484375, 0.373291015625, 0, 
191, 1008338826, 0.5572547912597656, -0.5524841547012329, -0.45950213074684143, -0.4160398840904236, 9.581449508666992, -2.3224174976348877, -0.36181262135505676, 1.5543357133865356, 0.15170030295848846, 0.9473296403884888, -0.954345703125, 0.52099609375, 0.3701171875, 0, 
192, 1008347159, 0.5573084354400635, -0.5524753332138062, -0.4594697952270508, -0.4160154461860657, 9.560269355773926, -2.3342173099517822, -0.3202490210533142, 1.6233148574829102, 0.307101845741272, 0.9745575785636902, -0.951416015625, 0.525634765625, 0.37158203125, 0, 
193, 1008355492, 0.5573421716690063, -0.5524722933769226, -0.45945799350738525, -0.415987104177475, 9.540067672729492, -2.2856435775756836, -0.2984553575515747, 1.5675528049468994, -0.06526507437229156, 0.8389815092086792, -0.953369140625, 0.524169921875, 0.37060546875, 0, 
194, 1008363825, 0.5573893785476685, -0.5524536371231079, -0.459464967250824, -0.4159408509731293, 9.525330543518066, -2.2776858806610107, -0.3211357891559601, 2.0122671127319336, -0.14433619379997253, 0.7442600131034851, -0.94921875, 0.52099609375, 0.373046875, 0, 
195, 1008372158, 0.5574342608451843, -0.5524401068687439, -0.4594718813896179, -0.41589123010635376, 9.541386604309082, -2.27522349357605, -0.3250263035297394, 1.9763816595077515, -0.2401590794324875, 0.8571420311927795, -0.9501953125, 0.523681640625, 0.374755859375, 0, 
196, 1008380491, 0.5574758052825928, -0.5524401068687439, -0.4594610035419464, -0.4158475697040558, 9.571098327636719, -2.2921082973480225, -0.30050593614578247, 1.7077268362045288, -0.1305045336484909, 0.9451653361320496, -0.94873046875, 0.524658203125, 0.3720703125, 0, 
197, 1008388824, 0.557517409324646, -0.5524279475212097, -0.459445595741272, -0.4158251881599426, 9.56462287902832, -2.2984964847564697, -0.2978340983390808, 1.6400153636932373, 0.11033330857753754, 0.8070916533470154, -0.9501953125, 0.52294921875, 0.3720703125, 0, 
198, 1008397157, 0.5575504302978516, -0.5524282455444336, -0.4594134986400604, -0.4158158600330353, 9.552013397216797, -2.2940595149993896, -0.31831544637680054, 1.3024964332580566, 0.23694443702697754, 0.796871542930603, -0.9482421875, 0.525634765625, 0.37109375, 0, 
199, 1008405490, 0.5575758218765259, -0.5524322986602783, -0.4593770503997803, -0.41581663489341736, 9.539825439453125, -2.308379888534546, -0.37445878982543945, 1.127333641052246, 0.253478467464447, 0.7990104556083679, -0.94775390625, 0.522216796875, 0.369140625, 0, 
200, 1008413823, 0.5576147437095642, -0.5524226427078247, -0.45935750007629395, -0.41579872369766235, 9.526148796081543, -2.3373332023620605, -0.3497949540615082, 1.5485469102859497, 0.16965588927268982, 0.7367807030677795, -0.950927734375, 0.527587890625, 0.3701171875, 0, 
201, 1008422156, 0.5576477646827698, -0.5524144172668457, -0.4593493342399597, -0.4157743453979492, 9.513479232788086, -2.3335506916046143, -0.32826942205429077, 1.5986227989196777, -0.035911157727241516, 0.7433891296386719, -0.951416015625, 0.525146484375, 0.37060546875, 0, 
202, 1008430489, 0.5576924681663513, -0.5524007081985474, -0.45933759212493896, -0.4157457947731018, 9.53584098815918, -2.356807231903076, -0.33407726883888245, 1.7357869148254395, 0.08938086777925491, 0.7676201462745667, -0.951904296875, 0.527099609375, 0.37060546875, 0, 
203, 1008438822, 0.5577431321144104, -0.5523746609687805, -0.4593333601951599, -0.41571688652038574, 9.547587394714355, -2.3460428714752197, -0.33413541316986084, 1.9214775562286377, 0.11272824555635452, 0.7358713150024414, -0.9482421875, 0.526611328125, 0.3701171875, 0, 
204, 1008447155, 0.5577937364578247, -0.5523474812507629, -0.45934247970581055, -0.4156750738620758, 9.58823013305664, -2.348421573638916, -0.3385438323020935, 2.0865228176116943, -0.05752957612276077, 0.6594513058662415, -0.951904296875, 0.527099609375, 0.37158203125, 0, 
205, 1008455488, 0.5578393936157227, -0.5523105263710022, -0.4593532085418701, -0.41565120220184326, 9.57934856414795, -2.318716526031494, -0.3008905053138733, 2.0281991958618164, 0.06548279523849487, 0.48412182927131653, -0.94873046875, 0.523193359375, 0.372802734375, 0, 
206, 1008463821, 0.5578928589820862, -0.5522746443748474, -0.4593612551689148, -0.41561827063560486, 9.570917129516602, -2.3248555660247803, -0.31906118988990784, 2.1127004623413086, 0.08725488930940628, 0.5614511966705322, -0.94921875, 0.527099609375, 0.3701171875, 0, 
207, 1008472154, 0.55792635679245, -0.552257776260376, -0.45935264229774475, -0.41560497879981995, 9.547699928283691, -2.318119525909424, -0.2915368974208832, 1.5972011089324951, 0.1041218638420105, 0.6087478995323181, -0.94873046875, 0.526123046875, 0.3701171875, 0, 
208, 1008480487, 0.5579440593719482, -0.5522497296333313, -0.45936161279678345, -0.41558194160461426, 9.53178596496582, -2.283902883529663, -0.2949906587600708, 1.5713307857513428, -0.2303103804588318, 0.4495554268360138, -0.94921875, 0.526611328125, 0.37109375, 0, 
209, 1008488820, 0.5579545497894287, -0.5522462725639343, -0.4593706727027893, -0.41556259989738464, 9.579180717468262, -2.2831945419311523, -0.29224371910095215, 1.4574755430221558, -0.3003396987915039, 0.4711994528770447, -0.9501953125, 0.526123046875, 0.37109375, 0, 
210, 1008497153, 0.5579701066017151, -0.5522449016571045, -0.4593612253665924, -0.4155539572238922, 9.56687068939209, -2.2947964668273926, -0.2897902727127075, 1.308067798614502, -0.03205621615052223, 0.5087755918502808, -0.94970703125, 0.527099609375, 0.37109375, 0, 
211, 1008505486, 0.5579750537872314, -0.5522454380989075, -0.4593484401702881, -0.41556066274642944, 9.54432487487793, -2.3294451236724854, -0.3259411156177521, 1.0954183340072632, 0.008017255924642086, 0.4322146475315094, -0.94970703125, 0.524169921875, 0.37109375, 0, 
212, 1008513819, 0.5579907298088074, -0.5522488951683044, -0.4593409597873688, -0.41554319858551025, 9.53530502319336, -2.3401241302490234, -0.354602187871933, 1.3377546072006226, -0.1408654749393463, 0.5935330390930176, -0.950439453125, 0.52783203125, 0.3701171875, 0, 
213, 1008522152, 0.5580103993415833, -0.5522406697273254, -0.4593370854854584, -0.4155319631099701, 9.548473358154297, -2.3304104804992676, -0.33345839381217957, 1.4406726360321045, -0.05428937077522278, 0.5300609469413757, -0.94873046875, 0.525146484375, 0.3720703125, 0, 
214, 1008530485, 0.5580294132232666, -0.5522282123565674, -0.4593646228313446, -0.4154926538467407, 9.532705307006836, -2.3305094242095947, -0.35426998138427734, 1.8237591981887817, -0.4631950557231903, 0.41343939304351807, -0.94873046875, 0.527099609375, 0.369140625, 0, 
215, 1008538818, 0.5580704212188721, -0.5521901845932007, -0.4594041109085083, -0.41544443368911743, 9.555376052856445, -2.3087830543518066, -0.332192599773407, 2.3111722469329834, -0.3627872169017792, 0.4182804822921753, -0.94970703125, 0.52294921875, 0.37109375, 0, 
216, 1008547151, 0.5581052899360657, -0.5521590113639832, -0.45943769812583923, -0.4154018461704254, 9.550848007202148, -2.283742666244507, -0.28772982954978943, 2.142681837081909, -0.3266198933124542, 0.3649771809577942, -0.9501953125, 0.525146484375, 0.369140625, 0, 
217, 1008555484, 0.5581356287002563, -0.5521228313446045, -0.4594738483428955, -0.4153691530227661, 9.557143211364746, -2.273733139038086, -0.3049710690975189, 2.0923116207122803, -0.2935391366481781, 0.27534019947052, -0.951171875, 0.522705078125, 0.36865234375, 0, 
218, 1008563817, 0.5581620931625366, -0.5520997047424316, -0.45948103070259094, -0.41535651683807373, 9.55629825592041, -2.2755393981933594, -0.2891727387905121, 1.6766693592071533, 0.003419500542804599, 0.33809512853622437, -0.947265625, 0.526123046875, 0.3720703125, 0, 
219, 1008572150, 0.5582044720649719, -0.5520607829093933, -0.4594905376434326, -0.4153409004211426, 9.576372146606445, -2.2783541679382324, -0.30594345927238464, 1.9537640810012817, 0.12977451086044312, 0.3980836272239685, -0.953857421875, 0.526123046875, 0.36962890625, 0, 
220, 1008580483, 0.5582363605499268, -0.5520197153091431, -0.4595106840133667, -0.41533035039901733, 9.54321002960205, -2.3350820541381836, -0.3432677686214447, 1.9170844554901123, 0.05582622066140175, 0.14130093157291412, -0.950439453125, 0.525634765625, 0.369140625, 0, 
221, 1008588816, 0.5582587122917175, -0.5519914031028748, -0.45952755212783813, -0.4153192639350891, 9.52676010131836, -2.337857723236084, -0.29512590169906616, 1.734608769416809, -0.08096659183502197, 0.2575383186340332, -0.951904296875, 0.526611328125, 0.3701171875, 0, 
222, 1008597149, 0.5582863688468933, -0.5519618391990662, -0.4595450162887573, -0.4153021275997162, 9.529815673828125, -2.286191940307617, -0.28901922702789307, 1.8216075897216797, -0.0656108632683754, 0.2617262601852417, -0.951416015625, 0.525634765625, 0.37255859375, 0, 
223, 1008605482, 0.5583105683326721, -0.5519344806671143, -0.4595600962638855, -0.4152890741825104, 9.536843299865723, -2.257415771484375, -0.2805558145046234, 1.7413067817687988, -0.0740891695022583, 0.30383604764938354, -0.94775390625, 0.525634765625, 0.36865234375, 0, 
224, 1008613815, 0.5583207607269287, -0.5519254803657532, -0.45956769585609436, -0.41527900099754333, 9.558022499084473, -2.272315263748169, -0.32239294052124023, 1.431553840637207, -0.1629449427127838, 0.3116483986377716, -0.94873046875, 0.525634765625, 0.37060546875, 0, 
225, 1008622148, 0.558323323726654, -0.551919162273407, -0.45957493782043457, -0.4152758717536926, 9.561870574951172, -2.2897112369537354, -0.2853270471096039, 1.3074144124984741, -0.19607695937156677, 0.2966512441635132, -0.95166015625, 0.524169921875, 0.3720703125, 0, 
226, 1008630481, 0.558322012424469, -0.5519174933433533, -0.45958995819091797, -0.4152633547782898, 9.543251991271973, -2.2792463302612305, -0.2848047614097595, 1.3459895849227905, -0.35324588418006897, 0.25497689843177795, -0.949462890625, 0.526611328125, 0.3681640625, 0, 
227, 1008638814, 0.5583128929138184, -0.551927387714386, -0.4595826268196106, -0.41527044773101807, 9.541828155517578, -2.282200336456299, -0.33177030086517334, 0.9482132792472839, -0.17285765707492828, 0.3644649386405945, -0.950439453125, 0.529296875, 0.366943359375, 0, 
228, 1008647147, 0.5583141446113586, -0.5519382357597351, -0.45957544445991516, -0.4152621030807495, 9.5640230178833, -2.2946677207946777, -0.3394743502140045, 1.1161786317825317, -0.2067837119102478, 0.4845060408115387, -0.94970703125, 0.526611328125, 0.37060546875, 0, 
229, 1008655480, 0.5583217144012451, -0.5519343614578247, -0.4595854878425598, -0.4152461290359497, 9.564180374145508, -2.2857840061187744, -0.2880306839942932, 1.4174789190292358, -0.29505035281181335, 0.41862624883651733, -0.94921875, 0.525634765625, 0.37109375, 0, 
230, 1008663813, 0.5583248734474182, -0.5519393682479858, -0.45959824323654175, -0.4152211546897888, 9.558694839477539, -2.2816853523254395, -0.305805504322052, 1.393785834312439, -0.4422553777694702, 0.43358495831489563, -0.950439453125, 0.526123046875, 0.36962890625, 0, 
231, 1008672146, 0.5583261847496033, -0.551953911781311, -0.45959746837615967, -0.415200799703598, 9.573801040649414, -2.2999107837677, -0.3093535602092743, 1.195019245147705, -0.389285147190094, 0.6154459714889526, -0.950927734375, 0.524658203125, 0.37060546875, 0, 
232, 1008680479, 0.5583250522613525, -0.5519633889198303, -0.4595963656902313, -0.4151909649372101, 9.55726432800293, -2.261657476425171, -0.29911044239997864, 1.1536650657653809, -0.27252262830734253, 0.42752718925476074, -0.94970703125, 0.523681640625, 0.373779296875, 0, 
233, 1008688812, 0.5583134889602661, -0.5519817471504211, -0.4596027433872223, -0.415175199508667, 9.555733680725098, -2.269883155822754, -0.2888675630092621, 1.0842121839523315, -0.5140008926391602, 0.4753105640411377, -0.950927734375, 0.523681640625, 0.36962890625, 0, 
234, 1008697145, 0.5582916736602783, -0.5520131587982178, -0.4595901370048523, -0.4151768088340759, 9.580374717712402, -2.294245719909668, -0.3049829304218292, 0.6882672905921936, -0.35270801186561584, 0.4491584300994873, -0.9521484375, 0.52294921875, 0.373046875, 0, 
235, 1008705478, 0.55826735496521, -0.5520429015159607, -0.4595707654953003, -0.4151914119720459, 9.554746627807617, -2.292293071746826, -0.29694312810897827, 0.566061794757843, -0.2334737479686737, 0.43509623408317566, -0.9501953125, 0.525634765625, 0.37158203125, 0, 
236, 1008713811, 0.5582439303398132, -0.5520760416984558, -0.4595562219619751, -0.41519492864608765, 9.538630485534668, -2.308730363845825, -0.32167813181877136, 0.6401125192642212, -0.3420780897140503, 0.4499780535697937, -0.947265625, 0.526611328125, 0.374267578125, 0, 
237, 1008722144, 0.5582220554351807, -0.5520954728126526, -0.4595542550086975, -0.41520053148269653, 9.543924331665039, -2.326805591583252, -0.31184250116348267, 0.8166202306747437, -0.3616473376750946, 0.32036998867988586, -0.949462890625, 0.5283203125, 0.37060546875, 0, 
238, 1008730477, 0.5582107305526733, -0.5521156191825867, -0.45954740047454834, -0.41519659757614136, 9.553508758544922, -2.329738140106201, -0.3347959816455841, 0.9233931303024292, -0.3082801103591919, 0.43590301275253296, -0.950927734375, 0.525634765625, 0.3701171875, 0, 
239, 1008738810, 0.5581910014152527, -0.5521279573440552, -0.45955953001976013, -0.41519322991371155, 9.540447235107422, -2.327256202697754, -0.30033355951309204, 1.022712230682373, -0.4809584617614746, 0.2506480813026428, -0.9482421875, 0.525634765625, 0.37109375, 0, 
240, 1008747143, 0.558165967464447, -0.5521498918533325, -0.45957309007644653, -0.4151827096939087, 9.559896469116211, -2.3402600288391113, -0.34818607568740845, 0.9642478227615356, -0.6121161580085754, 0.26446694135665894, -0.951416015625, 0.53076171875, 0.372314453125, 0, 
241, 1008755476, 0.5581478476524353, -0.5521512031555176, -0.4595866799354553, -0.4151902198791504, 9.54936695098877, -2.3337724208831787, -0.2907559275627136, 1.0646812915802002, -0.34016984701156616, 0.0944909080862999, -0.94970703125, 0.525146484375, 0.37109375, 0, 
242, 1008763809, 0.5581268072128296, -0.5521559715270996, -0.45961281657218933, -0.41518306732177734, 9.515555381774902, -2.3363258838653564, -0.28704360127449036, 1.174950361251831, -0.5597478151321411, 0.05663307383656502, -0.94921875, 0.5224609375, 0.3701171875, 0, 
243, 1008772142, 0.5581119060516357, -0.552157998085022, -0.459634929895401, -0.4151761531829834, 9.558537483215332, -2.3221917152404785, -0.36587515473365784, 1.2175854444503784, -0.49514874815940857, 0.164404958486557, -0.950927734375, 0.528076171875, 0.372802734375, 0, 
244, 1008780475, 0.5581003427505493, -0.552156925201416, -0.4596577286720276, -0.41516801714897156, 9.545533180236816, -2.278881549835205, -0.33480313420295715, 1.280032992362976, -0.44855645298957825, 0.10687538981437683, -0.950927734375, 0.524658203125, 0.36962890625, 0, 
245, 1008788808, 0.55808424949646, -0.5521536469459534, -0.45968568325042725, -0.41516298055648804, 9.549560546875, -2.2781662940979004, -0.3203829824924469, 1.2771000862121582, -0.5047925114631653, 0.06385628879070282, -0.951416015625, 0.527587890625, 0.3701171875, 0, 
246, 1008797141, 0.5580528974533081, -0.5521676540374756, -0.459698349237442, -0.41517242789268494, 9.565146446228027, -2.276756763458252, -0.3386513888835907, 0.8437713980674744, -0.4486333429813385, 0.03151831775903702, -0.950439453125, 0.526123046875, 0.36767578125, 0, 
247, 1008805474, 0.5580233931541443, -0.552172064781189, -0.4597129225730896, -0.4151901304721832, 9.557292938232422, -2.2802977561950684, -0.30862370133399963, 0.8919773697853088, -0.3562428057193756, -0.03644905984401703, -0.950927734375, 0.525634765625, 0.37109375, 0, 
248, 1008813807, 0.557997465133667, -0.5521815419197083, -0.4597395360469818, -0.415182888507843, 9.535834312438965, -2.29958176612854, -0.3320993483066559, 1.106598973274231, -0.6223233938217163, 0.0557749941945076, -0.950927734375, 0.526611328125, 0.37158203125, 0, 
249, 1008822140, 0.5579759478569031, -0.5521786212921143, -0.45977431535720825, -0.41517728567123413, 9.553186416625977, -2.2853617668151855, -0.30076277256011963, 1.2629867792129517, -0.5933409929275513, -0.011436755768954754, -0.94970703125, 0.526611328125, 0.37158203125, 0, 
250, 1008830473, 0.5579696297645569, -0.552166759967804, -0.45980846881866455, -0.41516366600990295, 9.537107467651367, -2.2771646976470947, -0.32632699608802795, 1.5023388862609863, -0.48277708888053894, 0.024295100942254066, -0.94921875, 0.527587890625, 0.372802734375, 0, 
251, 1008838806, 0.5579832196235657, -0.5521482825279236, -0.45983561873435974, -0.41513997316360474, 9.550972938537598, -2.264061212539673, -0.2904067933559418, 1.7276928424835205, -0.3640550971031189, 0.28689220547676086, -0.948974609375, 0.52783203125, 0.36962890625, 0, 
252, 1008847139, 0.5579909086227417, -0.5521355867385864, -0.45985108613967896, -0.41512951254844666, 9.570138931274414, -2.2429380416870117, -0.24323229491710663, 1.4880974292755127, -0.22256207466125488, 0.21663238108158112, -0.949462890625, 0.526611328125, 0.3681640625, 0, 
253, 1008855472, 0.557976484298706, -0.5521368980407715, -0.45986562967300415, -0.4151307940483093, 9.605352401733398, -2.2297556400299072, -0.26755207777023315, 1.1298309564590454, -0.36566880345344543, 0.15559367835521698, -0.9482421875, 0.525146484375, 0.373291015625, 0, 
254, 1008863805, 0.557976245880127, -0.5521466732025146, -0.4598551392555237, -0.4151298403739929, 9.588471412658691, -2.250227212905884, -0.31512564420700073, 1.0460726022720337, -0.1296592652797699, 0.4381698966026306, -0.949951171875, 0.526123046875, 0.36865234375, 0, 
255, 1008872138, 0.557952880859375, -0.5521755814552307, -0.4598487615585327, -0.4151298701763153, 9.585481643676758, -2.2733094692230225, -0.30926692485809326, 0.7405971884727478, -0.4288335144519806, 0.4479801654815674, -0.951904296875, 0.52294921875, 0.37109375, 0, 
256, 1008880471, 0.5579431056976318, -0.5521930456161499, -0.45983996987342834, -0.4151293635368347, 9.557814598083496, -2.3099892139434814, -0.30968204140663147, 0.9235212206840515, -0.2428869754076004, 0.4165898859500885, -0.94970703125, 0.52197265625, 0.37255859375, 0, 
257, 1008888804, 0.5579253435134888, -0.552206814289093, -0.4598294496536255, -0.41514652967453003, 9.5662260055542, -2.3456032276153564, -0.3231225311756134, 0.7680172324180603, -0.14844727516174316, 0.2816028892993927, -0.952880859375, 0.5283203125, 0.3701171875, 0, 
258, 1008897137, 0.5579102039337158, -0.5522189140319824, -0.4598338305950165, -0.4151458442211151, 9.546677589416504, -2.3523411750793457, -0.3805384039878845, 1.0005689859390259, -0.34852010011672974, 0.25247952342033386, -0.951904296875, 0.525146484375, 0.37060546875, 0, 
259, 1008905470, 0.5579041242599487, -0.5522220730781555, -0.45983728766441345, -0.41514626145362854, 9.544875144958496, -2.35298490524292, -0.3471417725086212, 1.122876763343811, -0.24532033503055573, 0.3067048490047455, -0.94970703125, 0.524169921875, 0.373779296875, 0, 
260, 1008913803, 0.5579142570495605, -0.5522176027297974, -0.45983171463012695, -0.41514474153518677, 9.53760051727295, -2.3051326274871826, -0.37235572934150696, 1.2674691677093506, -0.024167031049728394, 0.3738909959793091, -0.947265625, 0.526611328125, 0.37109375, 0, 
261, 1008922136, 0.5579248070716858, -0.5522128343582153, -0.4598100483417511, -0.4151606261730194, 9.528265953063965, -2.2761781215667725, -0.3346318006515503, 1.0698809623718262, 0.21503150463104248, 0.42189204692840576, -0.953857421875, 0.527587890625, 0.37158203125, 0, 
262, 1008930469, 0.5579317212104797, -0.5522125363349915, -0.45978227257728577, -0.415182501077652, 9.567206382751465, -2.2542972564697266, -0.35464510321617126, 0.9356111884117126, 0.27863165736198425, 0.3711758553981781, -0.94970703125, 0.524658203125, 0.372802734375, 0, 
263, 1008938802, 0.5579185485839844, -0.5522208213806152, -0.45976173877716064, -0.4152122139930725, 9.560418128967285, -2.2926151752471924, -0.338129460811615, 0.7109359502792358, 0.08553873747587204, 0.2537986636161804, -0.94970703125, 0.526123046875, 0.37158203125, 0, 
264, 1008947135, 0.5578851699829102, -0.5522518754005432, -0.45973554253578186, -0.41524481773376465, 9.574724197387695, -2.305675983428955, -0.3187020719051361, 0.33046209812164307, -0.08370733261108398, 0.2455252707004547, -0.94677734375, 0.524658203125, 0.37109375, 0, 
265, 1008955468, 0.5578431487083435, -0.5522848963737488, -0.4597083330154419, -0.41528749465942383, 9.56668472290039, -2.317842960357666, -0.33198490738868713, 0.18663811683654785, -0.0906231552362442, 0.19624346494674683, -0.94921875, 0.526611328125, 0.3720703125, 0, 
266, 1008963801, 0.5578092932701111, -0.5523110032081604, -0.45969119668006897, -0.4153172969818115, 9.530333518981934, -2.2991669178009033, -0.3233940899372101, 0.43475040793418884, -0.1493181735277176, 0.1637774109840393, -0.950439453125, 0.527587890625, 0.372802734375, 0, 
267, 1008972134, 0.5577806830406189, -0.5523249506950378, -0.4596923291683197, -0.41533568501472473, 9.524182319641113, -2.312843084335327, -0.28943246603012085, 0.7465140223503113, -0.2957162857055664, 0.12362710386514664, -0.94775390625, 0.524169921875, 0.37255859375, 0, 
268, 1008980467, 0.5577622652053833, -0.5523333549499512, -0.45970237255096436, -0.4153382182121277, 9.529146194458008, -2.3202250003814697, -0.3081873953342438, 1.0165393352508545, -0.36725687980651855, 0.14260724186897278, -0.951171875, 0.52294921875, 0.37158203125, 0, 
269, 1008988800, 0.557735025882721, -0.55234295129776, -0.45971763134002686, -0.41534507274627686, 9.538766860961914, -2.2976791858673096, -0.3513334393501282, 0.9451397061347961, -0.4602494239807129, 0.08473189175128937, -0.947265625, 0.527099609375, 0.3720703125, 0, 
270, 1008997133, 0.5577144622802734, -0.5523532629013062, -0.45973145961761475, -0.4153438210487366, 9.559502601623535, -2.2900612354278564, -0.3389517664909363, 1.0281040668487549, -0.4497475326061249, 0.14205653965473175, -0.951904296875, 0.524658203125, 0.37255859375, 0, 
271, 1009005466, 0.5576872229576111, -0.5523720383644104, -0.4597368836402893, -0.41534894704818726, 9.572778701782227, -2.2667858600616455, -0.3108341097831726, 0.8265969157218933, -0.44836434721946716, 0.2309379279613495, -0.9482421875, 0.523193359375, 0.372802734375, 0, 
272, 1009013799, 0.5576671957969666, -0.5523935556411743, -0.4597322344779968, -0.41535237431526184, 9.58746337890625, -2.270076274871826, -0.3520629405975342, 0.8129444718360901, -0.33187082409858704, 0.32197093963623047, -0.9482421875, 0.526611328125, 0.37109375, 0, 
273, 1009022132, 0.5576612949371338, -0.5523950457572937, -0.45972129702568054, -0.41537079215049744, 9.567935943603516, -2.2861061096191406, -0.3437086343765259, 0.9426038861274719, 0.011603249236941338, 0.2653891444206238, -0.94921875, 0.526611328125, 0.3701171875, 0, 
274, 1009030465, 0.5576640367507935, -0.5523838996887207, -0.4597364068031311, -0.4153650999069214, 9.546405792236328, -2.3249242305755615, -0.3602672517299652, 1.4070154428482056, -0.22295910120010376, 0.16516058146953583, -0.95068359375, 0.523193359375, 0.37158203125, 0, 
275, 1009038798, 0.5576663017272949, -0.5523792505264282, -0.45973843336105347, -0.41536614298820496, 9.548602104187012, -2.3229787349700928, -0.29594886302948, 1.2348366975784302, -0.1319517344236374, 0.30742207169532776, -0.95166015625, 0.525146484375, 0.373779296875, 0, 
276, 1009047131, 0.5576627850532532, -0.5523746013641357, -0.4597543776035309, -0.4153594672679901, 9.55538272857666, -2.2911128997802734, -0.30441784858703613, 1.3187233209609985, -0.3139665126800537, 0.17102624475955963, -0.951904296875, 0.525634765625, 0.373291015625, 0, 
277, 1009055464, 0.5576651096343994, -0.552372395992279, -0.4597572684288025, -0.4153556823730469, 9.556048393249512, -2.2589752674102783, -0.30544087290763855, 1.2558531761169434, -0.18905864655971527, 0.35395029187202454, -0.9482421875, 0.526611328125, 0.37158203125, 0, 
278, 1009063797, 0.5576658844947815, -0.5523728728294373, -0.45976904034614563, -0.4153410792350769, 9.55982494354248, -2.2372448444366455, -0.3634144961833954, 1.3399959802627563, -0.34338444471359253, 0.3214714825153351, -0.94921875, 0.524169921875, 0.3720703125, 0, 
279, 1009072130, 0.5576575994491577, -0.5523822903633118, -0.4597839117050171, -0.4153231978416443, 9.538601875305176, -2.2672007083892822, -0.40624549984931946, 1.2417140007019043, -0.5217106938362122, 0.38210034370422363, -0.94970703125, 0.525634765625, 0.373291015625, 0, 
280, 1009080463, 0.557648777961731, -0.5523871779441833, -0.45980554819107056, -0.41530469059944153, 9.539259910583496, -2.325303316116333, -0.33472442626953125, 1.3127167224884033, -0.5358754396438599, 0.24908560514450073, -0.94921875, 0.525146484375, 0.374755859375, 0, 
281, 1009088796, 0.5576530694961548, -0.5523806214332581, -0.459830641746521, -0.41527995467185974, 9.555633544921875, -2.3539719581604004, -0.34070420265197754, 1.5633777379989624, -0.48083043098449707, 0.3286178410053253, -0.94970703125, 0.527587890625, 0.37255859375, 0, 
282, 1009097129, 0.5576765537261963, -0.5523675680160522, -0.4598424434661865, -0.4152528643608093, 9.567898750305176, -2.3499462604522705, -0.3715510964393616, 1.6936004161834717, -0.21928344666957855, 0.4601469039916992, -0.950439453125, 0.526123046875, 0.369140625, 0, 
283, 1009105462, 0.5576963424682617, -0.5523388385772705, -0.45987462997436523, -0.4152286648750305, 9.556315422058105, -2.320415496826172, -0.35343319177627563, 1.889049768447876, -0.30666643381118774, 0.2190273255109787, -0.94970703125, 0.527587890625, 0.372802734375, 0, 
284, 1009113795, 0.5577078461647034, -0.5523231029510498, -0.4599190354347229, -0.41518503427505493, 9.561338424682617, -2.3156023025512695, -0.351691335439682, 1.9153558015823364, -0.6540979146957397, 0.25406762957572937, -0.950927734375, 0.528076171875, 0.372802734375, 0, 
285, 1009122128, 0.5577186942100525, -0.5523113012313843, -0.45994773507118225, -0.41515424847602844, 9.592252731323242, -2.2834632396698, -0.2846105098724365, 1.7074322700500488, -0.48293086886405945, 0.351516991853714, -0.9482421875, 0.524658203125, 0.3720703125, 0, 
286, 1009130461, 0.557715892791748, -0.5523051619529724, -0.45996376872062683, -0.4151485860347748, 9.559988975524902, -2.3051109313964844, -0.28669309616088867, 1.3317993879318237, -0.2928987741470337, 0.15777088701725006, -0.94970703125, 0.525146484375, 0.37109375, 0, 
287, 1009138794, 0.557702362537384, -0.5523059368133545, -0.4599721431732178, -0.41515639424324036, 9.534074783325195, -2.310961961746216, -0.33476734161376953, 1.070329189300537, -0.26008692383766174, 0.15024028718471527, -0.95068359375, 0.523681640625, 0.373291015625, 0, 
288, 1009147127, 0.5577107667922974, -0.5522977113723755, -0.459966242313385, -0.4151626527309418, 9.548430442810059, -2.3030223846435547, -0.3272354006767273, 1.2310841083526611, 0.047552820295095444, 0.2825634479522705, -0.952880859375, 0.523681640625, 0.37109375, 0, 
289, 1009155460, 0.5577093362808228, -0.552291989326477, -0.4599556624889374, -0.4151837229728699, 9.556806564331055, -2.309438467025757, -0.3351464569568634, 1.0182043313980103, 0.10167571157217026, 0.2211148738861084, -0.946533203125, 0.524658203125, 0.37255859375, 0, 
290, 1009163793, 0.5577069520950317, -0.5522853136062622, -0.45993924140930176, -0.415213942527771, 9.562585830688477, -2.3372342586517334, -0.3440159857273102, 0.9263387322425842, 0.2327309399843216, 0.12740519642829895, -0.950927734375, 0.52880859375, 0.37255859375, 0, 
291, 1009172126, 0.5576986074447632, -0.5522810220718384, -0.4599360227584839, -0.4152342975139618, 9.537894248962402, -2.3257896900177, -0.3693942725658417, 1.002079963684082, -0.013895721174776554, 0.1388547569513321, -0.952880859375, 0.524169921875, 0.37109375, 0, 
292, 1009180459, 0.5576969385147095, -0.5522751808166504, -0.45994120836257935, -0.4152384400367737, 9.544081687927246, -2.3193020820617676, -0.3763611316680908, 1.2146269083023071, -0.13087593019008636, 0.17199958860874176, -0.94921875, 0.526123046875, 0.37109375, 0, 
293, 1009188792, 0.5576931834220886, -0.5522643327713013, -0.45994141697883606, -0.41525813937187195, 9.591118812561035, -2.2657344341278076, -0.32730692625045776, 1.1005796194076538, 0.02385965920984745, 0.10344308614730835, -0.951416015625, 0.526123046875, 0.37158203125, 0, 
294, 1009197125, 0.5576899647712708, -0.5522468686103821, -0.4599567949771881, -0.41526859998703003, 9.5587158203125, -2.2500696182250977, -0.3561185896396637, 1.3108726739883423, -0.1048646792769432, -0.0353732630610466, -0.94677734375, 0.523681640625, 0.3720703125, 0, 
295, 1009205458, 0.5576997995376587, -0.5522240996360779, -0.4599887430667877, -0.41525042057037354, 9.5762300491333, -2.2289490699768066, -0.3236718773841858, 1.7236714363098145, -0.3545522093772888, 0.15336522459983826, -0.951416015625, 0.526123046875, 0.37109375, 0, 
296, 1009213791, 0.5576963424682617, -0.5521993041038513, -0.46003156900405884, -0.41524046659469604, 9.552599906921387, -2.2158684730529785, -0.24088528752326965, 1.6501713991165161, -0.43015265464782715, -0.13497421145439148, -0.94970703125, 0.525146484375, 0.374267578125, 0, 
297, 1009222124, 0.5576911568641663, -0.552183210849762, -0.4600549042224884, -0.4152427613735199, 9.569280624389648, -2.205185651779175, -0.2176324427127838, 1.378020167350769, -0.2654787302017212, 0.019722960889339447, -0.94970703125, 0.526123046875, 0.373291015625, 0, 
298, 1009230457, 0.5576779842376709, -0.5521923303604126, -0.46005332469940186, -0.41525012254714966, 9.58269214630127, -2.2140839099884033, -0.25331076979637146, 0.9536691308021545, -0.21099723875522614, 0.2291705310344696, -0.953369140625, 0.527099609375, 0.37109375, 0, 
299, 1009238790, 0.557647705078125, -0.5522207617759705, -0.4600263833999634, -0.4152827262878418, 9.59359359741211, -2.2209506034851074, -0.2779594659805298, 0.3721364438533783, -0.06531630456447601, 0.3056674897670746, -0.9501953125, 0.524658203125, 0.372802734375, 0, 
300, 1009247123, 0.5576093196868896, -0.5522615909576416, -0.459977388381958, -0.4153343737125397, 9.544045448303223, -2.2706055641174316, -0.30639201402664185, -0.03313200920820236, 0.14684639871120453, 0.30603891611099243, -0.952880859375, 0.524658203125, 0.37255859375, 0, 
301, 1009255456, 0.5575699806213379, -0.5523058176040649, -0.4599294662475586, -0.41538146138191223, 9.550668716430664, -2.322563886642456, -0.3314627408981323, -0.027317583560943604, 0.055403586477041245, 0.40170803666114807, -0.94921875, 0.525634765625, 0.37060546875, 0, 
302, 1009263789, 0.5575337409973145, -0.5523423552513123, -0.4598928987979889, -0.4154220223426819, 9.539617538452148, -2.3182005882263184, -0.3711395561695099, 0.15771964192390442, 0.007210406940430403, 0.28194868564605713, -0.95068359375, 0.523681640625, 0.3720703125, 0, 
303, 1009272122, 0.5575050711631775, -0.5523700714111328, -0.4598630666732788, -0.41545671224594116, 9.552637100219727, -2.3014986515045166, -0.3560253381729126, 0.356486052274704, -0.01201307587325573, 0.3159131407737732, -0.952880859375, 0.527587890625, 0.37109375, 0, 
304, 1009280455, 0.5574791431427002, -0.5523868799209595, -0.45986270904541016, -0.41546955704689026, 9.541248321533203, -2.302006483078003, -0.34448808431625366, 0.7683117389678955, -0.30437394976615906, 0.15339083969593048, -0.94775390625, 0.526611328125, 0.37060546875, 0, 
305, 1009288788, 0.5574625730514526, -0.5523978471755981, -0.4598660171031952, -0.41547369956970215, 9.547057151794434, -2.2786526679992676, -0.3803810477256775, 0.9629030823707581, -0.32683759927749634, 0.2618415057659149, -0.94970703125, 0.526123046875, 0.36962890625, 0, 
306, 1009297121, 0.5574472546577454, -0.5524107217788696, -0.4598797857761383, -0.4154617190361023, 9.57792854309082, -2.278287887573242, -0.3417699933052063, 1.1166013479232788, -0.5115547180175781, 0.2722025215625763, -0.94921875, 0.525634765625, 0.372802734375, 0, 
307, 1009305454, 0.5574290752410889, -0.5524256229400635, -0.4598986804485321, -0.4154454469680786, 9.57656192779541, -2.3039307594299316, -0.29654255509376526, 1.1379122734069824, -0.6330429911613464, 0.31556740403175354, -0.94970703125, 0.526123046875, 0.37158203125, 0, 
308, 1009313787, 0.5574125051498413, -0.5524413585662842, -0.4599195718765259, -0.41542375087738037, 9.58504581451416, -2.28722882270813, -0.3078368902206421, 1.1885132789611816, -0.6641258001327515, 0.3033621907234192, -0.9482421875, 0.525146484375, 0.372802734375, 0, 
309, 1009322120, 0.5573945045471191, -0.5524533987045288, -0.459927499294281, -0.41542285680770874, 9.555161476135254, -2.2862489223480225, -0.2934310734272003, 0.9989422559738159, -0.41320881247520447, 0.2649664282798767, -0.94970703125, 0.525634765625, 0.37255859375, 0, 
310, 1009330453, 0.5573654770851135, -0.5524781942367554, -0.45992788672447205, -0.4154284596443176, 9.544660568237305, -2.2990024089813232, -0.34058260917663574, 0.7341167330741882, -0.4310363233089447, 0.23553568124771118, -0.95166015625, 0.5224609375, 0.36962890625, 0, 
311, 1009338786, 0.5573368668556213, -0.552498996257782, -0.45992133021354675, -0.41544637084007263, 9.544059753417969, -2.2955620288848877, -0.3557683527469635, 0.6572484374046326, -0.2785804271697998, 0.2238299697637558, -0.95166015625, 0.524658203125, 0.373291015625, 0, 
312, 1009347119, 0.5573170185089111, -0.5525233149528503, -0.4599018096923828, -0.4154621660709381, 9.553437232971191, -2.2988808155059814, -0.3574633300304413, 0.6292520761489868, -0.13826562464237213, 0.3584327697753906, -0.9501953125, 0.524169921875, 0.37255859375, 0, 
313, 1009355452, 0.5572946667671204, -0.5525321364402771, -0.45989930629730225, -0.41548335552215576, 9.555047035217285, -2.283602237701416, -0.35978084802627563, 0.7932599782943726, -0.1778908520936966, 0.12780222296714783, -0.94921875, 0.524658203125, 0.36865234375, 0, 
314, 1009363785, 0.5572806596755981, -0.5525343418121338, -0.459895521402359, -0.4155033826828003, 9.534939765930176, -2.333214521408081, -0.3658822178840637, 0.905322253704071, -0.06377944350242615, 0.09988270699977875, -0.947509765625, 0.523193359375, 0.373779296875, 0, 
315, 1009372118, 0.5572778582572937, -0.5525277853012085, -0.45990800857543945, -0.41550198197364807, 9.556835174560547, -2.313458204269409, -0.3850160837173462, 1.2931987047195435, -0.2519928514957428, 0.20241649448871613, -0.9462890625, 0.526123046875, 0.372802734375, 0, 
316, 1009380451, 0.5572947263717651, -0.5525140166282654, -0.4599130153656006, -0.4154922366142273, 9.593750953674316, -2.3177642822265625, -0.3239021897315979, 1.5017242431640625, -0.07164301723241806, 0.3358410596847534, -0.951171875, 0.524169921875, 0.373779296875, 0, 
317, 1009388784, 0.5573006868362427, -0.5524902939796448, -0.459929883480072, -0.41549694538116455, 9.579123497009277, -2.329401969909668, -0.3061845898628235, 1.473010540008545, -0.08391223102807999, 0.06356171518564224, -0.9501953125, 0.523681640625, 0.37158203125, 0, 
318, 1009397117, 0.557302713394165, -0.5524662137031555, -0.4599432349205017, -0.4155113697052002, 9.58204174041748, -2.284217596054077, -0.3625633120536804, 1.3632150888442993, 0.01301203016191721, -0.0629982128739357, -0.95068359375, 0.524169921875, 0.37060546875, 0, 
319, 1009405450, 0.5573052763938904, -0.5524536371231079, -0.45993053913116455, -0.41553887724876404, 9.572134971618652, -2.2420942783355713, -0.3846798837184906, 1.0497353076934814, 0.2322058379650116, 0.1651221662759781, -0.9501953125, 0.527099609375, 0.37158203125, 0, 
320, 1009413783, 0.5573092103004456, -0.5524384379386902, -0.4599163830280304, -0.4155694544315338, 9.626381874084473, -2.273566484451294, -0.3648664057254791, 1.049735426902771, 0.306948184967041, 0.08973947912454605, -0.94921875, 0.527099609375, 0.37255859375, 0, 
321, 1009422116, 0.5573084950447083, -0.5524299144744873, -0.4598918855190277, -0.41560888290405273, 9.586640357971191, -2.2716784477233887, -0.3484435975551605, 0.8457820415496826, 0.36810216307640076, 0.16782446205615997, -0.952392578125, 0.52294921875, 0.37158203125, 0, 
322, 1009430449, 0.5573163032531738, -0.5524163246154785, -0.45987290143966675, -0.4156375229358673, 9.52165699005127, -2.2763779163360596, -0.34164124727249146, 1.0509264469146729, 0.34686794877052307, 0.17586733400821686, -0.95068359375, 0.525634765625, 0.374267578125, 0, 
323, 1009438782, 0.5573229789733887, -0.5523980855941772, -0.45987972617149353, -0.4156452417373657, 9.538294792175293, -2.28448224067688, -0.34516042470932007, 1.3604615926742554, -0.010911663062870502, 0.15364699065685272, -0.94873046875, 0.527099609375, 0.373779296875, 0, 
324, 1009447115, 0.5573283433914185, -0.5523818731307983, -0.45990389585494995, -0.41563284397125244, 9.512351036071777, -2.253467559814453, -0.3377072811126709, 1.5592024326324463, -0.29902055859565735, 0.12972329556941986, -0.94970703125, 0.52294921875, 0.375244140625, 0, 
325, 1009455448, 0.5573332905769348, -0.5523672103881836, -0.4599267840385437, -0.4156202971935272, 9.55427360534668, -2.254368782043457, -0.3179224133491516, 1.5384036302566528, -0.318717896938324, 0.20057225227355957, -0.95068359375, 0.5234375, 0.374267578125, 0, 
326, 1009463781, 0.5573362708091736, -0.5523589849472046, -0.45994746685028076, -0.41560444235801697, 9.559467315673828, -2.2353851795196533, -0.3492877781391144, 1.4831796884536743, -0.35754913091659546, 0.2206026166677475, -0.9482421875, 0.524658203125, 0.3701171875, 0, 
327, 1009472114, 0.5573287606239319, -0.552356481552124, -0.4599705934524536, -0.4155923128128052, 9.557779312133789, -2.245542049407959, -0.27853885293006897, 1.3462328910827637, -0.46611499786376953, 0.1996629536151886, -0.953369140625, 0.524169921875, 0.373046875, 0, 
328, 1009480447, 0.5573228597640991, -0.5523563623428345, -0.4599965810775757, -0.4155717194080353, 9.538601875305176, -2.272186517715454, -0.30397436022758484, 1.4117156267166138, -0.5360802412033081, 0.2173495888710022, -0.94970703125, 0.523681640625, 0.37109375, 0, 
329, 1009488780, 0.5573112964630127, -0.5523572564125061, -0.4600183367729187, -0.4155616760253906, 9.5441312789917, -2.3042383193969727, -0.317443311214447, 1.272963523864746, -0.4856714904308319, 0.1929648369550705, -0.9482421875, 0.526123046875, 0.373779296875, 0, 
330, 1009497113, 0.5573055148124695, -0.5523574352264404, -0.46003457903862, -0.4155511260032654, 9.546928405761719, -2.3248884677886963, -0.3502604067325592, 1.2935701608657837, -0.3855070471763611, 0.21754169464111328, -0.94873046875, 0.525146484375, 0.372802734375, 0, 
331, 1009505446, 0.5572924613952637, -0.5523619055747986, -0.4600606858730316, -0.4155341684818268, 9.552764892578125, -2.307664394378662, -0.3237519860267639, 1.3012158870697021, -0.6012941598892212, 0.22590474784374237, -0.94873046875, 0.523193359375, 0.372802734375, 0, 
332, 1009513779, 0.5572693347930908, -0.5523703098297119, -0.4600827097892761, -0.41552960872650146, 9.57001781463623, -2.311018943786621, -0.31848758459091187, 1.0927928686141968, -0.5418179035186768, 0.07944254577159882, -0.9482421875, 0.522705078125, 0.37255859375, 0, 
333, 1009522112, 0.5572552680969238, -0.5523743033409119, -0.46010780334472656, -0.4155151844024658, 9.541370391845703, -2.315554141998291, -0.34905144572257996, 1.27748441696167, -0.5775882005691528, 0.20581039786338806, -0.95166015625, 0.523681640625, 0.373291015625, 0, 
334, 1009530445, 0.5572428107261658, -0.5523686408996582, -0.4601374864578247, -0.41550660133361816, 9.575303077697754, -2.278573751449585, -0.3499527871608734, 1.349460244178772, -0.48330217599868774, 0.025588618591427803, -0.94921875, 0.525634765625, 0.37158203125, 0, 
335, 1009538778, 0.5572233200073242, -0.5523660778999329, -0.4601796865463257, -0.41548940539360046, 9.562786102294922, -2.2669289112091064, -0.3560541570186615, 1.392440915107727, -0.7246906757354736, 0.023872464895248413, -0.9501953125, 0.524169921875, 0.37158203125, 0, 
336, 1009547111, 0.5572042465209961, -0.5523713827133179, -0.46022310853004456, -0.4154598116874695, 9.54518985748291, -2.2652552127838135, -0.3214559257030487, 1.4263286590576172, -0.852531373500824, 0.11275386065244675, -0.951171875, 0.523193359375, 0.37255859375, 0, 
337, 1009555444, 0.5571845173835754, -0.55237877368927, -0.46027448773384094, -0.41541969776153564, 9.554222106933594, -2.2913424968719482, -0.2863398790359497, 1.5212935209274292, -1.0287445783615112, 0.19186344742774963, -0.94873046875, 0.525634765625, 0.37255859375, 0, 
338, 1009563777, 0.5571706295013428, -0.552384078502655, -0.4603135585784912, -0.41538795828819275, 9.586090087890625, -2.2605559825897217, -0.3491515517234802, 1.4560027122497559, -0.8038257956504822, 0.19137676060199738, -0.94970703125, 0.521484375, 0.373046875, 0, 
339, 1009572110, 0.5571603775024414, -0.5523860454559326, -0.4603363573551178, -0.41537392139434814, 9.591340065002441, -2.2839815616607666, -0.3594019114971161, 1.303290843963623, -0.520481288433075, 0.22818443179130554, -0.95166015625, 0.52294921875, 0.377197265625, 0, 
340, 1009580443, 0.5571599006652832, -0.5523865818977356, -0.4603661596775055, -0.4153408110141754, 9.56299877166748, -2.277144193649292, -0.3230329751968384, 1.5494434833526611, -0.6308785676956177, 0.31880757212638855, -0.951171875, 0.52197265625, 0.37158203125, 0, 
341, 1009588776, 0.5571432113647461, -0.5523994565010071, -0.46039649844169617, -0.4153123199939728, 9.581733703613281, -2.2666144371032715, -0.3418130874633789, 1.3051605224609375, -0.7889696359634399, 0.31575945019721985, -0.95166015625, 0.523193359375, 0.37109375, 0, 
342, 1009597109, 0.5571390390396118, -0.552396833896637, -0.4604179859161377, -0.4152976870536804, 9.548022270202637, -2.288180112838745, -0.35315731167793274, 1.3825666904449463, -0.4325987994670868, 0.19857434928417206, -0.9482421875, 0.526123046875, 0.36962890625, 0, 
343, 1009605442, 0.5571341514587402, -0.5523890256881714, -0.46044111251831055, -0.4152888059616089, 9.561355590820312, -2.2653982639312744, -0.33960971236228943, 1.3869211673736572, -0.3936907649040222, 0.15584981441497803, -0.951904296875, 0.523193359375, 0.37060546875, 0, 
344, 1009613775, 0.5571330189704895, -0.5523902773857117, -0.4604583978652954, -0.4152693748474121, 9.556262969970703, -2.266413927078247, -0.37154707312583923, 1.3830406665802002, -0.4382723569869995, 0.31013715267181396, -0.95068359375, 0.52197265625, 0.37109375, 0, 
345, 1009622108, 0.5571432113647461, -0.5523777604103088, -0.4604731798171997, -0.4152560830116272, 9.548931121826172, -2.2894961833953857, -0.3786714971065521, 1.518872857093811, -0.24094028770923615, 0.30867713689804077, -0.94873046875, 0.524658203125, 0.374267578125, 0, 
346, 1009630441, 0.5571498870849609, -0.5523750185966492, -0.4604901969432831, -0.41523194313049316, 9.548172950744629, -2.2569007873535156, -0.2979731261730194, 1.499380350112915, -0.39908257126808167, 0.36779478192329407, -0.94873046875, 0.525634765625, 0.37158203125, 0, 
347, 1009638774, 0.5571498870849609, -0.5523829460144043, -0.4604957103729248, -0.41521525382995605, 9.547965049743652, -2.242616653442383, -0.3297603726387024, 1.2567752599716187, -0.37686222791671753, 0.4768730401992798, -0.95166015625, 0.523681640625, 0.374267578125, 0, 
348, 1009647107, 0.557159960269928, -0.5523794889450073, -0.46051833033561707, -0.41518115997314453, 9.543962478637695, -2.259021520614624, -0.34086552262306213, 1.6259019374847412, -0.4942522346973419, 0.4146047830581665, -0.94775390625, 0.524658203125, 0.37158203125, 0, 
349, 1009655440, 0.5571794509887695, -0.5523714423179626, -0.4605391025543213, -0.41514283418655396, 9.564614295959473, -2.2904887199401855, -0.32965993881225586, 1.745469331741333, -0.44333121180534363, 0.5373739004135132, -0.9501953125, 0.521484375, 0.37109375, 0, 
350, 1009663773, 0.557194173336029, -0.5523635745048523, -0.46055343747138977, -0.41511768102645874, 9.552621841430664, -2.301555871963501, -0.3141457140445709, 1.591066598892212, -0.3072427213191986, 0.4091489613056183, -0.95068359375, 0.524658203125, 0.373779296875, 0, 
351, 1009672106, 0.5572021007537842, -0.5523654222488403, -0.4605690836906433, -0.41508686542510986, 9.552507400512695, -2.290018320083618, -0.3421347737312317, 1.5144927501678467, -0.4769754409790039, 0.513821542263031, -0.9521484375, 0.521484375, 0.377685546875, 0, 
352, 1009680439, 0.5572169423103333, -0.5523598790168762, -0.46058329939842224, -0.4150586426258087, 9.576140403747559, -2.2723286151885986, -0.3696959912776947, 1.5937306880950928, -0.3426416218280792, 0.44836440682411194, -0.951171875, 0.524169921875, 0.378173828125, 0, 
353, 1009688772, 0.5572243928909302, -0.5523607730865479, -0.46060290932655334, -0.4150257408618927, 9.569226264953613, -2.2864913940429688, -0.35449764132499695, 1.5513132810592651, -0.5217618942260742, 0.4901411533355713, -0.950927734375, 0.526123046875, 0.37255859375, 0, 
354, 1009697105, 0.5572338700294495, -0.5523554086685181, -0.4606226980686188, -0.414998322725296, 9.541377067565918, -2.277822732925415, -0.3242955803871155, 1.5770299434661865, -0.41413095593452454, 0.3708556592464447, -0.950927734375, 0.527099609375, 0.373779296875, 0, 
355, 1009705438, 0.5572349429130554, -0.5523532629013062, -0.46065396070480347, -0.41496509313583374, 9.543023109436035, -2.2664830684661865, -0.3590979278087616, 1.5986995697021484, -0.6361294984817505, 0.3491860330104828, -0.952392578125, 0.524169921875, 0.374267578125, 0, 
356, 1009713771, 0.557232141494751, -0.5523552298545837, -0.46067744493484497, -0.4149401783943176, 9.542665481567383, -2.279310464859009, -0.358228474855423, 1.4333596229553223, -0.5421507954597473, 0.29944321513175964, -0.94921875, 0.524658203125, 0.376708984375, 0, 
357, 1009722104, 0.5572309494018555, -0.552350640296936, -0.46071338653564453, -0.4149077832698822, 9.56865119934082, -2.2852070331573486, -0.3447669744491577, 1.6126210689544678, -0.6638826131820679, 0.2794513404369354, -0.94970703125, 0.523681640625, 0.374267578125, 0, 
358, 1009730437, 0.5572375655174255, -0.5523489713668823, -0.4607403576374054, -0.41487130522727966, 9.558313369750977, -2.316885232925415, -0.35798579454421997, 1.6276439428329468, -0.5778315663337708, 0.3920387029647827, -0.94677734375, 0.525146484375, 0.372802734375, 0, 
359, 1009738770, 0.5572382807731628, -0.5523391962051392, -0.4607647657394409, -0.4148562252521515, 9.539710998535156, -2.360888719558716, -0.356011301279068, 1.4927334785461426, -0.4016055464744568, 0.2124316543340683, -0.94921875, 0.527587890625, 0.37255859375, 0, 
360, 1009747103, 0.5572413206100464, -0.5523302555084229, -0.4607984125614166, -0.4148266017436981, 9.553805351257324, -2.3274478912353516, -0.36796993017196655, 1.648186206817627, -0.5581853985786438, 0.2219601422548294, -0.9501953125, 0.52294921875, 0.373779296875, 0, 
361, 1009755436, 0.5572452545166016, -0.5523151755332947, -0.46084079146385193, -0.4147944152355194, 9.533082962036133, -2.3229458332061768, -0.3604018986225128, 1.7730684280395508, -0.6200821995735168, 0.19018568098545074, -0.951904296875, 0.524658203125, 0.37255859375, 0, 
362, 1009763769, 0.5572491884231567, -0.5522975921630859, -0.4608820378780365, -0.4147666394710541, 9.548565864562988, -2.301609516143799, -0.33531737327575684, 1.7527310848236084, -0.545365571975708, 0.10197027772665024, -0.952392578125, 0.526123046875, 0.372802734375, 0, 
363, 1009772102, 0.5572402477264404, -0.5522883534431458, -0.46091651916503906, -0.41475245356559753, 9.542886734008789, -2.287700891494751, -0.36937281489372253, 1.4688868522644043, -0.5376940369606018, 0.07452462613582611, -0.948486328125, 0.5224609375, 0.374267578125, 0, 
364, 1009780435, 0.5572314262390137, -0.5522882342338562, -0.46095010638237, -0.41472721099853516, 9.528695106506348, -2.285862684249878, -0.4083128869533539, 1.4630979299545288, -0.6492183804512024, 0.17803174257278442, -0.94921875, 0.523681640625, 0.3720703125, 0, 
365, 1009788768, 0.5572285652160645, -0.552283763885498, -0.4609896242618561, -0.41469311714172363, 9.545108795166016, -2.2559540271759033, -0.3359167277812958, 1.6326897144317627, -0.7161227464675903, 0.25466951727867126, -0.94970703125, 0.526611328125, 0.373779296875, 0, 
366, 1009797101, 0.557223379611969, -0.5522796511650085, -0.46102750301361084, -0.41466355323791504, 9.569976806640625, -2.276340961456299, -0.31377315521240234, 1.572547435760498, -0.6696329116821289, 0.17354923486709595, -0.94970703125, 0.525634765625, 0.375244140625, 0, 
367, 1009805434, 0.5572125911712646, -0.5522705316543579, -0.46107223629951477, -0.4146401286125183, 9.569826126098633, -2.2893834114074707, -0.3004630208015442, 1.5654139518737793, -0.6966431140899658, 0.05909203737974167, -0.9501953125, 0.525634765625, 0.375732421875, 0, 
368, 1009813767, 0.5572029948234558, -0.55226731300354, -0.46110761165618896, -0.41461801528930664, 9.561040878295898, -2.2839813232421875, -0.31935298442840576, 1.47267746925354, -0.6251665949821472, 0.11655755341053009, -0.950927734375, 0.527587890625, 0.37109375, 0, 
369, 1009822100, 0.5572009086608887, -0.5522559881210327, -0.4611350893974304, -0.41460558772087097, 9.571340560913086, -2.288344621658325, -0.33960971236228943, 1.4846906661987305, -0.4146432876586914, 0.1412753164768219, -0.94775390625, 0.523681640625, 0.372802734375, 0, 
370, 1009830433, 0.5571945309638977, -0.5522528290748596, -0.4611509442329407, -0.414600670337677, 9.572856903076172, -2.2650835514068604, -0.3191312551498413, 1.2752560377120972, -0.3275676667690277, 0.1505860835313797, -0.9482421875, 0.525634765625, 0.375244140625, 0, 
371, 1009838766, 0.5571867227554321, -0.55224609375, -0.46116140484809875, -0.41460859775543213, 9.588994026184082, -2.243846893310547, -0.3447098135948181, 1.1843509674072266, -0.19155603647232056, 0.11142192035913467, -0.9482421875, 0.525146484375, 0.375244140625, 0, 
372, 1009847099, 0.5571794509887695, -0.5522499084472656, -0.4611576199531555, -0.4146174490451813, 9.595610618591309, -2.235013008117676, -0.33001071214675903, 1.0160014629364014, -0.11713389307260513, 0.23417814075946808, -0.94775390625, 0.524169921875, 0.37158203125, 0, 
373, 1009855432, 0.5571926236152649, -0.5522461533546448, -0.4611455202102661, -0.4146184027194977, 9.57008171081543, -2.3028721809387207, -0.37849268317222595, 1.2288556098937988, 0.044658415019512177, 0.47346627712249756, -0.9521484375, 0.523681640625, 0.374755859375, 0, 
374, 1009863765, 0.5571963787078857, -0.5522413849830627, -0.4611448645591736, -0.4146202802658081, 9.576068878173828, -2.3279356956481934, -0.3293955624103546, 1.2287275791168213, -0.07553638517856598, 0.2723945677280426, -0.94970703125, 0.526611328125, 0.373291015625, 0, 
375, 1009872098, 0.5572047233581543, -0.5522251725196838, -0.46116921305656433, -0.4146036207675934, 9.577777862548828, -2.2954258918762207, -0.35425886511802673, 1.609047770500183, -0.3276316523551941, 0.22605842351913452, -0.945068359375, 0.526123046875, 0.3720703125, 0, 
376, 1009880431, 0.5572060942649841, -0.5522142648696899, -0.46119803190231323, -0.41458427906036377, 9.563916206359863, -2.314645528793335, -0.33413776755332947, 1.5609697103500366, -0.4404623210430145, 0.1589491218328476, -0.94970703125, 0.524658203125, 0.373291015625, 0, 
377, 1009888764, 0.5572143793106079, -0.5521976947784424, -0.46122708916664124, -0.41456282138824463, 9.564986228942871, -2.2985117435455322, -0.3268052637577057, 1.6680116653442383, -0.4000687301158905, 0.22349700331687927, -0.94921875, 0.525634765625, 0.372802734375, 0, 
378, 1009897097, 0.5572227239608765, -0.5521774291992188, -0.4612651467323303, -0.41453617811203003, 9.538670539855957, -2.2448458671569824, -0.3628504276275635, 1.7838521003723145, -0.4705975353717804, 0.12410096079111099, -0.94921875, 0.524658203125, 0.375244140625, 0, 
379, 1009905430, 0.5572130680084229, -0.5521776676177979, -0.461272269487381, -0.414541095495224, 9.555819511413574, -2.2133615016937256, -0.2837604284286499, 1.1103514432907104, -0.24094028770923615, 0.19200430810451508, -0.94921875, 0.524169921875, 0.37255859375, 0, 
380, 1009913763, 0.5571788549423218, -0.5522034168243408, -0.46123936772346497, -0.41458940505981445, 9.57759952545166, -2.195708751678467, -0.29821667075157166, 0.22700613737106323, 0.10994909703731537, 0.13848336040973663, -0.9501953125, 0.524169921875, 0.374755859375, 0, 
381, 1009922096, 0.5571484565734863, -0.552219033241272, -0.46121910214424133, -0.41463178396224976, 9.575932502746582, -2.2582170963287354, -0.3959244191646576, 0.4399372637271881, 0.03597518801689148, 0.09312054514884949, -0.9501953125, 0.527099609375, 0.373779296875, 0, 
382, 1009930429, 0.5571252107620239, -0.5522371530532837, -0.46119803190231323, -0.41466224193573, 9.558043479919434, -2.331719398498535, -0.3594232201576233, 0.5482854843139648, -0.003150550415739417, 0.19959889352321625, -0.946533203125, 0.525634765625, 0.376220703125, 0, 
383, 1009938762, 0.5571022629737854, -0.5522560477256775, -0.4611848294734955, -0.41468286514282227, 9.563994407653809, -2.3442299365997314, -0.3175865113735199, 0.6542771458625793, -0.15732263028621674, 0.26698997616767883, -0.95068359375, 0.526123046875, 0.376708984375, 0, 
384, 1009947095, 0.5570807456970215, -0.5522692203521729, -0.46117347478866577, -0.4147067070007324, 9.540032386779785, -2.287221908569336, -0.37875038385391235, 0.697808563709259, -0.08907350152730942, 0.15588822960853577, -0.9501953125, 0.524169921875, 0.373779296875, 0, 
385, 1009955428, 0.5570719242095947, -0.5522676110267639, -0.461180716753006, -0.41471266746520996, 9.576333045959473, -2.250098466873169, -0.39438629150390625, 1.1312013864517212, -0.21722151339054108, 0.17563681304454803, -0.947021484375, 0.527099609375, 0.376708984375, 0, 
386, 1009963761, 0.5570638179779053, -0.5522677302360535, -0.4611823558807373, -0.4147214889526367, 9.58910846710205, -2.2355422973632812, -0.3463478088378906, 1.0668586492538452, -0.14250479638576508, 0.16541674733161926, -0.95068359375, 0.52197265625, 0.374267578125, 0, 
387, 1009972094, 0.5570576190948486, -0.5522695183753967, -0.46116891503334045, -0.41474223136901855, 9.57988166809082, -2.2956619262695312, -0.3528783619403839, 0.9085880517959595, 0.050818637013435364, 0.2554507553577423, -0.94921875, 0.52197265625, 0.37158203125, 0, 
388, 1009980427, 0.5570541620254517, -0.5522695779800415, -0.46115583181381226, -0.4147615432739258, 9.559016227722168, -2.349601984024048, -0.35338640213012695, 0.9538357257843018, 0.08036467432975769, 0.2223956137895584, -0.947021484375, 0.524169921875, 0.372802734375, 0, 
389, 1009988760, 0.5570499897003174, -0.552260160446167, -0.4611622095108032, -0.4147726595401764, 9.548823356628418, -2.3209259510040283, -0.3410690128803253, 1.1863616704940796, -0.09848673641681671, 0.11958004534244537, -0.94873046875, 0.527587890625, 0.37255859375, 0, 
390, 1009997093, 0.5570499300956726, -0.5522414445877075, -0.4611770510673523, -0.4147813320159912, 9.565418243408203, -2.292843818664551, -0.29811617732048035, 1.3489480018615723, -0.08597417175769806, -0.007697077002376318, -0.9501953125, 0.525634765625, 0.373291015625, 0, 
391, 1010005426, 0.557044267654419, -0.5522422790527344, -0.46116799116134644, -0.41479766368865967, 9.547593116760254, -2.270076274871826, -0.32137009501457214, 0.9770933389663696, -0.008529541082680225, 0.25226178765296936, -0.9501953125, 0.525146484375, 0.376220703125, 0, 
392, 1010013759, 0.5570344924926758, -0.5522407293319702, -0.46117112040519714, -0.41480937600135803, 9.54610538482666, -2.2743895053863525, -0.3550456762313843, 1.0580599308013916, -0.13339893519878387, 0.11166524887084961, -0.94970703125, 0.524658203125, 0.373291015625, 0, 
393, 1010022092, 0.557016909122467, -0.5522491931915283, -0.46116501092910767, -0.414828360080719, 9.550740242004395, -2.291506290435791, -0.327593058347702, 0.8252779245376587, -0.12773819267749786, 0.18960939347743988, -0.9521484375, 0.52294921875, 0.373779296875, 0, 
394, 1010030425, 0.5570052862167358, -0.5522571802139282, -0.4611459970474243, -0.4148545265197754, 9.543444633483887, -2.278409481048584, -0.36365053057670593, 0.7553765177726746, 0.07987798750400543, 0.21847660839557648, -0.948486328125, 0.52294921875, 0.375732421875, 0, 
395, 1010038758, 0.5570014119148254, -0.552248477935791, -0.46113523840904236, -0.41488319635391235, 9.557199478149414, -2.2617719173431396, -0.3993646800518036, 0.9704593420028687, 0.16594180464744568, 0.12155234068632126, -0.94775390625, 0.523193359375, 0.373779296875, 0, 
396, 1010047091, 0.5570046901702881, -0.5522358417510986, -0.4611429274082184, -0.4148871898651123, 9.530190467834473, -2.251643419265747, -0.3906024396419525, 1.3187105655670166, -0.08076168596744537, 0.1396103948354721, -0.94775390625, 0.524169921875, 0.373291015625, 0, 
397, 1010055424, 0.5570036768913269, -0.5522279739379883, -0.4611453413963318, -0.4148964285850525, 9.53185749053955, -2.3021926879882812, -0.3481288552284241, 1.188295602798462, -0.07027265429496765, 0.19003203511238098, -0.94873046875, 0.524658203125, 0.375732421875, 0, 
398, 1010063757, 0.5569998621940613, -0.5522222518920898, -0.4611614942550659, -0.41489121317863464, 9.55099105834961, -2.2949681282043457, -0.37150436639785767, 1.3187615871429443, -0.3007367253303528, 0.15021467208862305, -0.94921875, 0.524169921875, 0.374267578125, 0, 
399, 1010072090, 0.5570005178451538, -0.5522027015686035, -0.4611905813217163, -0.41488391160964966, 9.5418062210083, -2.281141757965088, -0.36573925614356995, 1.5426684617996216, -0.3219068646430969, 0.050664957612752914, -0.94921875, 0.523193359375, 0.37255859375, 0, 
400, 1010080423, 0.5570026636123657, -0.5521900653839111, -0.46121954917907715, -0.4148656725883484, 9.548236846923828, -2.289367437362671, -0.3624345660209656, 1.5723555088043213, -0.4189848303794861, 0.14223584532737732, -0.9521484375, 0.52294921875, 0.3720703125, 0, 
401, 1010088756, 0.5570067763328552, -0.5521707534790039, -0.4612448811531067, -0.4148576855659485, 9.579187393188477, -2.280691146850586, -0.377248078584671, 1.5535929203033447, -0.27914389967918396, 0.1048518717288971, -0.9501953125, 0.52294921875, 0.374755859375, 0, 
402, 1010097089, 0.5570258498191833, -0.5521448850631714, -0.4612713158130646, -0.4148370921611786, 9.594480514526367, -2.270679235458374, -0.3772159516811371, 1.801897406578064, -0.2351386547088623, 0.19209393858909607, -0.946533203125, 0.525634765625, 0.375732421875, 0, 
403, 1010105422, 0.5570416450500488, -0.552114725112915, -0.4613072872161865, -0.4148160517215729, 9.597683906555176, -2.2684013843536377, -0.34413015842437744, 1.8679949045181274, -0.3231107294559479, 0.12217989563941956, -0.94970703125, 0.527099609375, 0.376220703125, 0, 
404, 1010113755, 0.5570472478866577, -0.5520967245101929, -0.46132907271385193, -0.41480836272239685, 9.559782028198242, -2.2827653884887695, -0.290720134973526, 1.5314751863479614, -0.23228268325328827, 0.10115060955286026, -0.949951171875, 0.525146484375, 0.36865234375, 0, 
405, 1010122088, 0.557050347328186, -0.552071213722229, -0.46136394143104553, -0.4147992730140686, 9.560182571411133, -2.28088116645813, -0.3448789715766907, 1.653988003730774, -0.3304876685142517, -0.004828283097594976, -0.94775390625, 0.523681640625, 0.373291015625, 0, 
406, 1010130421, 0.5570666193962097, -0.5520484447479248, -0.46138250827789307, -0.41478705406188965, 9.546663284301758, -2.285261869430542, -0.36500242352485657, 1.659328579902649, -0.14720498025417328, 0.1915048211812973, -0.94921875, 0.525634765625, 0.372802734375, 0, 
407, 1010138754, 0.5570735931396484, -0.5520333051681519, -0.4613974392414093, -0.414781391620636, 9.554574966430664, -2.2838525772094727, -0.36273497343063354, 1.4686050415039062, -0.18631795048713684, 0.20958848297595978, -0.94970703125, 0.525146484375, 0.372802734375, 0, 
408, 1010147087, 0.5570772886276245, -0.5520256161689758, -0.46141016483306885, -0.4147724211215973, 9.569145202636719, -2.2698473930358887, -0.3353252708911896, 1.396103858947754, -0.2431943565607071, 0.23516426980495453, -0.94921875, 0.525634765625, 0.3720703125, 0, 
409, 1010155420, 0.5570799112319946, -0.5520126819610596, -0.46141645312309265, -0.41477933526039124, 9.571526527404785, -2.241121530532837, -0.3668764531612396, 1.2840031385421753, -0.06444541364908218, 0.16599306464195251, -0.94921875, 0.525146484375, 0.377685546875, 0, 
410, 1010163753, 0.5570712685585022, -0.5520101189613342, -0.4614276885986328, -0.4147818088531494, 9.591211318969727, -2.224519968032837, -0.36801376938819885, 1.1819816827774048, -0.2535552978515625, 0.12047654390335083, -0.9482421875, 0.525634765625, 0.376220703125, 0, 
411, 1010172086, 0.5570725202560425, -0.5520013570785522, -0.4614375829696655, -0.41478055715560913, 9.57877254486084, -2.2445695400238037, -0.3193173408508301, 1.3170583248138428, -0.18586969375610352, 0.2204873263835907, -0.947265625, 0.525634765625, 0.373779296875, 0, 
412, 1010180419, 0.5570816993713379, -0.5519988536834717, -0.46143874526023865, -0.414770245552063, 9.557092666625977, -2.2838311195373535, -0.35612574219703674, 1.339637279510498, -0.15955105423927307, 0.39749446511268616, -0.951171875, 0.52294921875, 0.373291015625, 0, 
413, 1010188752, 0.5570800304412842, -0.5519909262657166, -0.46143385767936707, -0.41478854417800903, 9.586304664611816, -2.3057546615600586, -0.33613353967666626, 1.0829057693481445, 0.051343731582164764, 0.17180746793746948, -0.951171875, 0.525146484375, 0.375732421875, 0, 
414, 1010197085, 0.557072103023529, -0.5519890785217285, -0.4614447355270386, -0.4147896468639374, 9.564223289489746, -2.29817271232605, -0.34045371413230896, 1.186118245124817, -0.25915199518203735, 0.1428505778312683, -0.94873046875, 0.524169921875, 0.372802734375, 0, 
415, 1010205418, 0.5570572018623352, -0.5520039200782776, -0.46143868565559387, -0.4147966504096985, 9.547392845153809, -2.3361756801605225, -0.35837888717651367, 0.8723184466362, -0.24024872481822968, 0.334445059299469, -0.946044921875, 0.522705078125, 0.37158203125, 0, 
416, 1010213751, 0.5570541620254517, -0.5520081520080566, -0.46142491698265076, -0.41481027007102966, 9.569266319274902, -2.304409980773926, -0.3921259939670563, 0.9566147327423096, 0.020004717633128166, 0.30027565360069275, -0.94873046875, 0.525146484375, 0.37109375, 0, 
417, 1010222084, 0.557041585445404, -0.5520101189613342, -0.46141350269317627, -0.41483739018440247, 9.546677589416504, -2.3155112266540527, -0.360138475894928, 0.8311051726341248, 0.044491928070783615, 0.1540440171957016, -0.95068359375, 0.523681640625, 0.37158203125, 0, 
418, 1010230417, 0.5570263862609863, -0.5520121455192566, -0.4613950252532959, -0.4148757755756378, 9.554109573364258, -2.2923717498779297, -0.3599739670753479, 0.6968480348587036, 0.18079808354377747, 0.06315189599990845, -0.95166015625, 0.52197265625, 0.373779296875, 0, 
419, 1010238750, 0.5569961667060852, -0.5520285367965698, -0.4613742232322693, -0.4149174392223358, 9.560239791870117, -2.282243251800537, -0.33503201603889465, 0.43978363275527954, 0.03164638951420784, 0.10446766763925552, -0.94970703125, 0.523193359375, 0.37255859375, 0, 
420, 1010247083, 0.5569740533828735, -0.5520307421684265, -0.4613800644874573, -0.4149376451969147, 9.532501220703125, -2.2851686477661133, -0.39363524317741394, 0.8977916836738586, -0.18900743126869202, -0.02105490118265152, -0.951171875, 0.5234375, 0.374267578125, 0, 
421, 1010255416, 0.5569583773612976, -0.5520225167274475, -0.46140021085739136, -0.4149473309516907, 9.529596328735352, -2.278001546859741, -0.36187660694122314, 1.1776784658432007, -0.2924633026123047, -0.03463044390082359, -0.9521484375, 0.52392578125, 0.377197265625, 0, 
422, 1010263749, 0.5569395422935486, -0.5520220398902893, -0.461404025554657, -0.41496893763542175, 9.545948028564453, -2.2570724487304688, -0.31281527876853943, 0.9222533702850342, -0.12679046392440796, -0.014420813880860806, -0.947021484375, 0.523193359375, 0.373779296875, 0, 
423, 1010272082, 0.5569424629211426, -0.551997184753418, -0.4614197611808777, -0.41498053073883057, 9.561570167541504, -2.2558491230010986, -0.39282694458961487, 1.4065288305282593, -0.03072427585721016, -0.01584240421652794, -0.94970703125, 0.523681640625, 0.375244140625, 0, 
424, 1010280415, 0.5569683313369751, -0.5519541501998901, -0.46143653988838196, -0.41498446464538574, 9.56135368347168, -2.253716230392456, -0.3333468735218048, 1.7739650011062622, 0.16467390954494476, 0.006506015546619892, -0.9501953125, 0.526123046875, 0.373779296875, 0, 
425, 1010288748, 0.556988537311554, -0.5519170761108398, -0.46144863963127136, -0.4149932861328125, 9.55845832824707, -2.258967876434326, -0.3496667146682739, 1.6306277513504028, 0.1564517468214035, 0.054609548300504684, -0.9482421875, 0.526611328125, 0.373779296875, 0, 
426, 1010297081, 0.5569969415664673, -0.5518985986709595, -0.4614430069923401, -0.41501277685165405, 9.601997375488281, -2.257251739501953, -0.31140631437301636, 1.2280231714248657, 0.20598965883255005, 0.11554580181837082, -0.95068359375, 0.524169921875, 0.373291015625, 0, 
427, 1010305414, 0.5570052266120911, -0.5518869161605835, -0.4614305794239044, -0.41503092646598816, 9.56186294555664, -2.2540605068206787, -0.3061843812465668, 1.1446232795715332, 0.19374607503414154, 0.2620592713356018, -0.95068359375, 0.524658203125, 0.373779296875, 0, 
428, 1010313747, 0.5570043325424194, -0.5518816709518433, -0.46142786741256714, -0.4150421917438507, 9.570160865783691, -2.2335612773895264, -0.35965943336486816, 1.1252717971801758, -0.01562468335032463, 0.18525494635105133, -0.94970703125, 0.5224609375, 0.375732421875, 0, 
429, 1010322080, 0.5570130348205566, -0.5518691539764404, -0.461427241563797, -0.41504794359207153, 9.56257152557373, -2.2330102920532227, -0.3392736613750458, 1.2990387678146362, 0.018685581162571907, 0.2649920582771301, -0.94921875, 0.523193359375, 0.373779296875, 0, 
430, 1010330413, 0.5570201873779297, -0.5518573522567749, -0.4614274203777313, -0.4150536358356476, 9.568765640258789, -2.2186546325683594, -0.28927528858184814, 1.2890490293502808, 0.00941323023289442, 0.21238039433956146, -0.94921875, 0.524169921875, 0.377197265625, 0, 
431, 1010338746, 0.5570251941680908, -0.5518521070480347, -0.4614236056804657, -0.4150582551956177, 9.577871322631836, -2.22868275642395, -0.3654244542121887, 1.2033054828643799, -0.03196656331419945, 0.32048526406288147, -0.9482421875, 0.526123046875, 0.373779296875, 0, 
432, 1010347079, 0.5570415258407593, -0.5518389940261841, -0.46142080426216125, -0.41505682468414307, 9.552471160888672, -2.2546472549438477, -0.36760586500167847, 1.3959885835647583, 0.043582621961832047, 0.33325397968292236, -0.95068359375, 0.523193359375, 0.372802734375, 0, 
433, 1010355412, 0.557066798210144, -0.551820695400238, -0.46143069863319397, -0.41503632068634033, 9.555495262145996, -2.2696356773376465, -0.3518460690975189, 1.6976473331451416, -0.12456202507019043, 0.4425499141216278, -0.94921875, 0.524169921875, 0.374755859375, 0, 
434, 1010363745, 0.5570847392082214, -0.5518137812614441, -0.4614395499229431, -0.4150116741657257, 9.58065414428711, -2.2734739780426025, -0.35340049862861633, 1.5738284587860107, -0.2469724714756012, 0.4715708792209625, -0.9501953125, 0.523681640625, 0.375244140625, 0, 
435, 1010372078, 0.5570889115333557, -0.5518089532852173, -0.46144866943359375, -0.41500234603881836, 9.558222770690918, -2.2871289253234863, -0.37989485263824463, 1.3586046695709229, -0.24334806203842163, 0.3286818861961365, -0.951416015625, 0.526611328125, 0.3720703125, 0, 
436, 1010380411, 0.5571024417877197, -0.5518065094947815, -0.46145564317703247, -0.4149796962738037, 9.529582023620605, -2.291012763977051, -0.340167760848999, 1.4825263023376465, -0.2701917588710785, 0.4729155898094177, -0.94873046875, 0.527099609375, 0.37060546875, 0, 
437, 1010388744, 0.5571009516716003, -0.5518019199371338, -0.4614723324775696, -0.4149690568447113, 9.529475212097168, -2.2865350246429443, -0.33457422256469727, 1.3655589818954468, -0.350786954164505, 0.24934177100658417, -0.94873046875, 0.52783203125, 0.3701171875, 0, 
438, 1010397077, 0.5571030378341675, -0.5518066883087158, -0.4614735245704651, -0.41495847702026367, 9.56242847442627, -2.292257308959961, -0.3237950801849365, 1.2316092252731323, -0.2491624802350998, 0.4046536684036255, -0.947265625, 0.523193359375, 0.3720703125, 0, 
