PacketCounter,SampleTimeFine,Quat_W,Quat_X,Quat_Y,Quat_Z,Acc_X,Acc_Y,Acc_Z,Gyr_X,Gyr_Y,Gyr_Z,Mag_X,Mag_Y,Mag_Z,Status,
0, 3629225653, -0.40551555156707764, 0.6723666787147522, 0.2585628032684326, 0.5627034306526184, 0, 0, 0, 0, 0, 0, -1.04736328125, 0.1650390625, 0.3681640625, 0, 
1, 3629233986, -0.40551987290382385, 0.6723662614822388, 0.2585567235946655, 0.5627036690711975, 9.549166679382324, -2.34934401512146, -0.3695802390575409, 1.2047271728515625, 0.0791095718741417, 0.39165449142456055, -1.04833984375, 0.16455078125, 0.3671875, 0, 
2, 3629242319, -0.40552589297294617, 0.6723708510398865, 0.25853896141052246, 0.5627020001411438, 9.527050018310547, -2.368942975997925, -0.39540916681289673, 1.1562649011611938, 0.07045194506645203, 0.44895344972610474, -1.04443359375, 0.166015625, 0.36865234375, 0, 
3, 3629250652, -0.40553462505340576, 0.6723658442497253, 0.2585301101207733, 0.5627058148384094, 9.510920524597168, -2.3867316246032715, -0.41546550393104553, 1.266892910003662, 0.17170502245426178, 0.41529640555381775, -1.04638671875, 0.16357421875, 0.3662109375, 0, 
4, 3629258985, -0.40555691719055176, 0.6723556518554688, 0.25850802659988403, 0.5627120733261108, 9.528817176818848, -2.3626627922058105, -0.40870630741119385, 1.3283158540725708, 0.3411688208580017, 0.5171898603439331, -1.048828125, 0.1650390625, 0.369140625, 0, 
5, 3629267318, -0.40558186173439026, 0.6723376512527466, 0.25850093364715576, 0.5627188086509705, 9.51303768157959, -2.3874049186706543, -0.37440866231918335, 1.4964476823806763, 0.3444730341434479, 0.4634511172771454, -1.042724609375, 0.1630859375, 0.3662109375, 0, 
6, 3629275651, -0.4056207835674286, 0.6723198890686035, 0.25849032402038574, 0.5627169609069824, 9.51869010925293, -2.4146780967712402, -0.3592430055141449, 1.6400153636932373, 0.3190636932849884, 0.558275043964386, -1.049072265625, 0.16552734375, 0.3671875, 0, 
7, 3629283984, -0.4056455194950104, 0.6723116636276245, 0.25847676396369934, 0.5627151727676392, 9.507652282714844, -2.417846918106079, -0.3801807463169098, 1.430414080619812, 0.22480332851409912, 0.6031255722045898, -1.046875, 0.1650390625, 0.364990234375, 0, 
8, 3629292317, -0.4056708812713623, 0.6723052263259888, 0.2584655284881592, 0.5627095699310303, 9.490506172180176, -2.3943357467651367, -0.42524397373199463, 1.4613560438156128, 0.1518283635377884, 0.5195462703704834, -1.04931640625, 0.166015625, 0.37060546875, 0, 
9, 3629300650, -0.40568456053733826, 0.6722971200942993, 0.2584635615348816, 0.5627104043960571, 9.499726295471191, -2.412689685821533, -0.4013674855232239, 1.4019310474395752, 0.14496375620365143, 0.3960856795310974, -1.04443359375, 0.16796875, 0.36669921875, 0, 
10, 3629308983, -0.40569525957107544, 0.6722999811172485, 0.25846144556999207, 0.5627003908157349, 9.490677833557129, -2.404106378555298, -0.38459405303001404, 1.3611019849777222, -0.0636257529258728, 0.37999996542930603, -1.045166015625, 0.1640625, 0.369140625, 0, 
11, 3629317316, -0.40571358799934387, 0.6722984910011292, 0.25848135352134705, 0.562679648399353, 9.501700401306152, -2.436429977416992, -0.39926454424858093, 1.6022088527679443, -0.19743452966213226, 0.37613222002983093, -1.049072265625, 0.16552734375, 0.36767578125, 0, 
12, 3629325649, -0.40573713183403015, 0.672294020652771, 0.2584904134273529, 0.5626640319824219, 9.502752304077148, -2.4372239112854004, -0.3857027590274811, 1.6276308298110962, -0.07585655897855759, 0.38157522678375244, -1.0458984375, 0.16552734375, 0.364990234375, 0, 
13, 3629333982, -0.40575605630874634, 0.6722893714904785, 0.25850987434387207, 0.5626468658447266, 9.486368179321289, -2.4861061573028564, -0.3991824686527252, 1.6481223106384277, -0.14521989226341248, 0.351401686668396, -1.04638671875, 0.166015625, 0.36669921875, 0, 
14, 3629342315, -0.40577253699302673, 0.6722865104675293, 0.258525550365448, 0.5626313090324402, 9.497737884521484, -2.482544422149658, -0.36882203817367554, 1.6031309366226196, -0.14989449083805084, 0.27065280079841614, -1.04638671875, 0.16748046875, 0.3662109375, 0, 
15, 3629350648, -0.40577131509780884, 0.6722944974899292, 0.25853681564331055, 0.5626174807548523, 9.499333381652832, -2.436429738998413, -0.3665043115615845, 1.313382625579834, -0.23695726692676544, 0.29744529724121094, -1.0478515625, 0.16748046875, 0.36865234375, 0, 
16, 3629358981, -0.40577852725982666, 0.672301709651947, 0.2585413455963135, 0.5626015663146973, 9.508374214172363, -2.410980224609375, -0.3989354968070984, 1.3771876096725464, -0.20084120333194733, 0.34081020951271057, -1.04833984375, 0.16748046875, 0.3681640625, 0, 
17, 3629367314, -0.4058018624782562, 0.6722857356071472, 0.2585538923740387, 0.562597930431366, 9.51186466217041, -2.3781914710998535, -0.36203399300575256, 1.6331636905670166, 0.1250487118959427, 0.3315250873565674, -1.048583984375, 0.16650390625, 0.365478515625, 0, 
18, 3629375647, -0.40581169724464417, 0.6722807288169861, 0.25854796171188354, 0.5625995397567749, 9.526814460754395, -2.371718168258667, -0.33880871534347534, 1.3248194456100464, 0.12299955636262894, 0.3165407180786133, -1.04833984375, 0.16552734375, 0.36669921875, 0, 
19, 3629383980, -0.4058173894882202, 0.6722704172134399, 0.2585285007953644, 0.5626168251037598, 9.548394203186035, -2.3773975372314453, -0.361397385597229, 1.1450716257095337, 0.38420072197914124, 0.3954710066318512, -1.0458984375, 0.16796875, 0.36572265625, 0, 
20, 3629392313, -0.4058273136615753, 0.6722566485404968, 0.2585432529449463, 0.5626193284988403, 9.539782524108887, -2.3915598392486572, -0.3997723162174225, 1.5324867963790894, 0.08479592204093933, 0.08868928998708725, -1.048828125, 0.1650390625, 0.36572265625, 0, 
21, 3629400646, -0.40585771203041077, 0.6722299456596375, 0.2585783898830414, 0.5626131892204285, 9.507343292236328, -2.403989791870117, -0.35966986417770386, 1.9514591693878174, 0.0811074748635292, 0.15649017691612244, -1.052001953125, 0.16552734375, 0.3671875, 0, 
22, 3629408979, -0.4058837890625, 0.6722079515457153, 0.25859421491622925, 0.5626133680343628, 9.508267402648926, -2.4144446849823, -0.3621634542942047, 1.7448031902313232, 0.1788513958454132, 0.1866893619298935, -1.048095703125, 0.16552734375, 0.364990234375, 0, 
23, 3629417312, -0.40591147541999817, 0.6721863150596619, 0.25861823558807373, 0.5626080632209778, 9.491578102111816, -2.398402452468872, -0.3663684129714966, 1.8586840629577637, 0.08792085945606232, 0.24941860139369965, -1.05029296875, 0.162841796875, 0.36767578125, 0, 
24, 3629425645, -0.40593913197517395, 0.672172486782074, 0.2586546838283539, 0.5625879168510437, 9.522440910339355, -2.359941244125366, -0.410426527261734, 1.945183515548706, -0.18288566172122955, 0.15203329920768738, -1.044921875, 0.168701171875, 0.3681640625, 0, 
25, 3629433978, -0.4059617221355438, 0.6721667647361755, 0.2586899697780609, 0.5625623464584351, 9.541772842407227, -2.3391451835632324, -0.3338804543018341, 1.8651646375656128, -0.2972275912761688, 0.27516093850135803, -1.04931640625, 0.163818359375, 0.36669921875, 0, 
26, 3629442311, -0.40597763657569885, 0.6721677184104919, 0.2587059736251831, 0.562542200088501, 9.529789924621582, -2.351776123046875, -0.31546899676322937, 1.5956387519836426, -0.2248801589012146, 0.3032725155353546, -1.04736328125, 0.16748046875, 0.3681640625, 0, 
27, 3629450644, -0.40598899126052856, 0.6721656918525696, 0.25873491168022156, 0.5625231862068176, 9.545431137084961, -2.3221848011016846, -0.39495259523391724, 1.6685751676559448, -0.26866766810417175, 0.2232152372598648, -1.048095703125, 0.1669921875, 0.3662109375, 0, 
28, 3629458977, -0.40600934624671936, 0.67216956615448, 0.25875338912010193, 0.5624954104423523, 9.531612396240234, -2.333700180053711, -0.3224957287311554, 1.6657321453094482, -0.31618213653564453, 0.3673209249973297, -1.0439453125, 0.16650390625, 0.3662109375, 0, 
29, 3629467310, -0.4060329794883728, 0.6721730828285217, 0.2587553858757019, 0.5624732375144958, 9.502251625061035, -2.33492374420166, -0.34184831380844116, 1.5311548709869385, -0.14203092455863953, 0.6055333018302917, -1.04833984375, 0.16552734375, 0.3681640625, 0, 
30, 3629475643, -0.4060453176498413, 0.6721884608268738, 0.25875532627105713, 0.5624460577964783, 9.522858619689941, -2.349522829055786, -0.37431541085243225, 1.3830276727676392, -0.32437863945961, 0.5147821307182312, -1.046875, 0.163818359375, 0.3681640625, 0, 
31, 3629483976, -0.40606579184532166, 0.6721940636634827, 0.2587517499923706, 0.5624261498451233, 9.536127090454102, -2.3320844173431396, -0.40310561656951904, 1.440967321395874, -0.11739005148410797, 0.6268443465232849, -1.04736328125, 0.16552734375, 0.36767578125, 0, 
32, 3629492309, -0.40610215067863464, 0.6721943020820618, 0.2587609887123108, 0.562395453453064, 9.532180786132812, -2.3832759857177734, -0.3400135934352875, 1.773568034172058, -0.2073984593153, 0.581302285194397, -1.04541015625, 0.16748046875, 0.36767578125, 0, 
33, 3629500642, -0.4061387777328491, 0.6721883416175842, 0.2587754428386688, 0.5623693466186523, 9.504266738891602, -2.39605450630188, -0.3321571350097656, 1.820493221282959, -0.12971049547195435, 0.5778443217277527, -1.047607421875, 0.1669921875, 0.364990234375, 0, 
34, 3629508975, -0.4061669409275055, 0.6721960306167603, 0.25880494713783264, 0.5623262524604797, 9.50236988067627, -2.3971853256225586, -0.3284180164337158, 1.8568782806396484, -0.5209550857543945, 0.4259134829044342, -1.049072265625, 0.16748046875, 0.3671875, 0, 
35, 3629517308, -0.40621432662010193, 0.6721968054771423, 0.2588503062725067, 0.5622702836990356, 9.498051643371582, -2.4215242862701416, -0.32954153418540955, 2.212775468826294, -0.5887688398361206, 0.5691354870796204, -1.04541015625, 0.16650390625, 0.3662109375, 0, 
36, 3629525641, -0.4062668979167938, 0.672198474407196, 0.25889143347740173, 0.5622113347053528, 9.453696250915527, -2.3864896297454834, -0.29603955149650574, 2.2611353397369385, -0.5998597741127014, 0.5732850432395935, -1.047119140625, 0.16796875, 0.365234375, 0, 
37, 3629533974, -0.40631023049354553, 0.6721985936164856, 0.2589450776576996, 0.5621551275253296, 9.470649719238281, -2.3941266536712646, -0.3025113344192505, 2.2472264766693115, -0.6461703181266785, 0.4596089720726013, -1.049072265625, 0.1669921875, 0.36572265625, 0, 
38, 3629542307, -0.4063466191291809, 0.6722116470336914, 0.25898170471191406, 0.5620964169502258, 9.527045249938965, -2.387815237045288, -0.3272206783294678, 2.0128304958343506, -0.7169936299324036, 0.5291773080825806, -1.046875, 0.1650390625, 0.36572265625, 0, 
39, 3629550640, -0.40638041496276855, 0.6722231507301331, 0.2590005695819855, 0.5620494484901428, 9.517544746398926, -2.395494222640991, -0.41701239347457886, 1.804061770439148, -0.49219033122062683, 0.6941201686859131, -1.047607421875, 0.16845703125, 0.3662109375, 0, 
40, 3629558973, -0.40639355778694153, 0.6722403764724731, 0.25900572538375854, 0.5620169639587402, 9.513581275939941, -2.422267436981201, -0.3855382204055786, 1.4377269744873047, -0.41530919075012207, 0.5083913207054138, -1.049072265625, 0.16748046875, 0.3681640625, 0, 
41, 3629567306, -0.4063871502876282, 0.6722652912139893, 0.2589903175830841, 0.5619989633560181, 9.479419708251953, -2.437767505645752, -0.39500144124031067, 0.9664507508277893, -0.27267634868621826, 0.5895116329193115, -1.042236328125, 0.168701171875, 0.36962890625, 0, 
42, 3629575639, -0.4063838720321655, 0.6722846627235413, 0.2589687705039978, 0.561988115310669, 9.481128692626953, -2.4885809421539307, -0.4707782566547394, 0.9918984174728394, -0.14031477272510529, 0.51455157995224, -1.046875, 0.1669921875, 0.365478515625, 0, 
43, 3629583972, -0.40639230608940125, 0.6722818613052368, 0.2589679956436157, 0.5619855523109436, 9.484062194824219, -2.495004177093506, -0.4052584171295166, 1.2800074815750122, 0.0640484020113945, 0.3855070471763611, -1.048095703125, 0.16552734375, 0.364990234375, 0, 
44, 3629592305, -0.4064110219478607, 0.6723012924194336, 0.2590429186820984, 0.5619142651557922, 9.455649375915527, -2.4915730953216553, -0.3578309714794159, 2.1554765701293945, -1.1600943803787231, 0.13200297951698303, -1.04443359375, 0.169677734375, 0.36962890625, 0, 
45, 3629600638, -0.40647879242897034, 0.6723197102546692, 0.2592568099498749, 0.5617445111274719, 9.500029563903809, -2.5174121856689453, -0.537743330001831, 4.032590389251709, -2.65337872505188, -0.13534562289714813, -1.046875, 0.16552734375, 0.36962890625, 0, 
46, 3629608971, -0.4066450297832489, 0.6722833514213562, 0.25957125425338745, 0.5615224242210388, 9.601868629455566, -2.5768377780914307, -0.6550761461257935, 6.21886682510376, -2.9351351261138916, -0.29863637685775757, -1.04638671875, 0.168701171875, 0.3671875, 0, 
47, 3629617304, -0.4068140387535095, 0.6722428202629089, 0.2599197030067444, 0.5612875819206238, 9.671857833862305, -2.638368606567383, -0.28432178497314453, 6.572164535522461, -3.1894333362579346, -0.4445350170135498, -1.04638671875, 0.16748046875, 0.371826171875, 0, 
48, 3629625637, -0.4069231152534485, 0.6722148656845093, 0.26019200682640076, 0.5611158609390259, 9.532139778137207, -2.5417232513427734, -0.1706416755914688, 5.1381516456604, -2.5039963722229004, -0.6012685894966125, -1.044921875, 0.171142578125, 0.3671875, 0, 
49, 3629633970, -0.4071299433708191, 0.6721633076667786, 0.2605103552341461, 0.5608794689178467, 9.414130210876465, -2.405992269515991, -0.11404965817928314, 6.754167079925537, -2.814863681793213, 0.09374810755252838, -1.04638671875, 0.170166015625, 0.369140625, 0, 
50, 3629642303, -0.4073188304901123, 0.6721710562705994, 0.26073092222213745, 0.5606306791305542, 9.608879089355469, -2.419301748275757, -0.16716696321964264, 5.553102016448975, -2.9167182445526123, 1.051733136177063, -1.04833984375, 0.16748046875, 0.372802734375, 0, 
51, 3629650636, -0.40729254484176636, 0.6722123026847839, 0.260746568441391, 0.5605928897857666, 9.598943710327148, -2.199627637863159, -0.21675273776054382, 0.9800005555152893, -0.8220248222351074, 0.31787264347076416, -1.0439453125, 0.170166015625, 0.371826171875, 0, 
52, 3629658969, -0.40734562277793884, 0.6722386479377747, 0.26089563965797424, 0.5604534149169922, 9.508904457092285, -1.9492346048355103, -0.5442294478416443, 3.2494089603424072, -2.136124610900879, 0.11873478442430496, -1.041259765625, 0.167724609375, 0.369140625, 0, 
53, 3629667302, -0.4073871374130249, 0.672336995601654, 0.2611101269721985, 0.5602055191993713, 9.586983680725098, -1.9442235231399536, -0.7090214490890503, 3.576246976852417, -4.075967788696289, 0.38507160544395447, -1.046875, 0.171630859375, 0.369140625, 0, 
54, 3629675635, -0.40728485584259033, 0.6724500060081482, 0.2610854506492615, 0.5601556897163391, 9.54508113861084, -2.0905325412750244, -0.4427036941051483, -0.33281856775283813, -1.559125542640686, 0.33649417757987976, -1.04638671875, 0.169677734375, 0.3701171875, 0, 
55, 3629683968, -0.4072456359863281, 0.6725268959999084, 0.26114389300346375, 0.5600644946098328, 9.402532577514648, -2.2646470069885254, -0.3212919235229492, 1.2095423936843872, -1.8836195468902588, 0.2503919303417206, -1.046875, 0.170166015625, 0.37060546875, 0, 
56, 3629692301, -0.40712717175483704, 0.6726744771003723, 0.2610977292060852, 0.5599949359893799, 9.42763614654541, -2.3302102088928223, -0.6292538046836853, -0.7700151801109314, -1.945785403251648, 0.6463624238967896, -1.04443359375, 0.169189453125, 0.373291015625, 0, 
57, 3629700634, -0.4070500135421753, 0.6727917194366455, 0.2610725164413452, 0.5599220991134644, 9.492321968078613, -2.220571517944336, -0.6075402498245239, -0.07113072276115417, -1.6913591623306274, 0.7758679986000061, -1.0439453125, 0.170166015625, 0.372802734375, 0, 
58, 3629708967, -0.4070914089679718, 0.6728380918502808, 0.26110607385635376, 0.5598205327987671, 9.486945152282715, -2.363649606704712, -0.1548784226179123, 2.0042755603790283, -1.3354238271713257, 0.9547322988510132, -1.04443359375, 0.170166015625, 0.371826171875, 0, 
59, 3629717300, -0.4069332778453827, 0.6730207800865173, 0.2609115242958069, 0.5598065853118896, 9.520635604858398, -2.2836551666259766, -0.3088524639606476, -2.7158005237579346, -0.9907841682434082, 1.623519778251648, -1.04443359375, 0.169189453125, 0.373291015625, 0, 
60, 3629725633, -0.4068419635295868, 0.6731647253036499, 0.2607559263706207, 0.5597724318504333, 9.575654983520508, -2.2353787422180176, -0.4899566173553467, -1.4664149284362793, -0.8792341947555542, 1.6577918529510498, -1.046875, 0.16845703125, 0.371337890625, 0, 
61, 3629733966, -0.40685319900512695, 0.6732660531997681, 0.26073890924453735, 0.5596504211425781, 9.586845397949219, -2.4204914569854736, -0.193340465426445, 1.0789612531661987, -1.756675362586975, 1.5971884727478027, -1.0458984375, 0.172119140625, 0.373779296875, 0, 
62, 3629742299, -0.40678754448890686, 0.6734040975570679, 0.26057663559913635, 0.5596076250076294, 9.594245910644531, -2.3729958534240723, -0.09828374534845352, -1.2187509536743164, -0.7837955951690674, 1.9434415102005005, -1.0439453125, 0.170654296875, 0.36962890625, 0, 
63, 3629750632, -0.40672701597213745, 0.6735249161720276, 0.26039794087409973, 0.559589147567749, 9.53915786743164, -2.2381021976470947, -0.2655884325504303, -1.3334002494812012, -0.2961518168449402, 2.0334243774414062, -1.04638671875, 0.172607421875, 0.374755859375, 0, 
64, 3629758965, -0.40670251846313477, 0.6736441850662231, 0.26025116443634033, 0.5595317482948303, 9.530721664428711, -2.2364118099212646, -0.3811401128768921, -0.5587745904922485, -0.7156617045402527, 2.1318345069885254, -1.0458984375, 0.172119140625, 0.371337890625, 0, 
65, 3629767298, -0.4066316485404968, 0.673794686794281, 0.2600133419036865, 0.5595125555992126, 9.548306465148926, -2.2449517250061035, -0.38700225949287415, -2.0534932613372803, -0.23447269201278687, 2.612178087234497, -1.0458984375, 0.169189453125, 0.370849609375, 0, 
66, 3629775631, -0.4065245985984802, 0.6739728450775146, 0.2597310245037079, 0.5595067739486694, 9.545851707458496, -2.177938461303711, -0.41298675537109375, -2.8827028274536133, -0.22617368400096893, 2.673600912094116, -1.0458984375, 0.1689453125, 0.372314453125, 0, 
67, 3629783964, -0.406409353017807, 0.6741491556167603, 0.25944700837135315, 0.5595101118087769, 9.519598007202148, -2.250518321990967, -0.45778557658195496, -2.9819066524505615, -0.14195409417152405, 2.6642773151397705, -1.044921875, 0.173095703125, 0.372802734375, 0, 
68, 3629792297, -0.40626221895217896, 0.6743486523628235, 0.25912338495254517, 0.5595265030860901, 9.51442813873291, -2.369638681411743, -0.4871513247489929, -3.769493579864502, -0.09751340001821518, 2.7014694213867188, -1.04833984375, 0.170166015625, 0.372314453125, 0, 
69, 3629800630, -0.40613654255867004, 0.6745303273200989, 0.2588306665420532, 0.5595341920852661, 9.490926742553711, -2.622323751449585, -0.5232263207435608, -3.256850004196167, -0.11482862383127213, 2.6626126766204834, -1.04541015625, 0.170166015625, 0.373779296875, 0, 
70, 3629808963, -0.4060557186603546, 0.6747047901153564, 0.25857239961624146, 0.5595018267631531, 9.412179946899414, -2.8195013999938965, -0.39940765500068665, -2.3391685485839844, -0.4862861633300781, 2.7869181632995605, -1.044921875, 0.170166015625, 0.371826171875, 0, 
71, 3629817296, -0.40599462389945984, 0.6748914122581482, 0.2583565413951874, 0.5594210028648376, 9.473318099975586, -2.9438881874084473, -0.42288336157798767, -1.744201421737671, -1.1826348304748535, 2.957458257675171, -1.043701171875, 0.169677734375, 0.373779296875, 0, 
72, 3629825629, -0.40597566962242126, 0.675033688545227, 0.25820493698120117, 0.5593332052230835, 9.49662971496582, -2.9120192527770996, -0.48678046464920044, -0.5661258101463318, -1.1287169456481934, 2.469404458999634, -1.04541015625, 0.170654296875, 0.374755859375, 0, 
73, 3629833962, -0.40595224499702454, 0.675148069858551, 0.25808826088905334, 0.5592657923698425, 9.430628776550293, -2.7393226623535156, -0.6615427732467651, -0.27058881521224976, -0.9238030314445496, 1.9916987419128418, -1.042724609375, 0.171630859375, 0.375244140625, 0, 
74, 3629842295, -0.4059171676635742, 0.6752569675445557, 0.25800496339797974, 0.559198260307312, 9.391433715820312, -2.564847469329834, -0.8003548979759216, -0.07686831802129745, -1.1231329441070557, 1.4786200523376465, -1.041748046875, 0.169189453125, 0.375732421875, 0, 
75, 3629850628, -0.40589439868927, 0.6753084659576416, 0.2579953372478485, 0.5591568946838379, 9.330848693847656, -2.4478886127471924, -0.8909299969673157, 0.7946047186851501, -0.7861648201942444, 0.6362319588661194, -1.044921875, 0.170166015625, 0.375244140625, 0, 
76, 3629858961, -0.40590760111808777, 0.6753333806991577, 0.2580029368400574, 0.5591137409210205, 9.283560752868652, -2.5545735359191895, -0.801598072052002, 1.4523143768310547, -0.5860792994499207, 0.5715944170951843, -1.04736328125, 0.172119140625, 0.375732421875, 0, 
77, 3629867294, -0.4059474766254425, 0.675353467464447, 0.25800588726997375, 0.5590592622756958, 9.300997734069824, -2.6847894191741943, -0.7522162199020386, 1.7152187824249268, -0.519943356513977, 0.961340606212616, -1.040771484375, 0.171142578125, 0.375732421875, 0, 
78, 3629875627, -0.40604978799819946, 0.6753168702125549, 0.25806793570518494, 0.5590004920959473, 9.329278945922852, -2.7980644702911377, -0.625668466091156, 3.097080945968628, -0.24635769426822662, 0.6197491884231567, -1.044189453125, 0.170166015625, 0.376953125, 0, 
79, 3629883960, -0.4061998724937439, 0.6752164959907532, 0.25822722911834717, 0.5589389801025391, 9.35714340209961, -2.7900662422180176, -0.5054996609687805, 4.618900299072266, -0.13403929769992828, -0.031146910041570663, -1.042724609375, 0.173583984375, 0.373779296875, 0, 
80, 3629892293, -0.4064066410064697, 0.6750822067260742, 0.25842946767807007, 0.5588574409484863, 9.411355018615723, -2.7649760246276855, -0.4651135802268982, 5.772974967956543, -0.1187732145190239, -0.09802567958831787, -1.0439453125, 0.170166015625, 0.371826171875, 0, 
81, 3629900626, -0.4066179692745209, 0.6749365925788879, 0.25864177942276, 0.558781623840332, 9.477319717407227, -2.6409549713134766, -0.4674633741378784, 5.910984039306641, -0.00020491387112997472, -0.13590912520885468, -1.043212890625, 0.169677734375, 0.372314453125, 0, 
82, 3629908959, -0.40681323409080505, 0.6747925877571106, 0.2588178217411041, 0.5587319135665894, 9.56946086883545, -2.4330272674560547, -0.39369550347328186, 5.403745651245117, 0.3560506999492645, -0.15532472729682922, -1.0439453125, 0.173095703125, 0.372314453125, 0, 
83, 3629917292, -0.40696877241134644, 0.6746510863304138, 0.25895214080810547, 0.5587273836135864, 9.584310531616211, -2.3677799701690674, -0.34570395946502686, 4.510295391082764, 0.8693856000900269, -0.22694213688373566, -1.044921875, 0.172607421875, 0.374267578125, 0, 
84, 3629925625, -0.40707626938819885, 0.6745407581329346, 0.2589907944202423, 0.5587643980979919, 9.532599449157715, -2.373903512954712, -0.3383973240852356, 3.03824520111084, 1.3593857288360596, 0.07995482534170151, -1.044921875, 0.17529296875, 0.375732421875, 0, 
85, 3629933958, -0.4071475863456726, 0.6744290590286255, 0.25899288058280945, 0.5588461756706238, 9.502399444580078, -2.3532333374023438, -0.39452654123306274, 2.2523491382598877, 1.8771008253097534, -0.02448720671236515, -1.04541015625, 0.173583984375, 0.372802734375, 0, 
86, 3629942291, -0.4072209894657135, 0.6743263006210327, 0.2589960992336273, 0.5589151978492737, 9.472001075744629, -2.2875149250030518, -0.39050859212875366, 2.2911932468414307, 1.67399263381958, -0.0059553091414272785, -1.043701171875, 0.171630859375, 0.374755859375, 0, 
87, 3629950624, -0.40729060769081116, 0.674240231513977, 0.25899744033813477, 0.5589674711227417, 9.539292335510254, -2.25014591217041, -0.4050891101360321, 2.1928861141204834, 1.4034039974212646, 0.22724951803684235, -1.04443359375, 0.171630859375, 0.372802734375, 0, 
88, 3629958957, -0.4073787331581116, 0.6741697788238525, 0.25896304845809937, 0.5590041875839233, 9.5573091506958, -2.3579437732696533, -0.4412575364112854, 2.073728561401367, 1.390417456626892, 0.7519057989120483, -1.046875, 0.17529296875, 0.374755859375, 0, 
89, 3629967290, -0.4074549674987793, 0.6741113662719727, 0.25893014669418335, 0.5590343475341797, 9.563261032104492, -2.4297070503234863, -0.4356534779071808, 1.9081836938858032, 1.2031519412994385, 0.8173502087593079, -1.04541015625, 0.17431640625, 0.373291015625, 0, 
90, 3629975623, -0.40756261348724365, 0.6740327477455139, 0.25894948840141296, 0.5590417385101318, 9.535128593444824, -2.3857927322387695, -0.4585695266723633, 2.8184752464294434, 0.9493532776832581, 0.5389875769615173, -1.0458984375, 0.1748046875, 0.370361328125, 0, 
91, 3629983956, -0.4077034294605255, 0.6739434599876404, 0.2590075731277466, 0.5590198636054993, 9.52126407623291, -2.395538330078125, -0.40514811873435974, 3.548288583755493, 0.6823887825012207, 0.6542388200759888, -1.04638671875, 0.173583984375, 0.372802734375, 0, 
92, 3629992289, -0.40783029794692993, 0.6738847494125366, 0.2590499818325043, 0.5589783787727356, 9.506731986999512, -2.397584915161133, -0.4813394844532013, 3.2372167110443115, 0.28176939487457275, 0.8181058764457703, -1.047607421875, 0.174072265625, 0.372314453125, 0, 
93, 3630000622, -0.4079439640045166, 0.6738396286964417, 0.25910744071006775, 0.5589233040809631, 9.513171195983887, -2.384300947189331, -0.4582701325416565, 3.177919626235962, -0.06060328334569931, 0.7931575179100037, -1.0439453125, 0.174072265625, 0.375732421875, 0, 
94, 3630008955, -0.4080452620983124, 0.6738015413284302, 0.2591557204723358, 0.5588728785514832, 9.483170509338379, -2.3762476444244385, -0.4147774279117584, 2.9619150161743164, -0.08432205766439438, 0.6903164386749268, -1.045654296875, 0.17578125, 0.370849609375, 0, 
95, 3630017288, -0.4081268012523651, 0.6737644672393799, 0.2591988444328308, 0.558837890625, 9.505659103393555, -2.393399715423584, -0.41791126132011414, 2.6899685859680176, 0.021221395581960678, 0.5938020348548889, -1.04345703125, 0.173095703125, 0.372802734375, 0, 
96, 3630025621, -0.40819618105888367, 0.6737562417984009, 0.2591959834098816, 0.558798611164093, 9.477110862731934, -2.411778450012207, -0.4343407154083252, 2.0654423236846924, -0.03583431616425514, 0.9634155035018921, -1.044921875, 0.17626953125, 0.370849609375, 0, 
97, 3630033954, -0.4082423150539398, 0.6737589836120605, 0.2591983377933502, 0.5587605237960815, 9.492347717285156, -2.427419662475586, -0.4180167019367218, 1.8152679204940796, -0.20663002133369446, 0.859447181224823, -1.04248046875, 0.17529296875, 0.370849609375, 0, 
98, 3630042287, -0.4082820415496826, 0.6737610101699829, 0.259182333946228, 0.5587364435195923, 9.505695343017578, -2.477499485015869, -0.3959091603755951, 1.5771325826644897, -0.006531630177050829, 0.8096020221710205, -1.046875, 0.171630859375, 0.374267578125, 0, 
99, 3630050620, -0.40829551219940186, 0.6737751960754395, 0.25917863845825195, 0.558711051940918, 9.473332405090332, -2.504725217819214, -0.41886332631111145, 1.3058265447616577, -0.24459035694599152, 0.6351433992385864, -1.0419921875, 0.17626953125, 0.371337890625, 0, 
100, 3630058953, -0.40829339623451233, 0.6738000512123108, 0.2591591775417328, 0.5586915612220764, 9.456694602966309, -2.4638540744781494, -0.3805603086948395, 1.0176663398742676, -0.26836034655570984, 0.5744120478630066, -1.044921875, 0.17578125, 0.373291015625, 0, 
101, 3630067286, -0.40827858448028564, 0.6738307476043701, 0.2591174840927124, 0.5586849451065063, 9.449993133544922, -2.409621238708496, -0.44249632954597473, 0.6207481622695923, -0.09597653895616531, 0.7246138453483582, -1.044921875, 0.17578125, 0.374267578125, 0, 
102, 3630075619, -0.40827637910842896, 0.6738642454147339, 0.25907474756240845, 0.558665931224823, 9.483418464660645, -2.4029760360717773, -0.4469449818134308, 0.7882140278816223, -0.1988176852464676, 0.8183107972145081, -1.04345703125, 0.17333984375, 0.371337890625, 0, 
103, 3630083952, -0.40824466943740845, 0.6738991141319275, 0.25903135538101196, 0.5586672425270081, 9.493209838867188, -2.4622302055358887, -0.3971973657608032, 0.4128630459308624, -0.10804083943367004, 0.5779468417167664, -1.04248046875, 0.173828125, 0.372314453125, 0, 
104, 3630092285, -0.4081716239452362, 0.6739555597305298, 0.2589399814605713, 0.5586948990821838, 9.491643905639648, -2.4675304889678955, -0.4000728130340576, -0.5366438031196594, 0.07723972201347351, 0.5450324416160583, -1.0439453125, 0.17431640625, 0.37646484375, 0, 
105, 3630100618, -0.4080919027328491, 0.6740050911903381, 0.2588507831096649, 0.558734655380249, 9.537994384765625, -2.454998731613159, -0.5141037702560425, -0.605520486831665, 0.2236250638961792, 0.47159644961357117, -1.043701171875, 0.171142578125, 0.375244140625, 0, 
106, 3630108951, -0.40804964303970337, 0.6740401387214661, 0.2587902545928955, 0.5587512850761414, 9.48792552947998, -2.522951126098633, -0.49739453196525574, 0.14591148495674133, 0.0755491852760315, 0.47858917713165283, -1.04296875, 0.17578125, 0.372314453125, 0, 
107, 3630117284, -0.40803542733192444, 0.6740739941596985, 0.2587329149246216, 0.5587470531463623, 9.51381778717041, -2.623433828353882, -0.4179045855998993, 0.5098513960838318, -0.013921338133513927, 0.8703717589378357, -1.046875, 0.172119140625, 0.372314453125, 0, 
108, 3630125617, -0.40804198384284973, 0.6740888357162476, 0.25870317220687866, 0.5587382316589355, 9.486944198608398, -2.615523099899292, -0.3937859535217285, 1.0388236045837402, -0.0038421351928263903, 0.6410602331161499, -1.04443359375, 0.174072265625, 0.374755859375, 0, 
109, 3630133950, -0.40804532170295715, 0.6741067171096802, 0.2587181031703949, 0.5587074160575867, 9.49531364440918, -2.486335277557373, -0.3542374074459076, 1.4092310667037964, -0.48059985041618347, 0.4280778467655182, -1.044921875, 0.17431640625, 0.374755859375, 0, 
110, 3630142283, -0.4080853760242462, 0.6741106510162354, 0.2587580382823944, 0.5586549639701843, 9.526494026184082, -2.4307971000671387, -0.4286245107650757, 2.0999956130981445, -0.5967860221862793, 0.45674020051956177, -1.044921875, 0.17431640625, 0.375732421875, 0, 
111, 3630150616, -0.40811610221862793, 0.6741155385971069, 0.2587953805923462, 0.5586092472076416, 9.525712966918945, -2.3366048336029053, -0.38999128341674805, 1.907940149307251, -0.5329552888870239, 0.468292236328125, -1.046142578125, 0.173828125, 0.36962890625, 0, 
112, 3630158949, -0.40815573930740356, 0.6741252541542053, 0.25880947709083557, 0.5585620403289795, 9.53042221069336, -2.283895969390869, -0.3980115056037903, 1.8472344875335693, -0.4485052227973938, 0.6856802701950073, -1.040771484375, 0.173828125, 0.371826171875, 0, 
113, 3630167282, -0.40817025303840637, 0.6741337776184082, 0.25880369544029236, 0.5585436820983887, 9.52989673614502, -2.3156611919403076, -0.35324257612228394, 1.3388689756393433, -0.13229753077030182, 0.6027157306671143, -1.04541015625, 0.174072265625, 0.373779296875, 0, 
114, 3630175615, -0.40816792845726013, 0.6741690039634705, 0.25874489545822144, 0.5585300922393799, 9.501471519470215, -2.3751730918884277, -0.40232595801353455, 0.6356556415557861, -0.07371775805950165, 0.9409517645835876, -1.04296875, 0.17724609375, 0.373779296875, 0, 
115, 3630183948, -0.4081558585166931, 0.6742053031921387, 0.25868281722068787, 0.5585240721702576, 9.485063552856445, -2.4757063388824463, -0.47333937883377075, 0.4793575704097748, -0.015778368338942528, 0.9508387446403503, -1.04638671875, 0.173583984375, 0.373291015625, 0, 
116, 3630192281, -0.4081600308418274, 0.6742355227470398, 0.25863271951675415, 0.5585077404975891, 9.461895942687988, -2.537449836730957, -0.46138033270835876, 0.8015078902244568, -0.08542347699403763, 0.907371461391449, -1.0419921875, 0.172607421875, 0.3701171875, 0, 
117, 3630200614, -0.4081774652004242, 0.6742556095123291, 0.25862008333206177, 0.5584766268730164, 9.431238174438477, -2.5533790588378906, -0.45665937662124634, 1.296221137046814, -0.29087525606155396, 0.8017895817756653, -1.0439453125, 0.173828125, 0.371826171875, 0, 
118, 3630208947, -0.4082070291042328, 0.6742722392082214, 0.25860440731048584, 0.5584421753883362, 9.478748321533203, -2.563223361968994, -0.48645728826522827, 1.4404548406600952, -0.25288933515548706, 0.8374958634376526, -1.04443359375, 0.173583984375, 0.371337890625, 0, 
119, 3630217280, -0.4082416594028473, 0.6742727756500244, 0.2586139738559723, 0.558411717414856, 9.4673433303833, -2.5905508995056152, -0.46032294631004333, 1.7396037578582764, -0.20048263669013977, 0.6549688577651978, -1.047607421875, 0.17578125, 0.375244140625, 0, 
120, 3630225613, -0.4082738757133484, 0.6742806434631348, 0.25864508748054504, 0.5583640933036804, 9.465959548950195, -2.589452028274536, -0.4344102144241333, 1.921400547027588, -0.560580313205719, 0.465692400932312, -1.04296875, 0.17626953125, 0.37646484375, 0, 
121, 3630233946, -0.4083074927330017, 0.6742821335792542, 0.25869274139404297, 0.5583158731460571, 9.500027656555176, -2.5161008834838867, -0.4579113721847534, 2.0923500061035156, -0.5909075140953064, 0.3957911431789398, -1.04541015625, 0.172607421875, 0.371826171875, 0, 
122, 3630242279, -0.40833428502082825, 0.6742957830429077, 0.2586979568004608, 0.5582773685455322, 9.530607223510742, -2.482757091522217, -0.4142199456691742, 1.606307029724121, -0.39448481798171997, 0.6358605623245239, -1.0439453125, 0.17626953125, 0.373291015625, 0, 
123, 3630250612, -0.40834128856658936, 0.6743142604827881, 0.25870829820632935, 0.558245062828064, 9.514167785644531, -2.4601058959960938, -0.41514384746551514, 1.4573602676391602, -0.47250571846961975, 0.50328129529953, -1.04150390625, 0.17626953125, 0.371826171875, 0, 
124, 3630258945, -0.4083752930164337, 0.6743247509002686, 0.2587130069732666, 0.5582051873207092, 9.503565788269043, -2.500189781188965, -0.4731869697570801, 1.691884160041809, -0.354142427444458, 0.6919301152229309, -1.0439453125, 0.17578125, 0.372314453125, 0, 
125, 3630267278, -0.408392995595932, 0.6743319034576416, 0.25872471928596497, 0.5581781268119812, 9.48919677734375, -2.5232930183410645, -0.4408123791217804, 1.5878263711929321, -0.2989821434020996, 0.5051895380020142, -1.0439453125, 0.172119140625, 0.371826171875, 0, 
126, 3630275611, -0.4084022343158722, 0.6743483543395996, 0.25872689485549927, 0.558150589466095, 9.488067626953125, -2.4908130168914795, -0.4691120386123657, 1.3655461072921753, -0.3598927855491638, 0.4764759838581085, -1.04638671875, 0.17578125, 0.374755859375, 0, 
127, 3630283944, -0.4084208607673645, 0.6743564009666443, 0.25873827934265137, 0.5581220388412476, 9.493261337280273, -2.4504261016845703, -0.5177565813064575, 1.615387201309204, -0.32226547598838806, 0.5260651111602783, -1.0419921875, 0.17578125, 0.372802734375, 0, 
128, 3630292277, -0.4084644913673401, 0.6743478178977966, 0.25875139236450195, 0.558094322681427, 9.488683700561523, -2.517918348312378, -0.5381606817245483, 1.9101815223693848, -0.10813048481941223, 0.5508597493171692, -1.0439453125, 0.17431640625, 0.371826171875, 0, 
129, 3630300610, -0.4084881544113159, 0.6743488311767578, 0.25878095626831055, 0.5580620765686035, 9.478580474853516, -2.5143167972564697, -0.46243417263031006, 1.7789342403411865, -0.3662450909614563, 0.39632904529571533, -1.047607421875, 0.1787109375, 0.371826171875, 0, 
130, 3630308943, -0.40851086378097534, 0.6743506193161011, 0.25880420207977295, 0.5580323934555054, 9.46663761138916, -2.507211208343506, -0.46879342198371887, 1.742408275604248, -0.33763402700424194, 0.3446139097213745, -1.044921875, 0.17724609375, 0.376953125, 0, 
131, 3630317276, -0.40853384137153625, 0.6743537187576294, 0.2588294446468353, 0.5580002665519714, 9.478376388549805, -2.525642156600952, -0.47110483050346375, 1.7334178686141968, -0.3614553213119507, 0.43582624197006226, -1.044921875, 0.1767578125, 0.37548828125, 0, 
132, 3630325609, -0.4085552394390106, 0.6743499040603638, 0.25886261463165283, 0.5579738020896912, 9.481494903564453, -2.4991068840026855, -0.45614007115364075, 1.826960802078247, -0.3241097033023834, 0.20414544641971588, -1.046142578125, 0.17724609375, 0.374755859375, 0, 
133, 3630333942, -0.40857717394828796, 0.6743414998054504, 0.2588946223258972, 0.5579532384872437, 9.448704719543457, -2.4740328788757324, -0.4097283184528351, 1.767510175704956, -0.1991378664970398, 0.26377537846565247, -1.04541015625, 0.17724609375, 0.373291015625, 0, 
134, 3630342275, -0.40859073400497437, 0.6743389964103699, 0.25891539454460144, 0.5579367280006409, 9.492051124572754, -2.475820779800415, -0.4396280348300934, 1.6169754266738892, -0.20011121034622192, 0.20540054142475128, -1.04541015625, 0.177734375, 0.373291015625, 0, 
135, 3630350608, -0.408606618642807, 0.674334704875946, 0.25894439220428467, 0.5579167604446411, 9.514445304870605, -2.4930953979492188, -0.442790687084198, 1.6894892454147339, -0.23602236807346344, 0.25465673208236694, -1.04296875, 0.179443359375, 0.374755859375, 0, 
136, 3630358941, -0.4086074233055115, 0.6743443012237549, 0.2589665651321411, 0.5578943490982056, 9.50120735168457, -2.5066137313842773, -0.4256442189216614, 1.4614330530166626, -0.4008883833885193, 0.1736004650592804, -1.04541015625, 0.17529296875, 0.375732421875, 0, 
137, 3630367274, -0.4085974395275116, 0.6743572950363159, 0.2589777112007141, 0.5578805804252625, 9.50566291809082, -2.493288040161133, -0.4341203570365906, 1.1496692895889282, -0.2919894754886627, 0.24745908379554749, -1.046630859375, 0.17724609375, 0.373779296875, 0, 
138, 3630375607, -0.40859681367874146, 0.6743627190589905, 0.25899365544319153, 0.5578670501708984, 9.477946281433105, -2.486886501312256, -0.43986421823501587, 1.3916982412338257, -0.2571028769016266, 0.15483807027339935, -1.0439453125, 0.17529296875, 0.374755859375, 0, 
139, 3630383940, -0.40860944986343384, 0.6743626594543457, 0.2590380907058716, 0.5578372478485107, 9.50003719329834, -2.4518110752105713, -0.4254317581653595, 1.7913058996200562, -0.4579440653324127, 0.1561187505722046, -1.0458984375, 0.17626953125, 0.3759765625, 0, 
140, 3630392273, -0.40861576795578003, 0.6743680238723755, 0.25905418395996094, 0.5578186511993408, 9.541413307189941, -2.4203860759735107, -0.39729034900665283, 1.4758154153823853, -0.28082165122032166, 0.23549726605415344, -1.0419921875, 0.17626953125, 0.372314453125, 0, 
141, 3630400606, -0.4086049199104309, 0.6743821501731873, 0.2590384781360626, 0.5578169226646423, 9.51644229888916, -2.414005756378174, -0.3781636655330658, 0.9660024046897888, -0.06096187233924866, 0.4247736632823944, -1.04248046875, 0.177734375, 0.37646484375, 0, 
142, 3630408939, -0.40859663486480713, 0.674395740032196, 0.2590126097202301, 0.5578184723854065, 9.514339447021484, -2.4335832595825195, -0.4509795904159546, 0.900801420211792, 0.026561960577964783, 0.42786017060279846, -1.0458984375, 0.17578125, 0.372802734375, 0, 
143, 3630417272, -0.40859562158584595, 0.674402117729187, 0.2589815855026245, 0.5578257441520691, 9.493474960327148, -2.454798460006714, -0.468296617269516, 0.8619958162307739, 0.22632735967636108, 0.5666893124580383, -1.0458984375, 0.17529296875, 0.373779296875, 0, 
144, 3630425605, -0.4085908532142639, 0.6744188070297241, 0.25895386934280396, 0.5578219890594482, 9.486529350280762, -2.4856128692626953, -0.4498923718929291, 0.9206011891365051, -0.022809475660324097, 0.5147948861122131, -1.04052734375, 0.177734375, 0.373291015625, 0, 
145, 3630433938, -0.40859320759773254, 0.6744235157966614, 0.258937805891037, 0.5578222274780273, 9.476679801940918, -2.5131869316101074, -0.4780741333961487, 1.1085071563720703, 0.08396344631910324, 0.4848773777484894, -1.04443359375, 0.17529296875, 0.373291015625, 0, 
146, 3630442271, -0.4085844159126282, 0.6744353771209717, 0.25892406702041626, 0.5578206777572632, 9.46911907196045, -2.4921576976776123, -0.4908209443092346, 1.009200930595398, -0.059540294110774994, 0.3228418231010437, -1.04296875, 0.17626953125, 0.374267578125, 0, 
147, 3630450604, -0.40858644247055054, 0.6744428873062134, 0.25893259048461914, 0.5578062534332275, 9.482487678527832, -2.5020501613616943, -0.5023155212402344, 1.3393938541412354, -0.21412216126918793, 0.3459458649158478, -1.0458984375, 0.17431640625, 0.375732421875, 0, 
148, 3630458937, -0.40859904885292053, 0.6744581460952759, 0.25893545150756836, 0.5577772259712219, 9.464241027832031, -2.5125505924224854, -0.4597775936126709, 1.4141364097595215, -0.3566654324531555, 0.4996568262577057, -1.04345703125, 0.17578125, 0.375244140625, 0, 
149, 3630467270, -0.4085923433303833, 0.674469530582428, 0.2589358687400818, 0.5577680468559265, 9.460028648376465, -2.523916482925415, -0.46703091263771057, 1.1607857942581177, -0.18172016739845276, 0.34015700221061707, -1.0439453125, 0.177734375, 0.375244140625, 0, 
150, 3630475603, -0.40860116481781006, 0.6744723320007324, 0.25895729660987854, 0.5577483177185059, 9.474212646484375, -2.5180296897888184, -0.46152305603027344, 1.5588438510894775, -0.2918741703033447, 0.2013406902551651, -1.04541015625, 0.1748046875, 0.37646484375, 0, 
151, 3630483936, -0.4086145758628845, 0.6744624376296997, 0.2589816749095917, 0.5577390789985657, 9.46768856048584, -2.528594732284546, -0.44439199566841125, 1.6135302782058716, -0.07374338060617447, 0.1966276615858078, -1.041259765625, 0.17529296875, 0.374267578125, 0, 
152, 3630492269, -0.4086155295372009, 0.6744624376296997, 0.25897854566574097, 0.5577399134635925, 9.477388381958008, -2.534166097640991, -0.415444016456604, 1.2385250329971313, 0.030173568055033684, 0.24354013800621033, -1.04443359375, 0.172607421875, 0.3759765625, 0, 
153, 3630500602, -0.40860074758529663, 0.6744652390480042, 0.25899118185043335, 0.5577414631843567, 9.468375205993652, -2.527900457382202, -0.4248073399066925, 1.1776399612426758, -0.11261298507452011, 0.07251390069723129, -1.0439453125, 0.17431640625, 0.374755859375, 0, 
154, 3630508935, -0.408607542514801, 0.6744627952575684, 0.259024053812027, 0.5577242374420166, 9.45997142791748, -2.486049175262451, -0.48986244201660156, 1.6494030952453613, -0.2994944453239441, 0.04889757186174393, -1.04443359375, 0.173095703125, 0.371826171875, 0, 
155, 3630517268, -0.40862613916397095, 0.6744582056999207, 0.2590651512145996, 0.557697057723999, 9.47610855102539, -2.5102734565734863, -0.4750606119632721, 1.8349781036376953, -0.36004647612571716, 0.1988176852464676, -1.04296875, 0.17333984375, 0.372314453125, 0, 
156, 3630525601, -0.4086371958255768, 0.6744500398635864, 0.2590889036655426, 0.5576878190040588, 9.484326362609863, -2.481299877166748, -0.44346195459365845, 1.620177149772644, -0.1167880967259407, 0.10207272320985794, -1.04248046875, 0.17578125, 0.375244140625, 0, 
157, 3630533934, -0.40863916277885437, 0.6744462251663208, 0.2591046392917633, 0.5576835870742798, 9.495885848999023, -2.4751410484313965, -0.4624670743942261, 1.4410055875778198, -0.0775470957159996, 0.17804454267024994, -1.041259765625, 0.17529296875, 0.37548828125, 0, 
158, 3630542267, -0.40863969922065735, 0.6744380593299866, 0.2591111660003662, 0.5576900243759155, 9.498403549194336, -2.4770290851593018, -0.45015692710876465, 1.3350651264190674, 0.08829226344823837, 0.09131474047899246, -1.044921875, 0.179931640625, 0.3759765625, 0, 
159, 3630550600, -0.40862688422203064, 0.6744315028190613, 0.2591058015823364, 0.5577098727226257, 9.47873306274414, -2.4768149852752686, -0.40972915291786194, 1.0589436292648315, 0.23413971066474915, 0.11869636178016663, -1.0419921875, 0.17822265625, 0.374267578125, 0, 
160, 3630558933, -0.40862545371055603, 0.6744253635406494, 0.2591073513031006, 0.5577175617218018, 9.465636253356934, -2.4982733726501465, -0.4900197982788086, 1.2636783123016357, 0.10629907250404358, 0.12046374380588531, -1.04248046875, 0.17626953125, 0.373779296875, 0, 
161, 3630567266, -0.40861910581588745, 0.6744225025177002, 0.2591131925582886, 0.5577229857444763, 9.475635528564453, -2.5031731128692627, -0.4761647582054138, 1.238217830657959, 0.031198136508464813, 0.15868018567562103, -1.04345703125, 0.17578125, 0.371826171875, 0, 
162, 3630575599, -0.40861865878105164, 0.6744216084480286, 0.2591322958469391, 0.5577155947685242, 9.487252235412598, -2.5114128589630127, -0.4293922185897827, 1.432142972946167, -0.17009131610393524, 0.06903035193681717, -1.0419921875, 0.17431640625, 0.373291015625, 0, 
163, 3630583932, -0.4086216688156128, 0.6744105815887451, 0.2591530978679657, 0.5577170252799988, 9.492966651916504, -2.4890172481536865, -0.4037993550300598, 1.531577467918396, -0.0027791443280875683, 0.08322064578533173, -1.044921875, 0.173095703125, 0.371826171875, 0, 
164, 3630592265, -0.40862220525741577, 0.6743988394737244, 0.25916725397109985, 0.5577241778373718, 9.47788143157959, -2.4729809761047363, -0.46123677492141724, 1.4130091667175293, 0.08127397298812866, 0.004072663374245167, -1.041259765625, 0.17626953125, 0.373779296875, 0, 
165, 3630600598, -0.40860748291015625, 0.6743899583816528, 0.2592168152332306, 0.5577225089073181, 9.492194175720215, -2.4755918979644775, -0.4361732006072998, 1.5473557710647583, -0.26145729422569275, -0.29575473070144653, -1.04443359375, 0.177734375, 0.374267578125, 0, 
166, 3630608931, -0.4086250960826874, 0.674369215965271, 0.259258896112442, 0.5577150583267212, 9.49919319152832, -2.4930882453918457, -0.44015178084373474, 1.8855149745941162, -0.08336152881383896, -0.07373057305812836, -1.0439453125, 0.17578125, 0.37744140625, 0, 
167, 3630617264, -0.40862682461738586, 0.6743528842926025, 0.25927454233169556, 0.5577265024185181, 9.473769187927246, -2.5351107120513916, -0.4018753170967102, 1.403762698173523, 0.1754063069820404, 0.04736072197556496, -1.0439453125, 0.17529296875, 0.374755859375, 0, 
168, 3630625597, -0.40862828493118286, 0.6743425130844116, 0.2592925727367401, 0.5577296614646912, 9.476851463317871, -2.5147318840026855, -0.5190889239311218, 1.4569119215011597, 0.013729228638112545, 0.0022028242237865925, -1.04443359375, 0.17626953125, 0.373779296875, 0, 
169, 3630633930, -0.4086434245109558, 0.6743170022964478, 0.2593429386615753, 0.5577258467674255, 9.472090721130371, -2.48909330368042, -0.43772539496421814, 1.9166362285614014, -0.048090726137161255, -0.11906776577234268, -1.04541015625, 0.17626953125, 0.371337890625, 0, 
170, 3630642263, -0.4086548984050751, 0.6742886900901794, 0.2593746781349182, 0.5577369332313538, 9.492774963378906, -2.511072874069214, -0.47699645161628723, 1.7254773378372192, 0.18388457596302032, -0.1569768339395523, -1.04345703125, 0.17431640625, 0.374267578125, 0, 
171, 3630650596, -0.40866896510124207, 0.674245297908783, 0.259410560131073, 0.5577625036239624, 9.484162330627441, -2.4861299991607666, -0.499550461769104, 1.7671259641647339, 0.4459694027900696, -0.22108924388885498, -1.04296875, 0.17626953125, 0.372802734375, 0, 
172, 3630658929, -0.40870699286460876, 0.6741907000541687, 0.2594715654850006, 0.5577722191810608, 9.511310577392578, -2.5457980632781982, -0.5028885006904602, 2.3498754501342773, 0.30260658264160156, -0.3113026022911072, -1.044921875, 0.17822265625, 0.372314453125, 0, 
173, 3630667262, -0.40872544050216675, 0.6741378903388977, 0.25952431559562683, 0.557797908782959, 9.499561309814453, -2.5569870471954346, -0.4183410704135895, 2.0237550735473633, 0.4309082627296448, -0.37856554985046387, -1.0458984375, 0.17529296875, 0.373291015625, 0, 
174, 3630675595, -0.4087163805961609, 0.6740939021110535, 0.25955232977867126, 0.5578447580337524, 9.445236206054688, -2.491063356399536, -0.42305490374565125, 1.4690788984298706, 0.5827239751815796, -0.5377068519592285, -1.04248046875, 0.17333984375, 0.371337890625, 0, 
175, 3630683928, -0.40873727202415466, 0.6740356087684631, 0.2596013844013214, 0.5578769445419312, 9.460226058959961, -2.490250587463379, -0.5008212327957153, 2.0272903442382812, 0.5623093247413635, -0.38266387581825256, -1.047607421875, 0.17626953125, 0.372802734375, 0, 
176, 3630692261, -0.40875306725502014, 0.6739835143089294, 0.2596450746059418, 0.5579078793525696, 9.460124969482422, -2.559391975402832, -0.45983588695526123, 1.9214519262313843, 0.49942636489868164, -0.4313565492630005, -1.044921875, 0.17822265625, 0.372802734375, 0, 
177, 3630700594, -0.4087434411048889, 0.6739488840103149, 0.25969022512435913, 0.5579360127449036, 9.462800025939941, -2.520629405975342, -0.41453108191490173, 1.5928211212158203, 0.2573462128639221, -0.4742603302001953, -1.042724609375, 0.17431640625, 0.37548828125, 0, 
178, 3630708927, -0.4087407886981964, 0.6739193797111511, 0.25973713397979736, 0.5579517483711243, 9.465599060058594, -2.4811792373657227, -0.423058420419693, 1.7028086185455322, 0.09943445771932602, -0.43548041582107544, -1.0419921875, 0.17578125, 0.374755859375, 0, 
179, 3630717260, -0.40876829624176025, 0.6738635897636414, 0.25982576608657837, 0.5579575300216675, 9.495644569396973, -2.576253890991211, -0.46881067752838135, 2.538729429244995, 0.08222170174121857, -0.546748697757721, -1.04443359375, 0.17578125, 0.373779296875, 0, 
180, 3630725593, -0.4088221490383148, 0.6737945079803467, 0.2599453926086426, 0.5579458475112915, 9.463747024536133, -2.6623880863189697, -0.43591734766960144, 3.105597734451294, -0.05710693076252937, -0.6643435955047607, -1.04296875, 0.17431640625, 0.375244140625, 0, 
181, 3630733926, -0.4088841378688812, 0.6737155914306641, 0.26010969281196594, 0.5579193830490112, 9.432123184204102, -2.710695505142212, -0.3387959897518158, 3.603436231613159, -0.3203444182872772, -0.8788884282112122, -1.04443359375, 0.17724609375, 0.374755859375, 0, 
182, 3630742259, -0.4089744985103607, 0.6736286878585815, 0.26029837131500244, 0.5578701496124268, 9.404681205749512, -2.7458221912384033, -0.3615219295024872, 4.207266330718994, -0.5260011553764343, -0.8757122159004211, -1.044921875, 0.173095703125, 0.37646484375, 0, 
183, 3630750592, -0.40912604331970215, 0.6735081672668457, 0.2605386972427368, 0.5577921271324158, 9.435811042785645, -2.738929271697998, -0.4405924379825592, 5.3986358642578125, -0.5758976936340332, -0.7554022073745728, -1.04443359375, 0.1767578125, 0.37548828125, 0, 
184, 3630758925, -0.409304141998291, 0.6733818650245667, 0.2608131766319275, 0.5576856732368469, 9.412346839904785, -2.6271159648895264, -0.3531200885772705, 6.104436874389648, -0.9212544560432434, -0.8171070218086243, -1.04150390625, 0.17724609375, 0.373779296875, 0, 
185, 3630767258, -0.4094308018684387, 0.6732965707778931, 0.26105910539627075, 0.5575806498527527, 9.518218040466309, -2.3957855701446533, -0.254815012216568, 5.127508640289307, -1.2212740182876587, -0.7215145826339722, -1.044921875, 0.17626953125, 0.370361328125, 0, 
186, 3630775591, -0.40950343012809753, 0.6732005476951599, 0.261267751455307, 0.5575456023216248, 9.49539566040039, -2.256192684173584, -0.3340636193752289, 4.195688724517822, -0.500976026058197, -1.310949444770813, -1.047119140625, 0.1767578125, 0.374267578125, 0, 
187, 3630783924, -0.4095362722873688, 0.6731069087982178, 0.2615242004394531, 0.5575143694877625, 9.400997161865234, -2.2925045490264893, -0.41706544160842896, 4.127939224243164, -0.8723825216293335, -1.9831693172454834, -1.04296875, 0.17626953125, 0.375244140625, 0, 
188, 3630792257, -0.4096238613128662, 0.6730168461799622, 0.26176223158836365, 0.5574471354484558, 9.426908493041992, -2.5433733463287354, -0.44477424025535583, 4.6418633460998535, -0.9568069577217102, -1.2640241384506226, -1.047607421875, 0.1748046875, 0.373291015625, 0, 
189, 3630800590, -0.4097077250480652, 0.6729683876037598, 0.26194849610328674, 0.5573561787605286, 9.516377449035645, -2.6758615970611572, -0.31697437167167664, 4.035010814666748, -1.1944047212600708, -0.44480404257774353, -1.0419921875, 0.17626953125, 0.372802734375, 0, 
190, 3630808923, -0.4097599387168884, 0.6729194521903992, 0.2620742619037628, 0.5573179125785828, 9.549195289611816, -2.6199965476989746, -0.37895652651786804, 3.118750810623169, -0.4988628327846527, -0.5126177072525024, -1.04296875, 0.17529296875, 0.374267578125, 0, 
191, 3630817256, -0.4098050594329834, 0.672854483127594, 0.2622559368610382, 0.5572777986526489, 9.541851997375488, -2.4303812980651855, -0.49826085567474365, 3.5600712299346924, -0.7163916826248169, -1.0445356369018555, -1.0458984375, 0.1767578125, 0.373291015625, 0, 
192, 3630825589, -0.4098409116268158, 0.6728162169456482, 0.26240506768226624, 0.5572275519371033, 9.62147045135498, -2.3520853519439697, -0.6322715282440186, 3.130341053009033, -0.8810656070709229, -0.7487424612045288, -1.0458984375, 0.174072265625, 0.374755859375, 0, 
193, 3630833922, -0.4098471999168396, 0.6727727055549622, 0.262530118227005, 0.5572165250778198, 9.580547332763672, -2.3166513442993164, -0.6386375427246094, 2.5305967330932617, -0.4288591742515564, -0.905642569065094, -1.044921875, 0.17431640625, 0.374267578125, 0, 
194, 3630842255, -0.4098777770996094, 0.6727190613746643, 0.2626694440841675, 0.5571929812431335, 9.568509101867676, -2.3648500442504883, -0.6041683554649353, 2.994586229324341, -0.47997239232063293, -0.9030939340591431, -1.0458984375, 0.173583984375, 0.373779296875, 0, 
195, 3630850588, -0.40992581844329834, 0.6726486086845398, 0.2628215551376343, 0.5571710467338562, 9.533220291137695, -2.367079496383667, -0.6418176889419556, 3.351443290710449, -0.33376628160476685, -0.8741753697395325, -1.04541015625, 0.171630859375, 0.372802734375, 0, 
196, 3630858921, -0.4099949598312378, 0.6725712418556213, 0.2630261182785034, 0.5571169853210449, 9.428403854370117, -2.397679567337036, -0.5283080339431763, 4.095664978027344, -0.8095763921737671, -1.123478889465332, -1.04248046875, 0.17431640625, 0.374755859375, 0, 
197, 3630867254, -0.4100305438041687, 0.6725316643714905, 0.26326116919517517, 0.5570274591445923, 9.304434776306152, -2.493121385574341, -0.38929295539855957, 3.993131399154663, -1.7219042778015137, -1.2446342706680298, -1.041259765625, 0.17529296875, 0.373779296875, 0, 
198, 3630875587, -0.4100402593612671, 0.6725503206253052, 0.26352763175964355, 0.5568717122077942, 9.284428596496582, -2.603372812271118, -0.33609405159950256, 3.8472065925598145, -3.0483884811401367, -1.2325185537338257, -1.04296875, 0.173095703125, 0.372802734375, 0, 
199, 3630883920, -0.4100506603717804, 0.6726037859916687, 0.26378485560417175, 0.5566778182983398, 9.493881225585938, -2.6328532695770264, -0.3143253028392792, 3.705303430557251, -3.596174478530884, -0.7127800583839417, -1.041748046875, 0.17529296875, 0.37646484375, 0, 
200, 3630892253, -0.4101606607437134, 0.6725656986236572, 0.264028400182724, 0.5565274953842163, 9.589864730834961, -2.4931535720825195, -0.31196144223213196, 4.901206970214844, -2.0706164836883545, -0.48939836025238037, -1.042236328125, 0.1748046875, 0.37744140625, 0, 
201, 3630900586, -0.41028159856796265, 0.6725006103515625, 0.26428642868995667, 0.5563941597938538, 9.611174583435059, -2.3560073375701904, -0.3857778012752533, 5.212855815887451, -1.7392964363098145, -0.6483091711997986, -1.0439453125, 0.17431640625, 0.375244140625, 0, 
202, 3630908919, -0.4103693664073944, 0.6724570989608765, 0.2644469439983368, 0.5563058257102966, 9.68265151977539, -2.2748541831970215, -0.4807976484298706, 3.863522529602051, -1.06961190700531, -0.2597923278808594, -1.04296875, 0.17578125, 0.37744140625, 0, 
203, 3630917252, -0.41041821241378784, 0.6724076271057129, 0.2645236551761627, 0.5562930703163147, 9.691815376281738, -2.241950035095215, -0.49579918384552, 2.584707021713257, 0.030019884929060936, -0.14642378687858582, -1.041748046875, 0.17431640625, 0.37646484375, 0, 
204, 3630925585, -0.4104246199131012, 0.6723736524581909, 0.26456642150878906, 0.5563091039657593, 9.614330291748047, -2.235816717147827, -0.5231854319572449, 1.779497742652893, 0.1914920061826706, -0.34809744358062744, -1.04541015625, 0.177734375, 0.375244140625, 0, 
205, 3630933918, -0.4104378819465637, 0.6723288893699646, 0.2646075189113617, 0.5563339591026306, 9.562750816345215, -2.3370096683502197, -0.6803522706031799, 1.822759985923767, 0.4130295217037201, -0.28228166699409485, -1.042236328125, 0.173828125, 0.374267578125, 0, 
206, 3630942251, -0.4105290174484253, 0.6722385883331299, 0.26472407579421997, 0.5563204884529114, 9.445612907409668, -2.469444513320923, -0.6603890657424927, 3.5511834621429443, 0.24182400107383728, -0.42000943422317505, -1.043701171875, 0.173095703125, 0.37646484375, 0, 
207, 3630950584, -0.41069626808166504, 0.6720942854881287, 0.264946311712265, 0.5562655329704285, 9.393242835998535, -2.5348217487335205, -0.5453212857246399, 5.515257358551025, -0.03472009673714638, -0.6928266286849976, -1.04345703125, 0.1767578125, 0.37548828125, 0, 
208, 3630958917, -0.41091686487197876, 0.6719526648521423, 0.2651973068714142, 0.5561539530754089, 9.423287391662598, -2.4686355590820312, -0.5202341079711914, 6.423026084899902, -0.5593509078025818, -0.3051808178424835, -1.04345703125, 0.179443359375, 0.376953125, 0, 
209, 3630967250, -0.4111921787261963, 0.6717672944068909, 0.2654793858528137, 0.5560398697853088, 9.50825023651123, -2.3967244625091553, -0.5453094244003296, 7.390860080718994, -0.20298001170158386, -0.23371706902980804, -1.0439453125, 0.174072265625, 0.375732421875, 0, 
210, 3630975583, -0.41149836778640747, 0.6715584397315979, 0.265791118144989, 0.5559167861938477, 9.502397537231445, -2.2664170265197754, -0.42751345038414, 8.09960651397705, -0.1829240918159485, -0.3909629285335541, -1.04296875, 0.17578125, 0.37744140625, 0, 
211, 3630983916, -0.41180598735809326, 0.6713552474975586, 0.26606816053390503, 0.5558016300201416, 9.559111595153809, -2.2109076976776123, -0.4426453113555908, 7.7684149742126465, 0.06839001923799515, -0.00024333526380360126, -1.04443359375, 0.177734375, 0.372802734375, 0, 
212, 3630992249, -0.41206735372543335, 0.6711797714233398, 0.266242653131485, 0.5557364225387573, 9.596538543701172, -2.214067220687866, -0.42482081055641174, 6.237681865692139, 0.7079262733459473, 0.32550573348999023, -1.04541015625, 0.17626953125, 0.372314453125, 0, 
213, 3631000582, -0.41227322816848755, 0.6710205674171448, 0.2663717567920685, 0.5557141304016113, 9.572393417358398, -2.1612823009490967, -0.46825507283210754, 5.150689601898193, 1.045137643814087, 0.22233153879642487, -1.0439453125, 0.177734375, 0.374267578125, 0, 
214, 3631008915, -0.41247421503067017, 0.6708809733390808, 0.26650336384773254, 0.555670440196991, 9.436467170715332, -2.1936044692993164, -0.342576265335083, 5.069645881652832, 0.6563391089439392, 0.26992282271385193, -1.044921875, 0.17578125, 0.374267578125, 0, 
215, 3631017248, -0.4126337170600891, 0.6707761287689209, 0.2666208744049072, 0.5556223392486572, 9.314674377441406, -2.3834919929504395, -0.2772478461265564, 4.352166652679443, 0.3028371334075928, 0.3246092200279236, -1.040771484375, 0.17724609375, 0.3759765625, 0, 
216, 3631025581, -0.41278550028800964, 0.6706914305686951, 0.266757071018219, 0.5555464625358582, 9.238015174865723, -2.5477492809295654, -0.2151872217655182, 4.456287860870361, -0.2675022780895233, 0.2350362241268158, -1.041259765625, 0.17724609375, 0.37548828125, 0, 
217, 3631033914, -0.41281360387802124, 0.6707461476325989, 0.266844779253006, 0.5554172396659851, 9.30203628540039, -2.6083061695098877, -0.20965075492858887, 2.3638863563537598, -1.990341305732727, 0.6389983296394348, -1.0439453125, 0.1767578125, 0.373779296875, 0, 
218, 3631042247, -0.4127371907234192, 0.670901358127594, 0.2668052315711975, 0.5553054809570312, 9.536527633666992, -2.45147967338562, -0.2807740867137909, -0.220615416765213, -2.270906925201416, 1.198067545890808, -1.04052734375, 0.177978515625, 0.370361328125, 0, 
219, 3631050580, -0.41273367404937744, 0.6709839105606079, 0.2667787969112396, 0.5552210807800293, 9.644540786743164, -2.2127089500427246, -0.42693036794662476, 0.8782097101211548, -1.2587476968765259, 1.2957217693328857, -1.044921875, 0.177734375, 0.376953125, 0, 
220, 3631058913, -0.4128502607345581, 0.6709858775138855, 0.2668159604072571, 0.5551140904426575, 9.734482765197754, -2.2011544704437256, -0.36860257387161255, 2.9987356662750244, -0.7837571501731873, 1.374178171157837, -1.04052734375, 0.180419921875, 0.3759765625, 0, 
221, 3631067246, -0.41295936703681946, 0.6709703207015991, 0.2667611241340637, 0.5550782084465027, 9.710367202758789, -2.422175645828247, -0.5261436104774475, 2.0276739597320557, 0.5252199172973633, 1.7851840257644653, -1.04345703125, 0.17724609375, 0.3759765625, 0, 
222, 3631075579, -0.41307875514030457, 0.6709392070770264, 0.26663169264793396, 0.5550892949104309, 9.733315467834473, -2.5991950035095215, -0.7051730155944824, 1.5079741477966309, 1.5141470432281494, 2.1413629055023193, -1.04345703125, 0.177734375, 0.37548828125, 0, 
223, 3631083912, -0.41326165199279785, 0.6708462238311768, 0.266640841960907, 0.5550609827041626, 9.752082824707031, -2.5836479663848877, -0.6469720005989075, 3.616985559463501, 1.0905771255493164, 1.4320149421691895, -1.04296875, 0.1767578125, 0.3759765625, 0, 
224, 3631092245, -0.4135340452194214, 0.6706682443618774, 0.26670074462890625, 0.555044412612915, 9.63891887664795, -2.5224013328552246, -0.5514487028121948, 5.299738883972168, 1.8659201860427856, 1.17974054813385, -1.0439453125, 0.1767578125, 0.374267578125, 0, 
225, 3631100578, -0.4138266444206238, 0.6704839468002319, 0.2667846083641052, 0.5550087690353394, 9.449044227600098, -2.5987377166748047, -0.5325729250907898, 5.800446510314941, 1.6844691038131714, 1.2857322692871094, -1.04296875, 0.182373046875, 0.372314453125, 0, 
226, 3631108911, -0.41413500905036926, 0.6702945232391357, 0.26690247654914856, 0.5549508929252625, 9.364971160888672, -2.6116039752960205, -0.7280415296554565, 6.290933132171631, 1.3748184442520142, 1.112810492515564, -1.044677734375, 0.178955078125, 0.372314453125, 0, 
227, 3631117244, -0.41456300020217896, 0.6700245141983032, 0.267180860042572, 0.5548232197761536, 9.373374938964844, -2.51869797706604, -0.6366132497787476, 9.264144897460938, 0.9050407409667969, 0.7377028465270996, -1.04296875, 0.181396484375, 0.376953125, 0, 
228, 3631125577, -0.415103554725647, 0.6696922779083252, 0.26754844188690186, 0.5546429753303528, 9.415054321289062, -2.489321708679199, -0.44252780079841614, 11.599266052246094, 0.7661601901054382, 0.7570415139198303, -1.045166015625, 0.182861328125, 0.374755859375, 0, 
229, 3631133910, -0.41556814312934875, 0.6694195866584778, 0.26779353618621826, 0.5545059442520142, 9.493971824645996, -2.499579668045044, -0.4782974421977997, 9.412105560302734, 1.1599664688110352, 1.3654438257217407, -1.04150390625, 0.181884765625, 0.374755859375, 0, 
230, 3631142243, -0.4160202741622925, 0.6691620945930481, 0.26799383759498596, 0.5543808341026306, 9.608541488647461, -2.4227566719055176, -0.6098232269287109, 8.877561569213867, 1.3336308002471924, 1.5825501680374146, -1.047119140625, 0.181884765625, 0.3759765625, 0, 
231, 3631150576, -0.41656267642974854, 0.6688192486763, 0.26832327246665955, 0.5542283058166504, 9.579530715942383, -2.4075911045074463, -0.48968738317489624, 11.240346908569336, 1.356529951095581, 1.01194167137146, -1.043701171875, 0.18359375, 0.372802734375, 0, 
232, 3631158909, -0.4170991778373718, 0.6684859395027161, 0.26860368251800537, 0.5540909767150879, 9.557129859924316, -2.515594720840454, -0.3948381543159485, 10.744275093078613, 1.6508631706237793, 1.2787907123565674, -1.04150390625, 0.1826171875, 0.370849609375, 0, 
233, 3631167242, -0.4175835847854614, 0.6681703329086304, 0.2688262462615967, 0.5539988279342651, 9.494043350219727, -2.6193342208862305, -0.4222523272037506, 9.514945030212402, 2.102646827697754, 1.3078371286392212, -1.04296875, 0.181396484375, 0.3759765625, 0, 
234, 3631175575, -0.41800737380981445, 0.6679046750068665, 0.26904532313346863, 0.5538934469223022, 9.404977798461914, -2.6008317470550537, -0.4524554908275604, 8.736529350280762, 1.364803433418274, 1.0514131784439087, -1.043701171875, 0.185546875, 0.374755859375, 0, 
235, 3631183908, -0.4181351661682129, 0.6678597927093506, 0.269077330827713, 0.5538353323936462, 9.385298728942871, -2.5800371170043945, -0.35984787344932556, 3.2143306732177734, 0.09840989857912064, 1.1425741910934448, -1.04638671875, 0.1845703125, 0.370361328125, 0, 
236, 3631192241, -0.4182092249393463, 0.6678455471992493, 0.26899874210357666, 0.5538349151611328, 9.444305419921875, -2.4025654792785645, -0.4141123592853546, 1.4241002798080444, 0.832385778427124, 1.4481520652770996, -1.045166015625, 0.18408203125, 0.369873046875, 0, 
237, 3631200574, -0.4185020625591278, 0.6677078604698181, 0.26908451318740845, 0.5537378787994385, 9.560195922851562, -2.1688406467437744, -0.2576863467693329, 5.739202499389648, 0.7698615789413452, 1.7875151634216309, -1.042236328125, 0.185546875, 0.370361328125, 0, 
238, 3631208907, -0.418717622756958, 0.6676015257835388, 0.26899829506874084, 0.5537450313568115, 9.575613975524902, -2.051439046859741, -0.3221368193626404, 3.1661758422851562, 2.169295310974121, 2.2119174003601074, -1.044189453125, 0.18603515625, 0.372314453125, 0, 
239, 3631217240, -0.4189237654209137, 0.6674991846084595, 0.2688515782356262, 0.5537838339805603, 9.60018253326416, -2.0491483211517334, -0.5425738096237183, 2.447465658187866, 2.771665096282959, 2.6107311248779297, -1.043212890625, 0.1865234375, 0.371826171875, 0, 
240, 3631225573, -0.41911593079566956, 0.6674137711524963, 0.2686977982521057, 0.553816020488739, 9.553245544433594, -2.117177724838257, -0.4531017541885376, 2.224942207336426, 2.544095754623413, 2.586564064025879, -1.044677734375, 0.185546875, 0.370849609375, 0, 
241, 3631233906, -0.41910916566848755, 0.6674577593803406, 0.2683599591255188, 0.5539320111274719, 9.464683532714844, -2.1676533222198486, -0.46629682183265686, -2.0659544467926025, 2.672358989715576, 2.842360734939575, -1.044189453125, 0.1875, 0.371826171875, 0, 
242, 3631242239, -0.4190928339958191, 0.6675488948822021, 0.26795122027397156, 0.5540324449539185, 9.449079513549805, -2.1971518993377686, -0.3789750635623932, -2.9015932083129883, 2.523488759994507, 3.597135066986084, -1.042724609375, 0.18798828125, 0.371337890625, 0, 
243, 3631250572, -0.41901442408561707, 0.6676991581916809, 0.26747432351112366, 0.5541409254074097, 9.413421630859375, -2.2529866695404053, -0.2963273525238037, -4.393097400665283, 2.339207172393799, 4.009255409240723, -1.0458984375, 0.1865234375, 0.371337890625, 0, 
244, 3631258905, -0.41894978284835815, 0.6678598523139954, 0.26692503690719604, 0.5542612075805664, 9.401196479797363, -1.9217054843902588, -0.34015315771102905, -4.889142990112305, 2.8091518878936768, 4.662008762359619, -1.044921875, 0.1865234375, 0.3681640625, 0, 
245, 3631267238, -0.41915953159332275, 0.6679006218910217, 0.2665668725967407, 0.554225742816925, 9.53151798248291, -1.8481196165084839, -0.03020342066884041, 0.28468942642211914, 2.2328057289123535, 5.543727397918701, -1.043701171875, 0.187744140625, 0.369140625, 0, 
246, 3631275571, -0.41935890913009644, 0.6679747104644775, 0.2661300599575043, 0.5541956424713135, 9.569880485534668, -1.8560234308242798, 0.03936382383108139, -0.557621955871582, 2.4085702896118164, 6.188770294189453, -1.04638671875, 0.190673828125, 0.36865234375, 0, 
247, 3631283904, -0.4196576178073883, 0.6679969429969788, 0.2657321095466614, 0.5541335344314575, 9.591373443603516, -1.8337243795394897, -0.06531865149736404, 1.0440106391906738, 2.6743054389953613, 6.675608158111572, -1.04541015625, 0.191650390625, 0.36865234375, 0, 
248, 3631292237, -0.4200393259525299, 0.6679795980453491, 0.2653798460960388, 0.5540341734886169, 9.62434196472168, -2.0142428874969482, -0.014855027198791504, 2.543084144592285, 2.649332046508789, 6.866998195648193, -1.04541015625, 0.191162109375, 0.3671875, 0, 
249, 3631300570, -0.4203455150127411, 0.6680206656455994, 0.2649904489517212, 0.5539387464523315, 9.744705200195312, -2.2167141437530518, -0.31030362844467163, 1.196799635887146, 2.2001607418060303, 6.915716171264648, -1.04345703125, 0.192138671875, 0.3681640625, 0, 
250, 3631308903, -0.4209032356739044, 0.6679309606552124, 0.2647845447063446, 0.5537219047546387, 9.766035079956055, -2.50294828414917, -0.21526536345481873, 6.1205973625183105, 1.9154322147369385, 7.279591083526611, -1.04443359375, 0.1923828125, 0.36328125, 0, 
251, 3631317236, -0.42143499851226807, 0.6679232716560364, 0.2645014524459839, 0.5534617900848389, 9.548588752746582, -2.897840738296509, -0.19108913838863373, 4.9503092765808105, 1.2694416046142578, 8.433716773986816, -1.0439453125, 0.193359375, 0.3681640625, 0, 
252, 3631325569, -0.42186930775642395, 0.6680426597595215, 0.264072060585022, 0.5531917810440063, 9.463357925415039, -2.9952666759490967, -0.4669414162635803, 2.2696259021759033, 0.6803140640258789, 9.460028648376465, -1.04345703125, 0.19580078125, 0.368896484375, 0, 
253, 3631333902, -0.42267560958862305, 0.6679571270942688, 0.26398077607154846, 0.5527229905128479, 9.450284004211426, -2.573538064956665, -0.37295806407928467, 10.180190086364746, -0.18490922451019287, 9.68591022491455, -1.04345703125, 0.19677734375, 0.368408203125, 0, 
254, 3631342235, -0.4236261546611786, 0.6678287386894226, 0.2639932632446289, 0.5521442890167236, 9.463343620300293, -2.2569756507873535, -0.12596704065799713, 12.931593894958496, -0.959355890750885, 10.219378471374512, -1.04248046875, 0.197998046875, 0.368408203125, 0, 
255, 3631350568, -0.4245348274707794, 0.6677466630935669, 0.26396116614341736, 0.5515605211257935, 9.522651672363281, -1.909394383430481, -0.24780571460723877, 11.970353126525879, -1.2394089698791504, 10.6010160446167, -1.043701171875, 0.201416015625, 0.36767578125, 0, 
256, 3631358901, -0.4254676103591919, 0.6676672101020813, 0.26392966508865356, 0.5509527921676636, 9.617053985595703, -1.7787144184112549, -0.2872679829597473, 12.253264427185059, -1.4066188335418701, 10.837385177612305, -1.043701171875, 0.20458984375, 0.3671875, 0, 
257, 3631367234, -0.42625224590301514, 0.667702317237854, 0.26374274492263794, 0.5503928661346436, 9.691217422485352, -1.8134758472442627, -0.3378400504589081, 8.853151321411133, -1.44255530834198, 11.369467735290527, -1.042236328125, 0.205078125, 0.369873046875, 0, 
258, 3631375567, -0.42703402042388916, 0.6677845120429993, 0.26349520683288574, 0.5498057007789612, 9.64426040649414, -1.813147783279419, -0.4136876165866852, 8.20984935760498, -1.7247986793518066, 12.143453598022461, -1.041259765625, 0.207763671875, 0.3671875, 0, 
259, 3631383900, -0.4278884530067444, 0.6678711771965027, 0.26325905323028564, 0.5491484999656677, 9.486845016479492, -1.9100881814956665, -0.23391057550907135, 9.148598670959473, -2.1778249740600586, 13.111915588378906, -1.043701171875, 0.208251953125, 0.371337890625, 0, 
260, 3631392233, -0.42877089977264404, 0.668013334274292, 0.2629983723163605, 0.5484116077423096, 9.41821002960205, -1.8327058553695679, -0.263583779335022, 9.22514820098877, -3.111912488937378, 14.120745658874512, -1.042236328125, 0.210693359375, 0.369873046875, 0, 
261, 3631400566, -0.4297823905944824, 0.6681569814682007, 0.26281827688217163, 0.5475307703018188, 9.446795463562012, -1.6561912298202515, -0.0854831412434578, 11.515470504760742, -4.430789470672607, 15.30650520324707, -1.04345703125, 0.21337890625, 0.371826171875, 0, 
262, 3631408899, -0.4308158755302429, 0.6683562397956848, 0.2625639736652374, 0.5465965270996094, 9.497359275817871, -1.4345028400421143, 0.02275547757744789, 11.037895202636719, -4.844921588897705, 16.571699142456055, -1.040283203125, 0.21533203125, 0.369384765625, 0, 
263, 3631417232, -0.4318417012691498, 0.6686286926269531, 0.2621856927871704, 0.5456345081329346, 9.613908767700195, -1.1945757865905762, 0.15332110226154327, 9.748295783996582, -4.940411567687988, 18.18332290649414, -1.0400390625, 0.220458984375, 0.367919921875, 0, 
264, 3631425565, -0.4327623248100281, 0.6690621972084045, 0.2615855038166046, 0.5446608066558838, 9.729647636413574, -0.9599509835243225, 0.2002507597208023, 6.155921936035156, -5.320398330688477, 19.984310150146484, -1.042724609375, 0.22314453125, 0.368408203125, 0, 
265, 3631433898, -0.4336804449558258, 0.6695694327354431, 0.2608524560928345, 0.5436579585075378, 9.803768157958984, -0.8812188506126404, 0.2711547315120697, 4.790836811065674, -5.341351509094238, 21.731895446777344, -1.0390625, 0.22509765625, 0.369384765625, 0, 
266, 3631442231, -0.4347480833530426, 0.6701109409332275, 0.26009702682495117, 0.5424987077713013, 9.777616500854492, -0.9792452454566956, 0.4284571409225464, 6.3683552742004395, -6.386195659637451, 24.005762100219727, -1.040771484375, 0.229736328125, 0.37158203125, 0, 
267, 3631450564, -0.43578988313674927, 0.6708343625068665, 0.2592071294784546, 0.5411932468414307, 9.774007797241211, -1.142382025718689, 0.31827422976493835, 4.595324993133545, -8.374311447143555, 26.68741226196289, -1.039794921875, 0.2314453125, 0.370849609375, 0, 
268, 3631458897, -0.43715953826904297, 0.6715154051780701, 0.25845181941986084, 0.5396029949188232, 9.777868270874023, -1.093127965927124, 0.4577000141143799, 9.859723091125488, -10.328656196594238, 29.332090377807617, -1.03466796875, 0.237548828125, 0.3720703125, 0, 
269, 3631467230, -0.4388904571533203, 0.6721341013908386, 0.2578487992286682, 0.5377126932144165, 9.83310604095459, -1.0352133512496948, 0.7175320386886597, 15.868760108947754, -12.290508270263672, 32.30131530761719, -1.03369140625, 0.244140625, 0.37548828125, 0, 
270, 3631475563, -0.4408103823661804, 0.6727955937385559, 0.25707530975341797, 0.535681426525116, 9.991639137268066, -0.7938017249107361, 0.7487800121307373, 16.494644165039062, -12.18797492980957, 36.16120529174805, -1.03125, 0.249267578125, 0.376220703125, 0, 
271, 3631483896, -0.4429304301738739, 0.6735125184059143, 0.25620630383491516, 0.5334435105323792, 10.116006851196289, -0.3349945545196533, 0.8168184757232666, 18.042673110961914, -13.21329402923584, 40.093421936035156, -1.031494140625, 0.25390625, 0.376708984375, 0, 
272, 3631492229, -0.44535911083221436, 0.6741979122161865, 0.2552397549152374, 0.5310134887695312, 10.354146957397461, -0.13760747015476227, 0.9698610901832581, 21.04936408996582, -13.088788032531738, 44.19487380981445, -1.031982421875, 0.2607421875, 0.380859375, 0, 
273, 3631500562, -0.44781017303466797, 0.6750092506408691, 0.25398796796798706, 0.5285153388977051, 10.597265243530273, -0.5182063579559326, 1.245356798171997, 18.708938598632812, -12.832571983337402, 47.991790771484375, -1.027099609375, 0.268310546875, 0.375244140625, 0, 
274, 3631508895, -0.45010459423065186, 0.6760389804840088, 0.25250428915023804, 0.5259548425674438, 10.712136268615723, -0.6963527202606201, 1.5074927806854248, 14.37442684173584, -14.10013484954834, 50.023826599121094, -1.026123046875, 0.2734375, 0.3828125, 0, 
275, 3631517228, -0.45258912444114685, 0.6771623492240906, 0.25096574425697327, 0.5231065154075623, 10.847887992858887, -1.0038343667984009, 1.4149669408798218, 16.151464462280273, -16.444658279418945, 54.158729553222656, -1.022216796875, 0.283203125, 0.38134765625, 0, 
276, 3631525561, -0.45513099431991577, 0.6784765124320984, 0.24908959865570068, 0.5200864672660828, 10.780385971069336, -1.7096216678619385, 1.2229597568511963, 13.675498962402344, -17.124813079833984, 59.299468994140625, -1.0234375, 0.293701171875, 0.383544921875, 0, 
277, 3631533894, -0.45783257484436035, 0.6798606514930725, 0.2472541332244873, 0.5167728066444397, 10.832135200500488, -2.042978286743164, 0.9427514672279358, 16.009973526000977, -20.07008934020996, 62.288143157958984, -1.01806640625, 0.30078125, 0.3876953125, 0, 
278, 3631542227, -0.4608510732650757, 0.6811497807502747, 0.24556061625480652, 0.5131872892379761, 10.920487403869629, -2.2233362197875977, 1.3298656940460205, 21.517654418945312, -21.755624771118164, 64.45396423339844, -1.01513671875, 0.30908203125, 0.385009765625, 0, 
279, 3631550560, -0.4638599157333374, 0.6825836896896362, 0.24380098283290863, 0.5093962550163269, 10.944896697998047, -2.3161745071411133, 1.0075019598007202, 20.725807189941406, -24.31841278076172, 66.9501953125, -1.01318359375, 0.322021484375, 0.39013671875, 0, 
280, 3631558893, -0.4670276343822479, 0.6840361952781677, 0.24211639165878296, 0.5053408145904541, 10.96066951751709, -2.1180388927459717, 0.5227189064025879, 23.52295684814453, -26.873714447021484, 68.95281982421875, -1.0068359375, 0.333740234375, 0.393310546875, 0, 
281, 3631567226, -0.47042030096054077, 0.6854191422462463, 0.240680530667305, 0.5009870529174805, 11.06678581237793, -2.2328288555145264, 0.575258731842041, 28.802989959716797, -30.054216384887695, 70.02347564697266, -1.001953125, 0.342041015625, 0.39599609375, 0, 
282, 3631575559, -0.47383198142051697, 0.6869006752967834, 0.23932617902755737, 0.496370404958725, 11.268125534057617, -2.479099750518799, 0.3878207206726074, 29.780010223388672, -33.666751861572266, 71.25045776367188, -0.99951171875, 0.354736328125, 0.400634765625, 0, 
283, 3631583892, -0.4774878919124603, 0.6883248090744019, 0.23823778331279755, 0.4913928508758545, 11.811999320983887, -2.6986727714538574, 0.1762639582157135, 35.46730041503906, -37.6270751953125, 72.73551177978516, -0.9951171875, 0.365234375, 0.401611328125, 0, 
284, 3631592225, -0.4814075529575348, 0.6896579265594482, 0.23742468655109406, 0.4860639274120331, 12.379039764404297, -2.8822879791259766, 0.4638282060623169, 41.57035446166992, -41.26780700683594, 73.75422668457031, -0.988037109375, 0.3779296875, 0.407958984375, 0, 
285, 3631600558, -0.48544129729270935, 0.6909377574920654, 0.23667970299720764, 0.48056697845458984, 12.404321670532227, -2.8751285076141357, 0.8715966939926147, 44.012149810791016, -42.59880828857422, 74.98306274414062, -0.983642578125, 0.388916015625, 0.408447265625, 0, 
286, 3631608891, -0.4894511103630066, 0.6922749876976013, 0.23584780097007751, 0.47495153546333313, 12.022624969482422, -2.4276280403137207, 0.8344203233718872, 43.20787048339844, -43.5869255065918, 76.45496368408203, -0.9794921875, 0.4033203125, 0.4130859375, 0, 
287, 3631617224, -0.4933124780654907, 0.6937243938446045, 0.23491224646568298, 0.46927130222320557, 11.60117244720459, -2.0277183055877686, 0.3914162516593933, 40.58146286010742, -44.737548828125, 77.45262145996094, -0.970458984375, 0.41455078125, 0.418212890625, 0, 
288, 3631625557, -0.4966716170310974, 0.6954935193061829, 0.23361624777317047, 0.4637235999107361, 11.398218154907227, -1.6884454488754272, -0.1959742307662964, 30.86032485961914, -44.69556427001953, 77.6028060913086, -0.9658203125, 0.424560546875, 0.421875, 0, 
289, 3631633890, -0.4995211362838745, 0.697491466999054, 0.23205852508544922, 0.45841360092163086, 11.398402214050293, -1.6087698936462402, -0.5060170292854309, 22.126962661743164, -43.82208251953125, 76.14889526367188, -0.9580078125, 0.439453125, 0.427490234375, 0, 
290, 3631642223, -0.5017551183700562, 0.6997578144073486, 0.23014935851097107, 0.4534556567668915, 11.107159614562988, -1.544783353805542, -0.9157021045684814, 10.90223217010498, -41.59685134887695, 73.89641571044922, -0.951904296875, 0.44921875, 0.434814453125, 0, 
291, 3631650556, -0.5034424662590027, 0.7021860480308533, 0.22800213098526, 0.4488937556743622, 10.679488182067871, -1.8173370361328125, -1.0894758701324463, 1.9207967519760132, -38.974037170410156, 70.75045013427734, -0.9453125, 0.455322265625, 0.433837890625, 0, 
292, 3631658889, -0.5043705701828003, 0.7048828601837158, 0.2254067063331604, 0.44491857290267944, 9.815299034118652, -2.711350202560425, -1.3264342546463013, -12.0088472366333, -34.151798248291016, 66.97864532470703, -0.941162109375, 0.463134765625, 0.4423828125, 0, 
293, 3631667222, -0.504730761051178, 0.7077407836914062, 0.22277572751045227, 0.4412829577922821, 8.99533462524414, -3.4529809951782227, -1.7878128290176392, -19.776269912719727, -33.45087432861328, 62.19696044921875, -0.93359375, 0.470458984375, 0.447265625, 0, 
294, 3631675555, -0.5047270655632019, 0.7106383442878723, 0.22024963796138763, 0.4378853440284729, 8.665132522583008, -4.661491870880127, -1.5872409343719482, -23.80890655517578, -33.12686538696289, 57.23407745361328, -0.927490234375, 0.4765625, 0.45068359375, 0, 
295, 3631683888, -0.5039389133453369, 0.7139126658439636, 0.21761128306388855, 0.43477514386177063, 8.65872573852539, -5.595097064971924, -2.2692949771881104, -35.527503967285156, -34.265380859375, 52.96364212036133, -0.9228515625, 0.482177734375, 0.45849609375, 0, 
296, 3631692221, -0.5028163194656372, 0.7172625064849854, 0.215232253074646, 0.4317351281642914, 8.741872787475586, -6.000343322753906, -3.466399669647217, -38.10422897338867, -36.744415283203125, 47.948143005371094, -0.919677734375, 0.48681640625, 0.46923828125, 0, 
297, 3631700554, -0.5024612545967102, 0.7197698354721069, 0.2140367031097412, 0.4285583198070526, 8.471285820007324, -6.201667308807373, -3.2820870876312256, -17.156709671020508, -39.08950424194336, 39.490150451660156, -0.91455078125, 0.491455078125, 0.473876953125, 0, 
298, 3631708887, -0.5023782849311829, 0.7216511964797974, 0.21368743479251862, 0.42565613985061646, 7.931436538696289, -6.343191146850586, -2.451408624649048, -6.080127239227295, -37.643428802490234, 28.7707576751709, -0.908447265625, 0.492431640625, 0.476806640625, 0, 
299, 3631717220, -0.5025166869163513, 0.7229268550872803, 0.21409353613853455, 0.42311662435531616, 7.728123664855957, -5.86859655380249, -2.0778794288635254, 3.779693126678467, -35.14794158935547, 18.487510681152344, -0.90283203125, 0.499267578125, 0.483642578125, 0, 
300, 3631725553, -0.5032681226730347, 0.7233916521072388, 0.21544009447097778, 0.42073917388916016, 7.6186652183532715, -5.204056262969971, -1.9315800666809082, 20.35173988342285, -33.43045425415039, 8.995014190673828, -0.90283203125, 0.49755859375, 0.486572265625, 0, 
301, 3631733886, -0.5041723251342773, 0.7232691645622253, 0.21736955642700195, 0.4188706576824188, 7.407414436340332, -4.81834077835083, -1.1139947175979614, 27.935104370117188, -28.638025283813477, -0.9852145910263062, -0.897705078125, 0.499755859375, 0.485595703125, 0, 
302, 3631742219, -0.5045595169067383, 0.7229545712471008, 0.21947872638702393, 0.41784659028053284, 6.948375701904297, -4.364598274230957, -0.9469165802001953, 22.498823165893555, -21.83747673034668, -12.375951766967773, -0.896728515625, 0.501708984375, 0.48974609375, 0, 
303, 3631750552, -0.504839301109314, 0.7222256660461426, 0.22225448489189148, 0.4173010587692261, 6.680051326751709, -3.877622127532959, -1.0452520847320557, 26.81911849975586, -19.723514556884766, -23.992366790771484, -0.897705078125, 0.498291015625, 0.4912109375, 0, 
304, 3631758885, -0.5047367811203003, 0.7212474346160889, 0.22547182440757751, 0.4173908829689026, 6.325933456420898, -3.9344100952148438, -0.714145839214325, 25.21690559387207, -16.142467498779297, -35.94166946411133, -0.8955078125, 0.497802734375, 0.48828125, 0, 
305, 3631767218, -0.5039440989494324, 0.7201798558235168, 0.22897100448608398, 0.41828653216362, 5.945171356201172, -3.8473503589630127, -0.5644051432609558, 18.24265480041504, -11.804335594177246, -48.37368392944336, -0.898681640625, 0.49462890625, 0.486572265625, 0, 
306, 3631775551, -0.5026235580444336, 0.7189306616783142, 0.23289623856544495, 0.4198542535305023, 5.828160285949707, -3.6909310817718506, -0.7781485915184021, 14.47731876373291, -8.6474609375, -61.05424118041992, -0.900390625, 0.489990234375, 0.4912109375, 0, 
307, 3631783884, -0.5008746385574341, 0.7174042463302612, 0.23730719089508057, 0.42207932472229004, 6.051327705383301, -3.6119511127471924, -0.9384505152702332, 12.99547290802002, -5.352620601654053, -73.56574249267578, -0.907470703125, 0.47998046875, 0.488525390625, 0, 
308, 3631792217, -0.49865004420280457, 0.7156171202659607, 0.24202176928520203, 0.42505982518196106, 6.377244472503662, -3.528705358505249, -1.0311938524246216, 9.25878620147705, 0.04567047581076622, -85.5707778930664, -0.9150390625, 0.4716796875, 0.488525390625, 0, 
309, 3631800550, -0.4959275424480438, 0.7135812640190125, 0.24697624146938324, 0.4288010895252228, 6.707693099975586, -3.2490203380584717, -1.2729429006576538, 5.074708461761475, 5.609179496765137, -96.69344329833984, -0.9140625, 0.45947265625, 0.49365234375, 0, 
310, 3631808883, -0.492861270904541, 0.7112516760826111, 0.25218382477760315, 0.4331534802913666, 7.140618801116943, -3.115638256072998, -1.296006679534912, 2.9825515747070312, 10.519795417785645, -106.56432342529297, -0.923095703125, 0.447998046875, 0.487548828125, 0, 
311, 3631817216, -0.4893239438533783, 0.7087374925613403, 0.2574182450771332, 0.43817710876464844, 7.534772872924805, -3.065279006958008, -1.3033140897750854, -2.377579927444458, 16.28725814819336, -114.62890625, -0.926513671875, 0.436279296875, 0.487548828125, 0, 
312, 3631825549, -0.48545724153518677, 0.7059907913208008, 0.2626391053199768, 0.44377821683883667, 7.747053623199463, -3.102898597717285, -1.2756191492080688, -6.312981605529785, 22.32305335998535, -121.38455200195312, -0.935791015625, 0.419677734375, 0.484375, 0, 
313, 3631833882, -0.4814765453338623, 0.7029027938842773, 0.26801198720932007, 0.44976380467414856, 7.840374946594238, -3.2442257404327393, -1.045013189315796, -5.471423625946045, 26.653779983520508, -127.1555404663086, -0.9443359375, 0.40625, 0.482666015625, 0, 
314, 3631842215, -0.4772118031978607, 0.6996107697486877, 0.27333295345306396, 0.4561938941478729, 7.989565372467041, -3.428175687789917, -1.0297037363052368, -8.955779075622559, 31.568307876586914, -132.30490112304688, -0.95361328125, 0.3857421875, 0.476318359375, 0, 
315, 3631850548, -0.4727572798728943, 0.6960817575454712, 0.27866339683532715, 0.462955117225647, 8.286246299743652, -3.362854480743408, -1.1958966255187988, -10.323986053466797, 35.42982864379883, -136.44187927246094, -0.96240234375, 0.3681640625, 0.474853515625, 0, 
316, 3631858881, -0.4684756100177765, 0.6921180486679077, 0.28423112630844116, 0.46981459856033325, 8.679108619689941, -3.247187852859497, -1.1920804977416992, -4.798903465270996, 38.29250717163086, -140.12637329101562, -0.966796875, 0.349609375, 0.47119140625, 0, 
317, 3631867214, -0.46428608894348145, 0.6877638697624207, 0.2899426817893982, 0.47682544589042664, 8.919862747192383, -3.175417900085449, -0.8343560099601746, -0.9908674955368042, 41.663082122802734, -143.19017028808594, -0.97509765625, 0.33154296875, 0.465087890625, 0, 
318, 3631875547, -0.4600282311439514, 0.6831428408622742, 0.2955878674983978, 0.4840739369392395, 8.97331428527832, -3.1053688526153564, -0.48294657468795776, -1.3932509422302246, 45.83871841430664, -145.80284118652344, -0.985107421875, 0.314453125, 0.460693359375, 0, 
319, 3631883880, -0.45574823021888733, 0.6782170534133911, 0.3012111783027649, 0.49152514338493347, 9.064254760742188, -2.938889503479004, -0.283052921295166, -0.6649214029312134, 49.82965087890625, -148.04403686523438, -0.990478515625, 0.296142578125, 0.449951171875, 0, 
320, 3631892213, -0.4513837695121765, 0.6730693578720093, 0.30680176615715027, 0.4991123080253601, 9.2407865524292, -2.8387112617492676, -0.3029855489730835, -0.825373113155365, 52.44314193725586, -150.30416870117188, -0.997802734375, 0.2744140625, 0.449462890625, 0, 
321, 3631900546, -0.4469200372695923, 0.6677283048629761, 0.31237608194351196, 0.5067864060401917, 9.520455360412598, -2.7155532836914062, -0.32309678196907043, -1.1217498779296875, 54.28702163696289, -151.95899963378906, -1.0029296875, 0.255859375, 0.441650390625, 0, 
322, 3631908879, -0.44245025515556335, 0.6622046232223511, 0.3179055452346802, 0.5144597887992859, 9.842850685119629, -2.50508975982666, -0.39463716745376587, -0.2643066644668579, 55.772579193115234, -152.6019287109375, -1.014404296875, 0.233642578125, 0.431396484375, 0, 
323, 3631917212, -0.4381231367588043, 0.6564244031906128, 0.3234819769859314, 0.5220387578010559, 10.068560600280762, -2.320505142211914, -0.1949560046195984, 3.200009346008301, 57.09715270996094, -152.33584594726562, -1.020751953125, 0.20849609375, 0.424560546875, 0, 
324, 3631925545, -0.433737576007843, 0.6505997776985168, 0.3288175165653229, 0.5296042561531067, 10.161882400512695, -2.1042115688323975, 0.052549153566360474, 1.4115818738937378, 58.454952239990234, -150.92596435546875, -1.025146484375, 0.191162109375, 0.416748046875, 0, 
325, 3631933878, -0.42887428402900696, 0.6450174450874329, 0.33357399702072144, 0.5373619794845581, 10.088512420654297, -1.8182247877120972, 0.0889066830277443, -9.53310489654541, 59.72462844848633, -149.0492706298828, -1.03076171875, 0.170654296875, 0.408203125, 0, 
326, 3631942211, -0.4238918721675873, 0.6395199298858643, 0.3381184935569763, 0.5449917316436768, 9.934639930725098, -1.5608404874801636, -0.1931314617395401, -11.931440353393555, 58.64457702636719, -147.13247680664062, -1.03857421875, 0.14697265625, 0.398681640625, 0, 
327, 3631950544, -0.41960644721984863, 0.6335839629173279, 0.34317123889923096, 0.5520374178886414, 9.848207473754883, -1.2676196098327637, 0.02157527580857277, 3.1350955963134766, 57.086307525634766, -144.7892608642578, -1.041015625, 0.1279296875, 0.3916015625, 0, 
328, 3631958877, -0.4154787063598633, 0.6276544332504272, 0.34799209237098694, 0.5588729381561279, 10.031302452087402, -1.443572998046875, 0.811202883720398, 3.847938299179077, 57.27419662475586, -140.55105590820312, -1.046630859375, 0.106689453125, 0.386474609375, 0, 
329, 3631967210, -0.41078293323516846, 0.6222953796386719, 0.3515302538871765, 0.5660761594772339, 10.436454772949219, -1.1847902536392212, 0.5067789554595947, -16.053924560546875, 60.67783737182617, -132.99684143066406, -1.04736328125, 0.08984375, 0.378173828125, 0, 
330, 3631975543, -0.4059925079345703, 0.6173763275146484, 0.35417884588241577, 0.5732224583625793, 10.855355262756348, -0.6527395248413086, -0.3664137125015259, -25.877155303955078, 61.32988739013672, -123.89241027832031, -1.05126953125, 0.0673828125, 0.367431640625, 0, 
331, 3631983876, -0.4017574191093445, 0.6124246716499329, 0.3567429482936859, 0.5798889994621277, 10.954883575439453, -0.4980195164680481, -0.49316519498825073, -19.4309139251709, 60.68336868286133, -116.05860137939453, -1.05517578125, 0.051513671875, 0.358154296875, 0, 
332, 3631992209, -0.3977666199207306, 0.6075339317321777, 0.3588070273399353, 0.5864739418029785, 10.587392807006836, -0.614577054977417, 0.08505508303642273, -21.177167892456055, 63.47731399536133, -109.37001037597656, -1.0556640625, 0.032958984375, 0.351318359375, 0, 
333, 3632000542, -0.39360979199409485, 0.6029337644577026, 0.3600672781467438, 0.5932146906852722, 10.096147537231445, -0.7207909822463989, 0.6493391990661621, -31.520063400268555, 66.00289916992188, -103.1901626586914, -1.05810546875, 0.020751953125, 0.34521484375, 0, 
334, 3632008875, -0.3892520070075989, 0.5986918210983276, 0.3605878949165344, 0.6000310778617859, 9.581119537353516, -0.8593936562538147, 0.9730636477470398, -41.41761016845703, 66.72667694091797, -97.55364227294922, -1.06005859375, 0.001708984375, 0.330810546875, 0, 
335, 3632017208, -0.38487356901168823, 0.5947257280349731, 0.36072972416877747, 0.6066775918006897, 9.155720710754395, -0.8865832090377808, 1.02480149269104, -45.35456085205078, 64.95594024658203, -92.10936737060547, -1.0634765625, -0.016845703125, 0.31884765625, 0, 
336, 3632025541, -0.38060808181762695, 0.5911073684692383, 0.36053067445755005, 0.6129903197288513, 9.037083625793457, -0.9478054642677307, 1.3961282968521118, -47.452919006347656, 61.71000289916992, -85.10576629638672, -1.064208984375, -0.030029296875, 0.3095703125, 0, 
337, 3632033874, -0.3763364255428314, 0.5880224704742432, 0.35960614681243896, 0.6191073656082153, 9.246532440185547, -1.0553252696990967, 1.551638126373291, -55.561309814453125, 59.36363983154297, -75.38343048095703, -1.066650390625, -0.0439453125, 0.303466796875, 0, 
338, 3632042207, -0.37197792530059814, 0.585661768913269, 0.35761186480522156, 0.6251052021980286, 9.386924743652344, -0.9234165549278259, 0.9880334734916687, -68.40861511230469, 57.366241455078125, -63.482913970947266, -1.06494140625, -0.0556640625, 0.290283203125, 0, 
339, 3632050540, -0.3678257167339325, 0.5838863849639893, 0.35493871569633484, 0.6307213306427002, 9.323162078857422, -0.5677657127380371, 0.271089106798172, -73.70909881591797, 53.71411895751953, -51.19986343383789, -1.064453125, -0.0673828125, 0.28662109375, 0, 
340, 3632058873, -0.3641316592693329, 0.582618236541748, 0.35192689299583435, 0.6357056498527527, 9.186572074890137, -0.17631325125694275, 0.10820610821247101, -72.440673828125, 48.223793029785156, -39.04466247558594, -1.072509765625, -0.07470703125, 0.273193359375, 0, 
341, 3632067206, -0.3607710301876068, 0.5819734930992126, 0.3485546112060547, 0.6400553584098816, 8.984971046447754, -0.018695497885346413, 0.6212583780288696, -72.97875213623047, 41.07033920288086, -26.842105865478516, -1.068115234375, -0.081298828125, 0.265625, 0, 
342, 3632075539, -0.35745760798454285, 0.5821211934089661, 0.3443671762943268, 0.6440344452857971, 8.78063678741455, -0.14665670692920685, 0.8855300545692444, -81.92195129394531, 35.43989181518555, -14.472171783447266, -1.0693359375, -0.09033203125, 0.260009765625, 0, 
343, 3632083872, -0.3542920649051666, 0.5829464793205261, 0.3393043279647827, 0.6477137207984924, 8.367589950561523, -0.5835488438606262, 0.715112030506134, -90.41683197021484, 31.996803283691406, -1.2708861827850342, -1.068359375, -0.094970703125, 0.252197265625, 0, 
344, 3632092205, -0.35136252641677856, 0.5845078229904175, 0.3335283100605011, 0.6508945822715759, 8.160829544067383, -1.2520573139190674, 0.08483369648456573, -96.12371826171875, 26.066160202026367, 12.209375381469727, -1.070556640625, -0.09814453125, 0.24658203125, 0, 
345, 3632100538, -0.3487967252731323, 0.5867169499397278, 0.32736659049987793, 0.6534103751182556, 7.980170249938965, -1.9483388662338257, -1.0384438037872314, -96.75142669677734, 18.404905319213867, 24.94758415222168, -1.0751953125, -0.09814453125, 0.238525390625, 0, 
346, 3632108871, -0.34700703620910645, 0.5893572568893433, 0.3215901255607605, 0.6548541188240051, 7.811131000518799, -2.607950448989868, -1.7464642524719238, -84.2499008178711, 7.576196193695068, 35.699405670166016, -1.073974609375, -0.096923828125, 0.234375, 0, 
347, 3632117204, -0.34597688913345337, 0.5923972725868225, 0.3164648413658142, 0.6551529765129089, 7.6688642501831055, -3.0249645709991455, -1.9088881015777588, -69.2003173828125, -5.100823879241943, 44.670509338378906, -1.07666015625, -0.091796875, 0.229248046875, 0, 
348, 3632125537, -0.3458707332611084, 0.5957623720169067, 0.31213289499282837, 0.6542350053787231, 8.987415313720703, -2.9937288761138916, -1.5915311574935913, -50.6514892578125, -17.646839141845703, 53.556888580322266, -1.07470703125, -0.087158203125, 0.2333984375, 0, 
349, 3632133870, -0.34714943170547485, 0.5991320013999939, 0.3087756633758545, 0.6520703434944153, 9.414314270019531, -3.095639228820801, -0.003278737887740135, -25.221742630004883, -26.633323669433594, 64.15983581542969, -1.078369140625, -0.0791015625, 0.238525390625, 0, 
350, 3632142203, -0.3487292528152466, 0.6032078862190247, 0.3049316704273224, 0.6492725610733032, 8.963226318359375, -3.6371469497680664, 1.4901230335235596, -27.774232864379883, -34.538665771484375, 76.71257019042969, -1.077392578125, -0.07177734375, 0.240478515625, 0, 
351, 3632150536, -0.34993231296539307, 0.6084506511688232, 0.30042901635169983, 0.6458232402801514, 9.917884826660156, -3.605954885482788, 1.4218809604644775, -39.7655029296875, -48.8186149597168, 86.98893737792969, -1.07861328125, -0.061767578125, 0.24560546875, 0, 
352, 3632158869, -0.35153841972351074, 0.6138105988502502, 0.29761838912963867, 0.6411634683609009, 12.042130470275879, -1.7484967708587646, -0.25798121094703674, -16.807872772216797, -66.43006134033203, 82.5626449584961, -1.078369140625, -0.0478515625, 0.2548828125, 0, 
353, 3632167202, -0.3548157513141632, 0.6176026463508606, 0.29877030849456787, 0.6351528763771057, 14.603190422058105, 0.8068053722381592, 1.7502689361572266, 45.2131462097168, -76.3567886352539, 64.11125183105469, -1.078857421875, -0.03564453125, 0.26611328125, 0, 
354, 3632175535, -0.3589387536048889, 0.619635820388794, 0.30172276496887207, 0.6294345855712891, 15.821545600891113, 1.8951923847198486, 6.90441370010376, 75.63631439208984, -63.78969955444336, 47.404293060302734, -1.07275390625, -0.02587890625, 0.27685546875, 0, 
355, 3632183868, -0.3612329661846161, 0.6217557191848755, 0.3013876676559448, 0.6261836290359497, 13.281095504760742, 0.5835185647010803, 8.37817096710205, 20.79960823059082, -34.90481185913086, 47.92125701904297, -1.07275390625, -0.017578125, 0.281005859375, 0, 
356, 3632192201, -0.3604356050491333, 0.6255474090576172, 0.2959018349647522, 0.6254826784133911, 9.419526100158691, -1.3196346759796143, 3.976548433303833, -68.72640991210938, -14.695698738098145, 59.44790267944336, -1.073974609375, -0.00830078125, 0.28271484375, 0, 
357, 3632200534, -0.35926297307014465, 0.6298737525939941, 0.2894725203514099, 0.6248237490653992, 7.45420503616333, -2.8803250789642334, -1.380226969718933, -83.0388412475586, -15.833959579467773, 66.46255493164062, -1.074462890625, -0.0048828125, 0.2861328125, 0, 
358, 3632208867, -0.35948336124420166, 0.6339579224586487, 0.2851884663105011, 0.6225324869155884, 6.721585273742676, -5.070631980895996, -4.183145046234131, -44.70100021362305, -32.89570617675781, 66.79092407226562, -1.072265625, 0.00341796875, 0.290771484375, 0, 
359, 3632217200, -0.3602016568183899, 0.6383009552955627, 0.28260108828544617, 0.6188481450080872, 7.277797222137451, -6.791118621826172, -5.226675033569336, -21.79170799255371, -53.741859436035156, 64.32018280029297, -1.07568359375, 0.010986328125, 0.296630859375, 0, 
360, 3632225533, -0.36183035373687744, 0.6421347856521606, 0.2814777195453644, 0.6144279837608337, 8.68476676940918, -6.241447925567627, -4.601269245147705, 4.180512428283691, -59.529422760009766, 60.724849700927734, -1.07177734375, 0.01611328125, 0.301025390625, 0, 
361, 3632233866, -0.36431798338890076, 0.6449121832847595, 0.28124934434890747, 0.6101387143135071, 9.51956844329834, -4.769716262817383, -2.2256672382354736, 23.95557403564453, -50.61162185668945, 55.4818000793457, -1.067626953125, 0.029052734375, 0.31103515625, 0, 
362, 3632242199, -0.3662087321281433, 0.6473654508590698, 0.28046929836273193, 0.6067586541175842, 9.842352867126465, -3.3677432537078857, -1.465386986732483, 12.263691902160645, -39.33720016479492, 49.41655349731445, -1.066162109375, 0.03857421875, 0.319091796875, 0, 
363, 3632250532, -0.3672245144844055, 0.6498948335647583, 0.27910366654396057, 0.6040644645690918, 10.301076889038086, -2.2217679023742676, -1.9980229139328003, -3.5515899658203125, -34.31623840332031, 44.29694366455078, -1.0673828125, 0.043212890625, 0.32421875, 0, 
364, 3632258865, -0.36765050888061523, 0.6526153683662415, 0.27725332975387573, 0.601719856262207, 10.714917182922363, -1.710187315940857, -2.0613222122192383, -15.044011116027832, -32.57246780395508, 42.56910705566406, -1.065185546875, 0.04638671875, 0.33251953125, 0, 
365, 3632267198, -0.3673466444015503, 0.6556882858276367, 0.2746181786060333, 0.5997701287269592, 10.660323143005371, -1.9551892280578613, -1.8022693395614624, -31.49098014831543, -30.777009963989258, 43.04556655883789, -1.063720703125, 0.053466796875, 0.33251953125, 0, 
366, 3632275531, -0.3665911555290222, 0.6589736938476562, 0.27146047353744507, 0.5980668663978577, 10.322979927062988, -2.9419116973876953, -1.7043285369873047, -41.76130676269531, -29.354541778564453, 43.46467590332031, -1.059814453125, 0.05859375, 0.338134765625, 0, 
367, 3632283864, -0.3659127354621887, 0.6621091365814209, 0.2683759927749634, 0.5964089632034302, 9.721932411193848, -4.0307464599609375, -1.6182249784469604, -39.98191833496094, -27.804792404174805, 42.769569396972656, -1.062744140625, 0.063232421875, 0.34130859375, 0, 
368, 3632292197, -0.3655552268028259, 0.6649445295333862, 0.26576894521713257, 0.5946385264396667, 9.074454307556152, -4.563072204589844, -1.8202100992202759, -31.112550735473633, -27.574371337890625, 40.3905029296875, -1.058349609375, 0.06494140625, 0.3447265625, 0, 
369, 3632300530, -0.3657904863357544, 0.6672855019569397, 0.2639608383178711, 0.5926737189292908, 8.77197551727295, -4.744960784912109, -1.941873550415039, -16.060041427612305, -27.16721534729004, 37.21944808959961, -1.059814453125, 0.068359375, 0.347900390625, 0, 
370, 3632308863, -0.36653587222099304, 0.6691942811012268, 0.2628532946109772, 0.590549647808075, 8.745163917541504, -4.492027759552002, -2.0095391273498535, -2.8196964263916016, -26.769350051879883, 34.06423568725586, -1.059326171875, 0.075927734375, 0.35302734375, 0, 
371, 3632317196, -0.36767202615737915, 0.6708047986030579, 0.26237204670906067, 0.5882251858711243, 8.993361473083496, -3.8580193519592285, -1.8502916097640991, 8.012003898620605, -27.94133186340332, 31.512409210205078, -1.0556640625, 0.0791015625, 0.356689453125, 0, 
372, 3632325529, -0.3690010905265808, 0.6723583936691284, 0.262250155210495, 0.58566814661026, 9.425301551818848, -3.065403938293457, -1.4283030033111572, 13.902292251586914, -30.741619110107422, 30.620704650878906, -1.05224609375, 0.082763671875, 0.360107421875, 0, 
373, 3632333862, -0.37020713090896606, 0.6739877462387085, 0.2620082497596741, 0.5831369757652283, 9.85410213470459, -2.4954450130462646, -0.8632625937461853, 11.235769271850586, -30.94671630859375, 30.98453140258789, -1.05126953125, 0.08837890625, 0.36328125, 0, 
374, 3632342195, -0.3710196614265442, 0.6756813526153564, 0.26130741834640503, 0.5809711813926697, 9.867108345031738, -2.2134766578674316, -0.4465368986129761, 2.352158546447754, -27.156953811645508, 30.35235023498535, -1.05224609375, 0.092041015625, 0.368896484375, 0, 
375, 3632350528, -0.37125542759895325, 0.6774607300758362, 0.26008784770965576, 0.5792930722236633, 9.582289695739746, -1.9806437492370605, -0.29951369762420654, -9.41045093536377, -22.73512077331543, 28.480131149291992, -1.04931640625, 0.09619140625, 0.370849609375, 0, 
376, 3632358861, -0.37104862928390503, 0.679275393486023, 0.2585919499397278, 0.5779687762260437, 9.364700317382812, -1.7670843601226807, -0.29990604519844055, -17.112993240356445, -19.894214630126953, 25.75244140625, -1.05029296875, 0.10009765625, 0.37353515625, 0, 
377, 3632367194, -0.37055695056915283, 0.6810916066169739, 0.256935715675354, 0.5768843293190002, 9.370734214782715, -1.8004167079925537, -0.462563157081604, -21.966970443725586, -17.862592697143555, 23.864768981933594, -1.047607421875, 0.1005859375, 0.377685546875, 0, 
378, 3632375527, -0.3699611723423004, 0.6829038262367249, 0.25519001483917236, 0.5758983492851257, 9.55838394165039, -1.8059567213058472, -0.7308886051177979, -23.921852111816406, -16.81888771057129, 23.26426887512207, -1.045166015625, 0.103759765625, 0.380615234375, 0, 
379, 3632383860, -0.36951252818107605, 0.6846717000007629, 0.2535536289215088, 0.5748091340065002, 9.69227123260498, -1.8008861541748047, -0.8808397054672241, -21.13942527770996, -17.48101806640625, 23.868432998657227, -1.047607421875, 0.105224609375, 0.386474609375, 0, 
380, 3632392193, -0.3693864345550537, 0.6863606572151184, 0.2521812319755554, 0.5734782814979553, 9.684035301208496, -1.9263397455215454, -0.7565851211547852, -14.718391418457031, -19.344482421875, 24.788524627685547, -1.043212890625, 0.10791015625, 0.384765625, 0, 
381, 3632400526, -0.36959660053253174, 0.6879359483718872, 0.2511875033378601, 0.5718891620635986, 9.686992645263672, -1.972832441329956, -0.5848903656005859, -7.140769004821777, -21.646814346313477, 24.8820858001709, -1.046142578125, 0.109375, 0.390380859375, 0, 
382, 3632408859, -0.3703528940677643, 0.6891759037971497, 0.2505098879337311, 0.5702016353607178, 9.858207702636719, -1.9242897033691406, -0.4787397086620331, 2.6085948944091797, -19.65853500366211, 25.430387496948242, -1.043701171875, 0.116455078125, 0.389404296875, 0, 
383, 3632417192, -0.3713700473308563, 0.6901785135269165, 0.2499264031648636, 0.5685812830924988, 9.759088516235352, -2.0273237228393555, -0.1698896437883377, 6.773460388183594, -16.747074127197266, 25.517719268798828, -1.041259765625, 0.119140625, 0.3955078125, 0, 
384, 3632425525, -0.372473806142807, 0.6911072134971619, 0.24954941868782043, 0.5668942332267761, 9.536405563354492, -2.091325521469116, -0.6107321381568909, 9.841228485107422, -17.553747177124023, 24.228347778320312, -1.041748046875, 0.125244140625, 0.397216796875, 0, 
385, 3632433858, -0.3737638592720032, 0.6919820308685303, 0.24956169724464417, 0.5649693012237549, 9.59154224395752, -2.111323833465576, -1.069610595703125, 15.685402870178223, -20.75014877319336, 23.11381721496582, -1.039794921875, 0.126708984375, 0.399658203125, 0, 
386, 3632442191, -0.37534475326538086, 0.6927633285522461, 0.2498912513256073, 0.562813937664032, 9.680814743041992, -1.612456202507019, -1.2513096332550049, 22.243000030517578, -22.84756088256836, 23.118749618530273, -1.038818359375, 0.13037109375, 0.400634765625, 0, 
387, 3632450524, -0.3770441710948944, 0.6935713887214661, 0.2502877116203308, 0.5605016350746155, 9.826229095458984, -1.0144752264022827, -0.9208491444587708, 24.259307861328125, -24.493099212646484, 24.39680290222168, -1.0361328125, 0.135498046875, 0.40380859375, 0, 
388, 3632458857, -0.37847641110420227, 0.6945559978485107, 0.25008147954940796, 0.5584053993225098, 9.969454765319824, -1.0034137964248657, -0.6985483765602112, 15.437564849853516, -21.58144187927246, 27.477577209472656, -1.03759765625, 0.1376953125, 0.409423828125, 0, 
389, 3632467190, -0.3791460692882538, 0.6959487795829773, 0.24885091185569763, 0.556764543056488, 9.532557487487793, -1.3925211429595947, -1.3215683698654175, -3.4189529418945312, -17.666961669921875, 30.537195205688477, -1.035400390625, 0.1484375, 0.408447265625, 0, 
390, 3632475523, -0.37955039739608765, 0.6976046562194824, 0.24743135273456573, 0.5550469160079956, 9.317503929138184, -1.4913878440856934, -2.7322893142700195, -8.495828628540039, -20.330158233642578, 31.515972137451172, -1.0361328125, 0.145751953125, 0.41552734375, 0, 
391, 3632483856, -0.3802395761013031, 0.6990208625793457, 0.24639366567134857, 0.5532520413398743, 9.410134315490723, -1.7959880828857422, -2.5215649604797363, -1.374781608581543, -20.267248153686523, 29.720922470092773, -1.03125, 0.1513671875, 0.418212890625, 0, 
392, 3632492189, -0.3806281089782715, 0.7003985643386841, 0.24508973956108093, 0.551819920539856, 9.234905242919922, -2.304866075515747, -1.1108262538909912, -7.279380798339844, -16.112356185913086, 27.85771369934082, -1.03125, 0.156005859375, 0.420166015625, 0, 
393, 3632500522, -0.3807533383369446, 0.7018798589706421, 0.24353329837322235, 0.5505385994911194, 9.067914962768555, -2.568578004837036, -1.3015081882476807, -12.786267280578613, -15.016936302185059, 27.9587345123291, -1.027099609375, 0.15771484375, 0.4208984375, 0, 
394, 3632508855, -0.3813110291957855, 0.703279435634613, 0.24229493737220764, 0.5489106178283691, 9.17895221710205, -2.62397837638855, -1.8943759202957153, -4.609043121337891, -17.955432891845703, 29.598918914794922, -1.0302734375, 0.162841796875, 0.4228515625, 0, 
395, 3632517188, -0.3823729157447815, 0.7045395374298096, 0.24127742648124695, 0.5470007658004761, 9.604329109191895, -2.8965508937835693, -1.1597776412963867, 3.61271333694458, -19.1175537109375, 32.38462829589844, -1.025146484375, 0.162841796875, 0.42431640625, 0, 
396, 3632525521, -0.38344699144363403, 0.7057785987854004, 0.2400028109550476, 0.5452095866203308, 9.741469383239746, -2.9082701206207275, -0.33035627007484436, 1.504658818244934, -16.40538787841797, 34.169456481933594, -1.02490234375, 0.169921875, 0.428955078125, 0, 
397, 3632533854, -0.3843231201171875, 0.7069413065910339, 0.23858492076396942, 0.5437065362930298, 9.444099426269531, -2.7847888469696045, -0.4730156660079956, -1.9848617315292358, -12.956883430480957, 32.403785705566406, -1.023193359375, 0.172607421875, 0.4306640625, 0, 
398, 3632542187, -0.38513779640197754, 0.7079952359199524, 0.23723119497299194, 0.5423492789268494, 9.263805389404297, -2.8098013401031494, -1.3592185974121094, -2.0619349479675293, -11.245901107788086, 30.094575881958008, -1.021728515625, 0.17919921875, 0.4345703125, 0, 
399, 3632550520, -0.38567960262298584, 0.709136426448822, 0.23579230904579163, 0.5410993099212646, 9.262893676757812, -3.1011030673980713, -1.4233462810516357, -6.115391731262207, -11.312472343444824, 28.7030029296875, -1.021240234375, 0.1806640625, 0.436279296875, 0, 
400, 3632558853, -0.38628309965133667, 0.7102957367897034, 0.2343522310256958, 0.5397723317146301, 9.452512741088867, -3.548177480697632, -1.241291880607605, -5.418607234954834, -11.97029972076416, 29.541667938232422, -1.018310546875, 0.185791015625, 0.435791015625, 0, 
401, 3632567186, -0.38731908798217773, 0.7112312316894531, 0.23319552838802338, 0.538297176361084, 9.204144477844238, -4.210910797119141, -0.9404026865959167, 2.6211326122283936, -11.88774299621582, 30.14898109436035, -1.01953125, 0.19140625, 0.434814453125, 0, 
402, 3632575519, -0.3884153366088867, 0.7121605277061462, 0.232180655002594, 0.5367150902748108, 9.00179672241211, -4.458266258239746, -1.1855872869491577, 4.591022491455078, -13.430645942687988, 29.659189224243164, -1.016357421875, 0.195556640625, 0.43994140625, 0, 
403, 3632583852, -0.38972213864326477, 0.713021457195282, 0.23143231868743896, 0.534945011138916, 9.378340721130371, -4.0175652503967285, -1.4510829448699951, 9.631193161010742, -15.539727210998535, 29.4842472076416, -1.015869140625, 0.195068359375, 0.43994140625, 0, 
404, 3632592185, -0.39177751541137695, 0.7134813666343689, 0.23139706254005432, 0.5328417420387268, 9.60387134552002, -3.315140724182129, -1.2319605350494385, 25.380720138549805, -17.273841857910156, 28.4129638671875, -1.01513671875, 0.2080078125, 0.4423828125, 0, 
405, 3632600518, -0.39402639865875244, 0.7138476371765137, 0.23147955536842346, 0.5306525230407715, 9.819842338562012, -2.853653907775879, -1.0115909576416016, 29.012447357177734, -17.48398780822754, 28.924468994140625, -1.013671875, 0.20654296875, 0.443115234375, 0, 
406, 3632608851, -0.3961558938026428, 0.7143036723136902, 0.2312803566455841, 0.5285360217094421, 10.07977294921875, -2.3704137802124023, -1.1472866535186768, 24.974708557128906, -16.24430274963379, 30.626087188720703, -1.009033203125, 0.211181640625, 0.447998046875, 0, 
407, 3632617184, -0.39833173155784607, 0.7147505879402161, 0.2308999001979828, 0.5264586210250854, 10.017248153686523, -2.152554512023926, -1.0662492513656616, 24.118850708007812, -14.692888259887695, 32.58693313598633, -1.01025390625, 0.22021484375, 0.446533203125, 0, 
408, 3632625517, -0.40014976263046265, 0.7154173851013184, 0.23006393015384674, 0.5245368480682373, 9.691363334655762, -2.2889223098754883, -0.9889749884605408, 15.524221420288086, -13.36320972442627, 34.23588180541992, -1.006103515625, 0.224853515625, 0.44873046875, 0, 
409, 3632633850, -0.4015810191631317, 0.7163103818893433, 0.22888389229774475, 0.5227373242378235, 9.504154205322266, -2.5502047538757324, -1.3257906436920166, 7.6900434494018555, -13.156218528747559, 34.959041595458984, -1.0068359375, 0.232666015625, 0.451904296875, 0, 
410, 3632642183, -0.4030066728591919, 0.7172410488128662, 0.2276444137096405, 0.5209022164344788, 9.45726203918457, -2.9363389015197754, -1.4078255891799927, 7.025993347167969, -13.432927131652832, 35.73277282714844, -1.0029296875, 0.234130859375, 0.452392578125, 0, 
411, 3632650516, -0.40458375215530396, 0.7181165218353271, 0.22644546627998352, 0.5189921855926514, 9.477693557739258, -3.439070701599121, -1.21052885055542, 9.42676830291748, -13.559593200683594, 36.7513542175293, -1.001953125, 0.243896484375, 0.451904296875, 0, 
412, 3632658849, -0.406300812959671, 0.7189603447914124, 0.2252863049507141, 0.516982913017273, 9.323233604431152, -3.6106173992156982, -1.3313947916030884, 11.502961158752441, -14.066399574279785, 37.719966888427734, -1.00244140625, 0.2470703125, 0.455810546875, 0, 
413, 3632667182, -0.40820521116256714, 0.7197779417037964, 0.22425395250320435, 0.5147895812988281, 9.315398216247559, -3.292335033416748, -1.4401397705078125, 15.052282333374023, -15.861833572387695, 38.8360595703125, -0.99951171875, 0.253173828125, 0.45654296875, 0, 
414, 3632675515, -0.41035398840904236, 0.7204958200454712, 0.22334891557693481, 0.5124651789665222, 9.292635917663574, -2.8661797046661377, -1.3120490312576294, 19.259023666381836, -16.380680084228516, 39.64297103881836, -0.998779296875, 0.260009765625, 0.45751953125, 0, 
415, 3632683848, -0.41246458888053894, 0.721227765083313, 0.22232696413993835, 0.5101805329322815, 9.161367416381836, -2.9434974193573, -1.3061316013336182, 17.94687843322754, -15.586024284362793, 40.43944549560547, -0.99462890625, 0.2666015625, 0.460205078125, 0, 
416, 3632692181, -0.4145219624042511, 0.7220338582992554, 0.22119274735450745, 0.5078607201576233, 9.264008522033691, -3.127535581588745, -1.7651827335357666, 16.225677490234375, -15.937605857849121, 41.516685485839844, -0.994140625, 0.271240234375, 0.463623046875, 0, 
417, 3632700514, -0.4168652594089508, 0.7227084040641785, 0.2202461212873459, 0.5053884387016296, 9.4615478515625, -3.5618653297424316, -1.8712871074676514, 21.691221237182617, -16.778640747070312, 42.20919418334961, -0.98974609375, 0.27734375, 0.46435546875, 0, 
418, 3632708847, -0.4194709062576294, 0.7232696413993835, 0.2195357084274292, 0.5027317404747009, 9.383841514587402, -3.8938441276550293, -1.9679933786392212, 27.045318603515625, -18.336442947387695, 42.31003189086914, -0.989990234375, 0.287841796875, 0.46630859375, 0, 
419, 3632717180, -0.4221385717391968, 0.7238162755966187, 0.21889925003051758, 0.4999820291996002, 9.292461395263672, -3.9556479454040527, -2.308189630508423, 28.64447593688965, -19.449491500854492, 42.584083557128906, -0.98486328125, 0.29248046875, 0.46533203125, 0, 
420, 3632725513, -0.42503663897514343, 0.7242372632026672, 0.2185172438621521, 0.49707576632499695, 9.188666343688965, -3.8857243061065674, -2.3556735515594482, 33.7828369140625, -20.880104064941406, 42.08003234863281, -0.97998046875, 0.3017578125, 0.469482421875, 0, 
421, 3632733846, -0.42810937762260437, 0.7246006727218628, 0.21830794215202332, 0.493991881608963, 9.388140678405762, -3.719614267349243, -1.902512550354004, 37.684783935546875, -22.784231185913086, 42.50383377075195, -0.980712890625, 0.307373046875, 0.469482421875, 0, 
422, 3632742179, -0.43113991618156433, 0.7250236868858337, 0.21793875098228455, 0.4908890128135681, 9.580886840820312, -3.398493528366089, -1.1329156160354614, 35.7734489440918, -22.518177032470703, 44.01398468017578, -0.975830078125, 0.317138671875, 0.4716796875, 0, 
423, 3632750512, -0.43413183093070984, 0.7255036234855652, 0.2174062430858612, 0.4877689778804779, 9.817442893981934, -2.58703875541687, -0.7640983462333679, 34.107051849365234, -22.266054153442383, 45.74177169799805, -0.974853515625, 0.325927734375, 0.47314453125, 0, 
424, 3632758845, -0.4370103180408478, 0.7260915040969849, 0.21657507121562958, 0.4846837520599365, 10.110074043273926, -1.7827244997024536, -0.3309691548347473, 30.114803314208984, -21.15433692932129, 47.9887809753418, -0.972900390625, 0.335205078125, 0.4736328125, 0, 
425, 3632767178, -0.43979981541633606, 0.7268214821815491, 0.21538576483726501, 0.48158660531044006, 10.362232208251953, -1.0990716218948364, 0.09922508150339127, 26.12888526916504, -20.37796974182129, 51.55680465698242, -0.96630859375, 0.33984375, 0.476806640625, 0, 
426, 3632775511, -0.44250133633613586, 0.7277112603187561, 0.2137523889541626, 0.4784858226776123, 10.245654106140137, -0.7710195779800415, 0.685542643070221, 21.244571685791016, -19.003074645996094, 55.81816864013672, -0.9677734375, 0.3486328125, 0.476806640625, 0, 
427, 3632783844, -0.4450305700302124, 0.728851854801178, 0.21168965101242065, 0.47531062364578247, 10.069323539733887, -0.3541385531425476, 0.40897294878959656, 15.494468688964844, -19.34236717224121, 60.268775939941406, -0.961181640625, 0.35986328125, 0.47900390625, 0, 
428, 3632792177, -0.4478045701980591, 0.7300417423248291, 0.20940861105918884, 0.4718770682811737, 10.328824043273926, -0.44376009702682495, 0.44924214482307434, 16.865461349487305, -20.15456199645996, 65.68323516845703, -0.9541015625, 0.36767578125, 0.4794921875, 0, 
429, 3632800510, -0.4505460262298584, 0.7314690947532654, 0.20667943358421326, 0.4682464897632599, 10.58134937286377, -0.7876681089401245, 0.9635624289512634, 12.831925392150879, -21.061729431152344, 71.97974395751953, -0.955322265625, 0.374755859375, 0.484619140625, 0, 
430, 3632808843, -0.4531898498535156, 0.7331653833389282, 0.20344319939613342, 0.46444401144981384, 10.597366333007812, -0.6929771900177002, 0.7588916420936584, 7.308680057525635, -21.604183197021484, 78.16881561279297, -0.947998046875, 0.3876953125, 0.485107421875, 0, 
431, 3632817176, -0.4559005796909332, 0.7350099682807922, 0.19991393387317657, 0.4603903889656067, 10.489908218383789, -0.6737667322158813, 0.4256535768508911, 5.98055362701416, -23.128873825073242, 83.655517578125, -0.946533203125, 0.39794921875, 0.4873046875, 0, 
432, 3632825509, -0.45879966020584106, 0.7369299530982971, 0.19611260294914246, 0.4560558497905731, 10.593430519104004, -0.7350053191184998, 0.6653374433517456, 6.373049259185791, -24.163846969604492, 89.44261169433594, -0.93603515625, 0.410400390625, 0.491455078125, 0, 
433, 3632833842, -0.4619219899177551, 0.7388849854469299, 0.19213521480560303, 0.4514099657535553, 10.606473922729492, -0.6709827184677124, 0.37460893392562866, 8.23655891418457, -25.89292335510254, 94.8225326538086, -0.9306640625, 0.420166015625, 0.492431640625, 0, 
434, 3632842175, -0.4652681052684784, 0.7408811450004578, 0.1879434883594513, 0.44643887877464294, 10.75068187713623, -0.8340376615524292, 0.201969712972641, 9.69070053100586, -27.43297004699707, 100.42684936523438, -0.92724609375, 0.4326171875, 0.4951171875, 0, 
435, 3632850508, -0.4687683582305908, 0.7429651021957397, 0.18351686000823975, 0.4411240816116333, 11.183816909790039, -1.025069236755371, -0.03412074223160744, 10.224440574645996, -29.642580032348633, 106.34385681152344, -0.918212890625, 0.447998046875, 0.499755859375, 0, 
436, 3632858841, -0.47248372435569763, 0.7450687289237976, 0.17898446321487427, 0.4354378879070282, 11.472311973571777, -1.32148015499115, 0.14072252810001373, 12.513188362121582, -32.261165618896484, 111.02259826660156, -0.90673828125, 0.458984375, 0.50244140625, 0, 
437, 3632867174, -0.4764386713504791, 0.747122585773468, 0.17442283034324646, 0.4294188320636749, 11.62512493133545, -1.5054689645767212, 0.15427416563034058, 15.945426940917969, -34.630496978759766, 114.97664642333984, -0.90234375, 0.476318359375, 0.50537109375, 0, 
438, 3632875507, -0.4807303547859192, 0.749074399471283, 0.1699315309524536, 0.42298826575279236, 11.71639633178711, -1.4696910381317139, 0.5474271774291992, 21.467077255249023, -37.87241744995117, 118.51266479492188, -0.891357421875, 0.48876953125, 0.509765625, 0, 
439, 3632883840, -0.48528650403022766, 0.7509896755218506, 0.1654316484928131, 0.4161176085472107, 11.913864135742188, -1.4450763463974, 0.9358876943588257, 25.422521591186523, -41.56221008300781, 123.15901184082031, -0.881103515625, 0.50634765625, 0.51123046875, 0, 
440, 3632892173, -0.49008435010910034, 0.7529541254043579, 0.16087862849235535, 0.40866294503211975, 12.362367630004883, -1.2234318256378174, 1.5606049299240112, 28.60334587097168, -46.9271240234375, 128.90574645996094, -0.869384765625, 0.52294921875, 0.514892578125, 0, 
441, 3632900506, -0.4952096939086914, 0.7548471689224243, 0.1562984585762024, 0.4006917476654053, 13.260823249816895, -0.6015443801879883, 1.7179657220840454, 33.47670364379883, -51.016990661621094, 134.5619659423828, -0.857421875, 0.536865234375, 0.51904296875, 0, 
442, 3632908839, -0.5006070733070374, 0.7567439079284668, 0.1515674889087677, 0.39213329553604126, 14.754643440246582, 0.1761319786310196, 1.948606014251709, 36.69382095336914, -55.47172164916992, 141.42184448242188, -0.844970703125, 0.55810546875, 0.52490234375, 0, 
443, 3632917172, -0.506236732006073, 0.7586673498153687, 0.1465667337179184, 0.38298359513282776, 16.931354522705078, 1.0846478939056396, 2.122344732284546, 38.7138786315918, -59.4822883605957, 149.84249877929688, -0.830078125, 0.5732421875, 0.5234375, 0, 
444, 3632925505, -0.5119811296463013, 0.7606971859931946, 0.1411396563053131, 0.37323570251464844, 19.410694122314453, 2.197721004486084, 2.21561861038208, 38.12312698364258, -63.02994155883789, 159.04039001464844, -0.81396484375, 0.595458984375, 0.530517578125, 0, 
