PacketCounter,SampleTimeFine,Quat_W,Quat_X,Quat_Y,Quat_Z,Acc_X,Acc_Y,Acc_Z,Gyr_X,Gyr_Y,Gyr_Z,Mag_X,Mag_Y,Mag_Z,Status,
0, 1039412583, 0.6032824516296387, -0.5535675287246704, -0.42821282148361206, -0.3824264705181122, 0, 0, 0, 0, 0, 0, -0.91552734375, 0.6337890625, 0.31591796875, 0, 
1, 1039420916, 0.6032130122184753, -0.5536043047904968, -0.4281855523586273, -0.3825133442878723, 9.209986686706543, -3.7115745544433594, 0.21005754172801971, -0.31105926632881165, 0.1356145739555359, -0.378629595041275, -0.913330078125, 0.6357421875, 0.318359375, 0, 
2, 1039429249, 0.6031332015991211, -0.5536170601844788, -0.4282177984714508, -0.382584810256958, 9.142721176147461, -3.786850929260254, 0.1710316240787506, 0.2124316543340683, -0.40578070282936096, -0.8924511671066284, -0.9091796875, 0.63427734375, 0.31591796875, 0, 
3, 1039437582, 0.6030758619308472, -0.5535872578620911, -0.4283106327056885, -0.3826141655445099, 9.118691444396973, -3.7851712703704834, 0.15451455116271973, 1.307184100151062, -0.8764423727989197, -1.142266869544983, -0.912841796875, 0.63134765625, 0.3173828125, 0, 
4, 1039445915, 0.603049635887146, -0.5535071492195129, -0.4284529983997345, -0.3826121985912323, 9.117268562316895, -3.63102650642395, 0.17211438715457916, 2.403268575668335, -1.07292902469635, -1.386293649673462, -0.913818359375, 0.63427734375, 0.31884765625, 0, 
5, 1039454248, 0.6030735969543457, -0.5533758997917175, -0.42861413955688477, -0.3825835585594177, 9.149951934814453, -3.5222551822662354, 0.1590638905763626, 3.458728551864624, -0.8704484701156616, -1.352636456489563, -0.912841796875, 0.6357421875, 0.31494140625, 0, 
6, 1039462581, 0.6031091213226318, -0.5532235503196716, -0.42876535654067993, -0.3825785517692566, 9.160510063171387, -3.431098461151123, 0.21644768118858337, 3.5380430221557617, -0.42469683289527893, -1.5286448001861572, -0.91552734375, 0.63525390625, 0.31787109375, 0, 
7, 1039470914, 0.6030952334403992, -0.5531234741210938, -0.4288603663444519, -0.3826388120651245, 9.127336502075195, -3.319451332092285, 0.15059679746627808, 2.008373737335205, -0.02095244638621807, -1.6053979396820068, -0.912841796875, 0.63330078125, 0.318359375, 0, 
8, 1039479247, 0.6030163764953613, -0.5530809760093689, -0.42892032861709595, -0.3827572464942932, 9.150553703308105, -3.253763437271118, 0.10441635549068451, 0.5472865104675293, 0.016636444255709648, -1.8121559619903564, -0.91455078125, 0.63525390625, 0.318359375, 0, 
9, 1039487580, 0.602940559387207, -0.5530285239219666, -0.42900362610816956, -0.3828589618206024, 9.171388626098633, -3.2681140899658203, 0.12962336838245392, 0.8404414653778076, -0.224995419383049, -1.9032913446426392, -0.913818359375, 0.63232421875, 0.31591796875, 0, 
10, 1039495913, 0.6028498411178589, -0.552996814250946, -0.4290574789047241, -0.382987380027771, 9.177167892456055, -3.254777669906616, 0.21182036399841309, 0.27559635043144226, 0.018122071400284767, -1.847938895225525, -0.914794921875, 0.631103515625, 0.31640625, 0, 
11, 1039504246, 0.6027184128761292, -0.5530102849006653, -0.4290533661842346, -0.38317933678627014, 9.209481239318848, -3.262953758239746, 0.17933544516563416, -1.0955976247787476, 0.5016419887542725, -1.890637993812561, -0.913818359375, 0.63427734375, 0.31787109375, 0, 
12, 1039512579, 0.6025906801223755, -0.5530239343643188, -0.4290388226509094, -0.3833768665790558, 9.223114013671875, -3.334644317626953, 0.18200170993804932, -1.1481068134307861, 0.6524841785430908, -1.8280365467071533, -0.9169921875, 0.63427734375, 0.31494140625, 0, 
13, 1039520912, 0.6024847626686096, -0.5530118346214294, -0.42905470728874207, -0.3835427761077881, 9.259682655334473, -3.419715642929077, 0.25922197103500366, -0.41865184903144836, 0.4189720153808594, -1.843443512916565, -0.913330078125, 0.63134765625, 0.31494140625, 0, 
14, 1039529245, 0.6023929119110107, -0.5529948472976685, -0.42906615138053894, -0.38369879126548767, 9.281673431396484, -3.4550983905792236, 0.2876123785972595, -0.24068421125411987, 0.4950975775718689, -1.673032283782959, -0.914794921875, 0.63232421875, 0.31494140625, 0, 
15, 1039537578, 0.6023268699645996, -0.5529503226280212, -0.42908287048339844, -0.3838478624820709, 9.286738395690918, -3.4781134128570557, 0.3122886121273041, 0.272855669260025, 0.6860388517379761, -1.6895148754119873, -0.9169921875, 0.630126953125, 0.314208984375, 0, 
16, 1039545911, 0.6022999882698059, -0.5528521537780762, -0.4291478991508484, -0.3839587867259979, 9.207586288452148, -3.4115073680877686, 0.2240135818719864, 1.474137544631958, 0.5186241865158081, -1.8445067405700684, -0.91943359375, 0.63330078125, 0.31787109375, 0, 
17, 1039554244, 0.6022719740867615, -0.5527635812759399, -0.42922157049179077, -0.3840479552745819, 9.22829532623291, -3.284148693084717, 0.23681846261024475, 1.5092291831970215, 0.2405817061662674, -1.6881318092346191, -0.914794921875, 0.629150390625, 0.3173828125, 0, 
18, 1039562577, 0.6022034287452698, -0.5527443289756775, -0.42923957109451294, -0.3841629922389984, 9.218341827392578, -3.066810369491577, 0.19429273903369904, 0.2323082834482193, 0.2782346308231354, -1.273513913154602, -0.916015625, 0.630615234375, 0.314453125, 0, 
19, 1039570910, 0.6021471619606018, -0.5527324676513672, -0.4292060136795044, -0.3843054473400116, 9.212811470031738, -2.8518171310424805, 0.17575250566005707, -0.1978827565908432, 0.9532337784767151, -1.010443091392517, -0.91650390625, 0.631103515625, 0.318359375, 0, 
20, 1039579243, 0.602120578289032, -0.5527045130729675, -0.42915135622024536, -0.3844485282897949, 9.200823783874512, -2.7506115436553955, 0.18964332342147827, 0.07268039137125015, 1.3843083381652832, -0.7845383286476135, -0.917724609375, 0.629638671875, 0.31982421875, 0, 
21, 1039587576, 0.6020568609237671, -0.552731990814209, -0.4290262758731842, -0.3846483826637268, 9.221404075622559, -2.767279624938965, 0.2684820294380188, -1.3660584688186646, 1.8859121799468994, -0.5943014621734619, -0.914794921875, 0.628173828125, 0.31640625, 0, 
22, 1039595909, 0.6019662618637085, -0.5528024435043335, -0.42886054515838623, -0.38487377762794495, 9.272293090820312, -2.9258077144622803, 0.23387573659420013, -2.3016695976257324, 2.030888795852661, -0.37983348965644836, -0.914306640625, 0.630615234375, 0.31689453125, 0, 
23, 1039604242, 0.6018916368484497, -0.5528588891029358, -0.4286993741989136, -0.38508856296539307, 9.29960823059082, -3.1422524452209473, 0.24382759630680084, -1.976650357246399, 2.0812973976135254, -0.3301674723625183, -0.914306640625, 0.627685546875, 0.31494140625, 0, 
24, 1039612575, 0.601808488368988, -0.5529447197914124, -0.428503155708313, -0.3853137493133545, 9.339653015136719, -3.28094482421875, 0.2514139711856842, -2.531557559967041, 2.2470219135284424, -0.015214856714010239, -0.916748046875, 0.628173828125, 0.3173828125, 0, 
25, 1039620908, 0.6017467975616455, -0.5530203580856323, -0.42829084396362305, -0.3855375349521637, 9.310260772705078, -3.290403366088867, 0.1652684062719345, -2.3587896823883057, 2.5443520545959473, 0.16578815877437592, -0.916748046875, 0.627685546875, 0.31884765625, 0, 
26, 1039629241, 0.6016697287559509, -0.5531155467033386, -0.4280661940574646, -0.38577061891555786, 9.277613639831543, -3.1801607608795166, 0.2247045487165451, -2.759446620941162, 2.5293667316436768, 0.22301030158996582, -0.914306640625, 0.630126953125, 0.3154296875, 0, 
27, 1039637574, 0.60155189037323, -0.5532567501068115, -0.4278290271759033, -0.38601523637771606, 9.325181007385254, -3.0174739360809326, 0.4000377357006073, -3.6037185192108154, 2.237928628921509, 0.26952579617500305, -0.9189453125, 0.626953125, 0.31494140625, 0, 
28, 1039645907, 0.6014282703399658, -0.5534215569496155, -0.42754435539245605, -0.3862868547439575, 9.400079727172852, -2.8847298622131348, 0.4355073571205139, -4.235902786254883, 2.674471855163574, 0.5231835246086121, -0.9208984375, 0.62744140625, 0.31787109375, 0, 
29, 1039654240, 0.6013225317001343, -0.5535504817962646, -0.4272800385951996, -0.3865588903427124, 9.348420143127441, -2.9262781143188477, 0.39911943674087524, -3.675693988800049, 2.7938601970672607, 0.242067351937294, -0.91796875, 0.62646484375, 0.31640625, 0, 
30, 1039662573, 0.6012184619903564, -0.5536643266677856, -0.4270423948764801, -0.38682031631469727, 9.373480796813965, -3.0910110473632812, 0.489606648683548, -3.354414701461792, 2.5927116870880127, 0.053649019449949265, -0.91845703125, 0.62646484375, 0.31689453125, 0, 
31, 1039670906, 0.6011260747909546, -0.5537963509559631, -0.4267812967300415, -0.38706305623054504, 9.452933311462402, -3.266026735305786, 0.44520753622055054, -3.425135850906372, 2.6109230518341064, 0.5510263442993164, -0.918212890625, 0.62744140625, 0.320556640625, 0, 
32, 1039679239, 0.601081371307373, -0.5539091229438782, -0.42652571201324463, -0.3872525990009308, 9.394850730895996, -3.251133441925049, 0.34076493978500366, -2.5686721801757812, 2.5473227500915527, 1.0934076309204102, -0.919921875, 0.62548828125, 0.318359375, 0, 
33, 1039687572, 0.600996196269989, -0.5540759563446045, -0.4262152314186096, -0.38748806715011597, 9.33168888092041, -3.0787296295166016, 0.41090628504753113, -3.9172873497009277, 2.8350987434387207, 1.2297266721725464, -0.9169921875, 0.629150390625, 0.313720703125, 0, 
34, 1039695905, 0.6008744835853577, -0.5542957186698914, -0.4258146286010742, -0.38780269026756287, 9.292683601379395, -2.9008450508117676, 0.4899962246417999, -5.544726371765137, 3.678588390350342, 1.3815293312072754, -0.91650390625, 0.628662109375, 0.3154296875, 0, 
35, 1039704238, 0.6007066369056702, -0.5545777082443237, -0.42537760734558105, -0.38813915848731995, 9.33168888092041, -2.8066117763519287, 0.32894235849380493, -6.758470058441162, 3.5480713844299316, 1.5932694673538208, -0.916748046875, 0.62646484375, 0.31689453125, 0, 
36, 1039712571, 0.6004608869552612, -0.5549598932266235, -0.42484331130981445, -0.3885580003261566, 9.37571907043457, -2.6835122108459473, 0.0721733346581459, -9.156167984008789, 3.9858956336975098, 1.829612135887146, -0.919921875, 0.626953125, 0.314453125, 0, 
37, 1039720904, 0.6002735495567322, -0.5552937388420105, -0.4243308901786804, -0.38893038034439087, 9.337828636169434, -2.7460415363311768, 0.013460434041917324, -7.930065631866455, 4.047523021697998, 2.0726656913757324, -0.91845703125, 0.627685546875, 0.31689453125, 0, 
38, 1039729237, 0.6001155376434326, -0.5555862188339233, -0.4238673746585846, -0.38926172256469727, 9.256829261779785, -2.9074788093566895, 0.18727290630340576, -6.857982158660889, 3.724374532699585, 1.956581950187683, -0.9189453125, 0.630126953125, 0.318359375, 0, 
39, 1039737570, 0.599902868270874, -0.5559870004653931, -0.42329442501068115, -0.3896403908729553, 9.409886360168457, -3.142707347869873, 0.17700324952602386, -9.030529975891113, 4.086866855621338, 2.738712787628174, -0.919677734375, 0.623046875, 0.31884765625, 0, 
40, 1039745903, 0.5996912121772766, -0.5564656257629395, -0.4226265251636505, -0.3900076746940613, 9.498190879821777, -3.3819618225097656, 0.06580791622400284, -10.10438060760498, 4.376358985900879, 4.019167900085449, -0.917724609375, 0.62744140625, 0.318359375, 0, 
41, 1039754236, 0.5996843576431274, -0.5567297339439392, -0.4221797585487366, -0.3901253342628479, 9.48124885559082, -3.5847861766815186, -0.04098201170563698, -4.103041648864746, 2.9698550701141357, 4.235889911651611, -0.92138671875, 0.628662109375, 0.321044921875, 0, 
42, 1039762569, 0.5999475121498108, -0.5567165017127991, -0.42197850346565247, -0.3899575173854828, 9.47446346282959, -3.699791431427002, 0.12140058726072311, 3.196131467819214, 1.8286645412445068, 4.550919532775879, -0.918212890625, 0.62548828125, 0.31884765625, 0, 
43, 1039770902, 0.6002606153488159, -0.5566892623901367, -0.4217945337295532, -0.3897136449813843, 9.549724578857422, -3.4217498302459717, 0.26682645082473755, 4.218190670013428, 1.4666839838027954, 5.230132579803467, -0.91796875, 0.629150390625, 0.31982421875, 0, 
44, 1039779235, 0.6006290912628174, -0.5566233992576599, -0.421650767326355, -0.3893953859806061, 9.573493957519531, -2.842525005340576, 0.23953793942928314, 5.617292881011963, 1.0962255001068115, 5.610965251922607, -0.91748046875, 0.628662109375, 0.31689453125, 0, 
45, 1039787568, 0.6010255813598633, -0.5565809011459351, -0.4214777946472168, -0.38903141021728516, 9.602749824523926, -2.334991216659546, 0.3221851587295532, 5.750050067901611, 1.0200228691101074, 6.496346473693848, -0.91845703125, 0.629150390625, 0.31787109375, 0, 
46, 1039795901, 0.601332426071167, -0.5567322969436646, -0.4210822582244873, -0.38876891136169434, 9.627120971679688, -2.0881145000457764, 0.3859049677848816, 1.681100606918335, 2.0837819576263428, 8.006689071655273, -0.9189453125, 0.6279296875, 0.31884765625, 0, 
47, 1039804234, 0.6015350222587585, -0.5570948123931885, -0.4204668402671814, -0.3886021673679352, 9.589953422546387, -2.0560524463653564, 0.3635774254798889, -2.59246826171875, 2.8998775482177734, 9.56226921081543, -0.914306640625, 0.631103515625, 0.31689453125, 0, 
48, 1039812567, 0.6017063856124878, -0.5575894713401794, -0.41976600885391235, -0.38838478922843933, 9.609526634216309, -2.2463772296905518, 0.2854064404964447, -4.088339328765869, 2.3329062461853027, 11.234007835388184, -0.913818359375, 0.630615234375, 0.31494140625, 0, 
49, 1039820900, 0.6018831133842468, -0.5581774711608887, -0.41899049282073975, -0.38810357451438904, 9.589518547058105, -2.439305067062378, 0.3640103042125702, -4.842999458312988, 1.9890738725662231, 12.903712272644043, -0.915283203125, 0.630126953125, 0.314453125, 0, 
50, 1039829233, 0.6021201610565186, -0.5587761402130127, -0.41822925209999084, -0.38769516348838806, 9.520284652709961, -2.4562478065490723, 0.44152548909187317, -3.667356491088867, 1.191753625869751, 14.229168891906738, -0.915771484375, 0.631591796875, 0.3193359375, 0, 
51, 1039837566, 0.6025151014328003, -0.5592905282974243, -0.4175398647785187, -0.38708263635635376, 9.510245323181152, -2.353125810623169, 0.4676419794559479, -0.21687577664852142, 0.3886064291000366, 15.7262601852417, -0.91357421875, 0.639892578125, 0.3154296875, 0, 
52, 1039845899, 0.6030022501945496, -0.5598369836807251, -0.4168289303779602, -0.386299729347229, 9.572256088256836, -2.0178897380828857, 0.5476912260055542, 1.106778621673584, -0.38826069235801697, 17.97585678100586, -0.910400390625, 0.637939453125, 0.319091796875, 0, 
53, 1039854232, 0.6035862565040588, -0.5604270696640015, -0.41606834530830383, -0.3853509724140167, 9.713639259338379, -1.7025063037872314, 0.701633632183075, 2.1872899532318115, -0.9395561218261719, 20.503984451293945, -0.909912109375, 0.639892578125, 0.321533203125, 0, 
54, 1039862565, 0.6042520999908447, -0.5610663890838623, -0.41526472568511963, -0.384242445230484, 9.848068237304688, -1.5530115365982056, 0.7687487602233887, 3.0870420932769775, -1.5957163572311401, 22.871078491210938, -0.908935546875, 0.64453125, 0.318603515625, 0, 
55, 1039870898, 0.6049438118934631, -0.5618348121643066, -0.414332777261734, -0.3830351233482361, 10.09744644165039, -1.6456398963928223, 0.8704777359962463, 2.119130849838257, -1.8401274681091309, 25.56544303894043, -0.9033203125, 0.644775390625, 0.321533203125, 0, 
56, 1039879231, 0.6056398153305054, -0.5627533197402954, -0.4132915437221527, -0.38170939683914185, 10.27420425415039, -1.7541459798812866, 0.9037127494812012, 0.9817814230918884, -2.597848415374756, 28.263111114501953, -0.90283203125, 0.647705078125, 0.319091796875, 0, 
57, 1039887564, 0.6063469648361206, -0.5638208389282227, -0.41205665469169617, -0.38034412264823914, 10.324272155761719, -1.7700814008712769, 0.9597858190536499, -0.9589978456497192, -2.0176351070404053, 31.00896644592285, -0.905517578125, 0.65283203125, 0.31640625, 0, 
58, 1039895897, 0.6071048974990845, -0.5649956464767456, -0.4106961786746979, -0.378860205411911, 10.291413307189941, -1.8159130811691284, 0.9118750691413879, -1.449639081954956, -2.1557984352111816, 33.83412170410156, -0.896240234375, 0.653076171875, 0.318603515625, 0, 
59, 1039904230, 0.6079440116882324, -0.5662153959274292, -0.40931418538093567, -0.37718576192855835, 10.405638694763184, -2.1728968620300293, 0.9071274399757385, -0.20985764265060425, -3.246607780456543, 36.28410339355469, -0.8955078125, 0.65869140625, 0.3232421875, 0, 
60, 1039912563, 0.6088733673095703, -0.567469596862793, -0.40792617201805115, -0.3753008246421814, 10.473310470581055, -2.3654496669769287, 0.9845932126045227, 1.3375130891799927, -4.49238395690918, 38.735755920410156, -0.889892578125, 0.662353515625, 0.319580078125, 0, 
61, 1039920896, 0.6098544001579285, -0.5687792301177979, -0.40652281045913696, -0.37324264645576477, 10.515528678894043, -2.353774070739746, 1.0572417974472046, 2.1656742095947266, -5.715517520904541, 40.90495681762695, -0.88623046875, 0.664794921875, 0.320556640625, 0, 
62, 1039929229, 0.6109091639518738, -0.5701208114624023, -0.4051307439804077, -0.37097761034965515, 10.649528503417969, -2.2261900901794434, 1.2607557773590088, 3.6942837238311768, -7.177377223968506, 43.08850860595703, -0.884521484375, 0.673095703125, 0.320556640625, 0, 
63, 1039937562, 0.6121112704277039, -0.5713648200035095, -0.4039255380630493, -0.3683871626853943, 10.619338989257812, -2.202308177947998, 1.2638938426971436, 8.437844276428223, -9.991158485412598, 44.58602523803711, -0.8798828125, 0.6787109375, 0.32373046875, 0, 
64, 1039945895, 0.613533616065979, -0.5724390745162964, -0.40293917059898376, -0.36542177200317383, 10.925019264221191, -2.189154863357544, 1.3028004169464111, 14.784835815429688, -12.683145523071289, 46.174560546875, -0.878173828125, 0.682861328125, 0.3212890625, 0, 
65, 1039954228, 0.6149673461914062, -0.5735824108123779, -0.40187403559684753, -0.362379252910614, 11.334186553955078, -2.2867319583892822, 1.706895351409912, 14.32478141784668, -12.922155380249023, 47.91206741333008, -0.8720703125, 0.689208984375, 0.32275390625, 0, 
66, 1039962561, 0.6161563396453857, -0.5750678777694702, -0.40055572986602783, -0.359453022480011, 11.564958572387695, -2.4071857929229736, 1.7872434854507446, 7.593574523925781, -12.909013748168945, 49.56961441040039, -0.866455078125, 0.6953125, 0.325439453125, 0, 
67, 1039970894, 0.617329478263855, -0.5766907334327698, -0.3991919457912445, -0.3563438653945923, 12.056112289428711, -2.450968027114868, 1.242866039276123, 7.091818332672119, -14.749713897705078, 52.18925094604492, -0.865234375, 0.703125, 0.324951171875, 0, 
68, 1039979227, 0.6184786558151245, -0.5785388946533203, -0.39763733744621277, -0.35307884216308594, 12.61611557006836, -2.7729194164276123, 1.4763293266296387, 4.906664848327637, -15.5880765914917, 56.11359405517578, -0.8544921875, 0.705810546875, 0.324462890625, 0, 
69, 1039987560, 0.619553804397583, -0.5806406140327454, -0.39589372277259827, -0.34968650341033936, 12.807806968688965, -2.883056402206421, 1.730787754058838, 1.9374032020568848, -16.64664649963379, 59.763423919677734, -0.851806640625, 0.7119140625, 0.3291015625, 0, 
70, 1039995893, 0.6206681132316589, -0.5827515721321106, -0.39424780011177063, -0.34603944420814514, 12.771883964538574, -2.5487067699432373, 1.7223159074783325, 4.030760765075684, -19.327856063842773, 61.35678482055664, -0.844970703125, 0.72021484375, 0.33056640625, 0, 
71, 1040004226, 0.6217979192733765, -0.5848877429962158, -0.39278557896614075, -0.34204715490341187, 12.90596866607666, -2.1097397804260254, 2.136061191558838, 6.681333541870117, -23.71798324584961, 63.08128356933594, -0.837890625, 0.72705078125, 0.334228515625, 0, 
72, 1040012559, 0.6230646371841431, -0.5869961380958557, -0.39144814014434814, -0.3376352787017822, 12.981864929199219, -1.9289231300354004, 2.7425501346588135, 10.878327369689941, -27.268325805664062, 66.11878967285156, -0.832275390625, 0.733642578125, 0.334228515625, 0, 
73, 1040020892, 0.6243318319320679, -0.5891895294189453, -0.39006149768829346, -0.3330472409725189, 13.071532249450684, -2.0823986530303955, 2.904999256134033, 10.865676879882812, -28.682809829711914, 68.53392791748047, -0.82373046875, 0.7451171875, 0.337890625, 0, 
74, 1040029225, 0.625248908996582, -0.5917947888374329, -0.3884313702583313, -0.3285829424858093, 13.384186744689941, -2.65259051322937, 2.7351608276367188, 2.7199506759643555, -29.333797454833984, 70.00101470947266, -0.816162109375, 0.748291015625, 0.340576171875, 0, 
75, 1040037558, 0.6258248090744019, -0.594795823097229, -0.3865855932235718, -0.32421520352363586, 13.717199325561523, -3.0990700721740723, 2.421757459640503, -4.951975345611572, -30.330923080444336, 71.55438232421875, -0.81005859375, 0.756591796875, 0.341552734375, 0, 
76, 1040045891, 0.6261788010597229, -0.5980574488639832, -0.38469308614730835, -0.31975191831588745, 14.158427238464355, -3.2108731269836426, 1.8900132179260254, -8.705021858215332, -33.02434158325195, 73.09922790527344, -0.79833984375, 0.76416015625, 0.34423828125, 0, 
77, 1040054224, 0.6261882185935974, -0.6016912460327148, -0.38264402747154236, -0.3153447210788727, 14.698232650756836, -3.24701189994812, 1.253538966178894, -15.738277435302734, -34.70663070678711, 74.42060852050781, -0.791748046875, 0.7724609375, 0.35302734375, 0, 
78, 1040062557, 0.6259565353393555, -0.6055617332458496, -0.38036301732063293, -0.311127245426178, 14.151010513305664, -3.1587882041931152, 0.522515058517456, -21.770366668701172, -33.40432357788086, 74.84228515625, -0.782470703125, 0.777099609375, 0.358642578125, 0, 
79, 1040070890, 0.6253952383995056, -0.6096198558807373, -0.37803661823272705, -0.307140976190567, 13.246903419494629, -2.735499382019043, -1.0018534660339355, -27.53586196899414, -33.647789001464844, 72.87261199951172, -0.771728515625, 0.78125, 0.36669921875, 0, 
80, 1040079223, 0.6249881386756897, -0.613375186920166, -0.3758973479270935, -0.3030921220779419, 13.233187675476074, -3.736355781555176, -0.6144182085990906, -22.520214080810547, -33.66731262207031, 70.84832000732422, -0.765625, 0.784912109375, 0.368896484375, 0, 
81, 1040087556, 0.6243920922279358, -0.6172431111335754, -0.3736112415790558, -0.2992706298828125, 12.668661117553711, -5.716387748718262, -0.6621882319450378, -26.873001098632812, -31.96844482421875, 70.00586700439453, -0.7548828125, 0.7958984375, 0.3759765625, 0, 
82, 1040095889, 0.6231594681739807, -0.621604323387146, -0.37133780121803284, -0.2956206202507019, 11.837894439697266, -7.539683818817139, -2.5486948490142822, -37.33544921875, -35.886417388916016, 68.26246643066406, -0.751708984375, 0.7958984375, 0.38623046875, 0, 
83, 1040104222, 0.622003972530365, -0.6256663799285889, -0.36985453963279724, -0.2913127839565277, 11.844965934753418, -9.524639129638672, -3.528928518295288, -27.548643112182617, -46.70928955078125, 66.01326751708984, -0.742919921875, 0.801513671875, 0.391845703125, 0, 
84, 1040112555, 0.6219528913497925, -0.6284900307655334, -0.36976802349090576, -0.28539371490478516, 12.438871383666992, -11.114553451538086, -3.785566568374634, 6.344141006469727, -61.90436935424805, 65.82120513916016, -0.730712890625, 0.807861328125, 0.39501953125, 0, 
85, 1040120888, 0.6222724914550781, -0.6309777498245239, -0.3704490661621094, -0.2782342731952667, 12.556700706481934, -12.190412521362305, -4.033422470092773, 21.735666275024414, -76.01661682128906, 69.62467956542969, -0.72119140625, 0.81494140625, 0.4013671875, 0, 
86, 1040129221, 0.6233636140823364, -0.632719099521637, -0.372090220451355, -0.2695105969905853, 12.440299034118652, -12.179807662963867, -4.3009352684021, 46.46491241455078, -90.9881362915039, 73.74794006347656, -0.705322265625, 0.8212890625, 0.405029296875, 0, 
87, 1040137554, 0.6259047389030457, -0.6328651905059814, -0.3750408887863159, -0.2589825987815857, 12.542008399963379, -11.48962688446045, -3.4260101318359375, 86.8403091430664, -104.60816955566406, 75.10961151123047, -0.69287109375, 0.834228515625, 0.406005859375, 0, 
88, 1040145887, 0.6283735632896423, -0.6329452991485596, -0.378206342458725, -0.24797114729881287, 12.750897407531738, -10.436517715454102, -3.3878469467163086, 90.03911590576172, -110.77618408203125, 76.7274169921875, -0.681640625, 0.842041015625, 0.40966796875, 0, 
89, 1040154220, 0.6311219334602356, -0.6325070858001709, -0.3818029463291168, -0.23632419109344482, 12.953592300415039, -9.388350486755371, -3.215282440185547, 101.7301025390625, -116.83366394042969, 76.79698944091797, -0.6669921875, 0.858154296875, 0.41064453125, 0, 
90, 1040162553, 0.6343562006950378, -0.6312868595123291, -0.38566043972969055, -0.22436097264289856, 12.924677848815918, -8.999149322509766, -2.2404518127441406, 115.25098419189453, -116.73326110839844, 74.67237854003906, -0.6513671875, 0.86669921875, 0.40478515625, 0, 
91, 1040170886, 0.6372208595275879, -0.6302359700202942, -0.3891056776046753, -0.21296000480651855, 12.706897735595703, -9.066533088684082, -1.852067470550537, 106.31608581542969, -110.7562026977539, 73.17802429199219, -0.637451171875, 0.880126953125, 0.4033203125, 0, 
92, 1040179219, 0.6393442153930664, -0.6298050880432129, -0.3919496536254883, -0.20239320397377014, 12.389225006103516, -9.14903736114502, -2.0258967876434326, 88.22537231445312, -104.02396392822266, 72.15141296386719, -0.620849609375, 0.89306640625, 0.40185546875, 0, 
93, 1040187552, 0.6408572793006897, -0.6297575831413269, -0.3945678472518921, -0.1924222707748413, 11.926191329956055, -9.077811241149902, -2.050692081451416, 75.73677062988281, -101.24153137207031, 69.3119888305664, -0.609375, 0.901123046875, 0.397705078125, 0, 
94, 1040195885, 0.6420154571533203, -0.6297135949134827, -0.3974215090274811, -0.18258114159107208, 11.62124252319336, -9.160969734191895, -1.814831256866455, 72.54522705078125, -104.1187744140625, 65.13279724121094, -0.59521484375, 0.910400390625, 0.397705078125, 0, 
95, 1040204218, 0.6426750421524048, -0.6298954486846924, -0.40028783679008484, -0.1731271743774414, 11.440531730651855, -9.357267379760742, -1.4108039140701294, 64.16271209716797, -104.18115234375, 61.66310501098633, -0.5830078125, 0.91943359375, 0.397705078125, 0, 
96, 1040212551, 0.6427316069602966, -0.6305181980133057, -0.40294149518013, -0.16426806151866913, 10.831465721130371, -9.008584976196289, -1.1082147359848022, 51.24689865112305, -101.50828552246094, 59.16330337524414, -0.57177734375, 0.92236328125, 0.3984375, 0, 
97, 1040220884, 0.6425455212593079, -0.6312534213066101, -0.4054291248321533, -0.1558350920677185, 9.937397956848145, -8.594829559326172, -0.13540101051330566, 45.428707122802734, -97.95231628417969, 56.990177154541016, -0.5556640625, 0.929443359375, 0.39794921875, 0, 
98, 1040229217, 0.6414919495582581, -0.6327933073043823, -0.407487154006958, -0.14838358759880066, 8.887414932250977, -8.550803184509277, 0.11263857781887054, 24.380849838256836, -92.18865966796875, 54.595054626464844, -0.54443359375, 0.938232421875, 0.402587890625, 0, 
99, 1040237550, 0.6392166018486023, -0.6354352235794067, -0.4091014266014099, -0.14234890043735504, 8.069547653198242, -8.284857749938965, -0.3962305784225464, -4.8039398193359375, -85.04899597167969, 49.719276428222656, -0.53369140625, 0.9404296875, 0.40576171875, 0, 
100, 1040245883, 0.6359999179840088, -0.6387779712677002, -0.4105375409126282, -0.13758151233196259, 7.388880729675293, -8.013959884643555, -0.8810569047927856, -26.681297302246094, -79.0665054321289, 42.15678024291992, -0.524169921875, 0.938720703125, 0.415283203125, 0, 
101, 1040254216, 0.6318204402923584, -0.6427881717681885, -0.4118921160697937, -0.13406795263290405, 6.799318313598633, -7.569362640380859, -1.1314529180526733, -48.19326400756836, -74.0522689819336, 33.93286895751953, -0.515869140625, 0.93994140625, 0.42724609375, 0, 
102, 1040262549, 0.6268613338470459, -0.6473851203918457, -0.4130653142929077, -0.13159534335136414, 6.528262138366699, -7.321878910064697, -1.9372317790985107, -66.4305648803711, -68.76101684570312, 28.29886817932129, -0.50732421875, 0.938232421875, 0.439453125, 0, 
103, 1040270882, 0.6215587258338928, -0.6520583629608154, -0.41413217782974243, -0.13031545281410217, 5.512875556945801, -6.98046875, -1.2977092266082764, -77.09980773925781, -59.328582763671875, 18.853044509887695, -0.501953125, 0.934814453125, 0.4482421875, 0, 
104, 1040279215, 0.6157018542289734, -0.6568756103515625, -0.4152727425098419, -0.13029728829860687, 4.551768779754639, -6.887833595275879, -1.2651041746139526, -90.36656951904297, -52.04399108886719, 7.157416820526123, -0.498779296875, 0.926513671875, 0.46240234375, 0, 
105, 1040287548, 0.6093579530715942, -0.6617748141288757, -0.4164702594280243, -0.13150155544281006, 4.151547431945801, -6.984386444091797, -1.940697193145752, -102.32177734375, -44.43081283569336, -4.037872314453125, -0.496826171875, 0.919677734375, 0.478271484375, 0, 
106, 1040295881, 0.6026687026023865, -0.6666334867477417, -0.41771548986434937, -0.1338179111480713, 3.904557466506958, -7.409523963928223, -2.319119930267334, -111.42816162109375, -36.59813690185547, -14.722421646118164, -0.496826171875, 0.9091796875, 0.490478515625, 0, 
107, 1040304214, 0.5955995321273804, -0.6714686155319214, -0.4190210700035095, -0.137169748544693, 3.5771684646606445, -7.489432334899902, -3.1128344535827637, -120.53502655029297, -29.75937271118164, -24.621084213256836, -0.499755859375, 0.89892578125, 0.512451171875, 0, 
108, 1040312547, 0.5888851284980774, -0.6755906939506531, -0.4206414818763733, -0.140909343957901, 3.5035696029663086, -7.3836469650268555, -3.6138229370117188, -113.07614135742188, -25.35201644897461, -34.21263122558594, -0.499755859375, 0.888427734375, 0.524658203125, 0, 
109, 1040320880, 0.5830221176147461, -0.6785998940467834, -0.42266470193862915, -0.14472374320030212, 3.671718120574951, -7.291831016540527, -3.3129444122314453, -95.78822326660156, -20.855167388916016, -43.28434753417969, -0.5048828125, 0.877685546875, 0.537353515625, 0, 
110, 1040329213, 0.5780054926872253, -0.6805763244628906, -0.4249720573425293, -0.14875324070453644, 3.61789608001709, -7.153563976287842, -2.738147735595703, -80.31182098388672, -14.133923530578613, -52.044097900390625, -0.50927734375, 0.870361328125, 0.547119140625, 0, 
111, 1040337546, 0.5737881660461426, -0.6815860867500305, -0.4275321066379547, -0.15305836498737335, 3.151594400405884, -6.561558723449707, -2.360121250152588, -66.22343444824219, -6.929083824157715, -60.55302047729492, -0.509765625, 0.8583984375, 0.556640625, 0, 
112, 1040345879, 0.5703808665275574, -0.6815913915634155, -0.43042638897895813, -0.15759098529815674, 2.5535976886749268, -6.119513034820557, -1.933383584022522, -51.356468200683594, -0.541693389415741, -69.74136352539062, -0.520751953125, 0.8505859375, 0.564453125, 0, 
113, 1040354212, 0.5676711797714233, -0.680657684803009, -0.4336389899253845, -0.16252575814723969, 2.00354266166687, -5.629012107849121, -1.3844883441925049, -39.127681732177734, 6.87843132019043, -79.87145233154297, -0.5302734375, 0.839111328125, 0.56689453125, 0, 
114, 1040362545, 0.5652835369110107, -0.6791519522666931, -0.437042772769928, -0.1679392009973526, 1.3476263284683228, -5.109066009521484, -1.176764726638794, -34.09079360961914, 13.081178665161133, -88.14281463623047, -0.541015625, 0.828125, 0.57177734375, 0, 
115, 1040370878, 0.563038170337677, -0.6772326231002808, -0.44059842824935913, -0.17383922636508942, 0.838139533996582, -4.445028305053711, -1.2229907512664795, -32.10784149169922, 18.24471092224121, -95.45104217529297, -0.55322265625, 0.82080078125, 0.57080078125, 0, 
116, 1040379211, 0.5611672401428223, -0.6746852993965149, -0.4444100558757782, -0.1799832284450531, 0.4333200752735138, -3.637620449066162, -1.1497275829315186, -24.63825225830078, 22.316593170166016, -102.68378448486328, -0.565673828125, 0.809814453125, 0.576904296875, 0, 
117, 1040387544, 0.559624195098877, -0.6714919209480286, -0.44853919744491577, -0.1863730400800705, 0.04808402806520462, -2.8344686031341553, -0.5709018111228943, -17.314579010009766, 25.73885154724121, -110.61632537841797, -0.58154296875, 0.802490234375, 0.572265625, 0, 
118, 1040395877, 0.5582495331764221, -0.6677745580673218, -0.4529629051685333, -0.19303391873836517, -0.43573519587516785, -2.185072898864746, 0.15669755637645721, -12.65544319152832, 28.366436004638672, -118.27218627929688, -0.591064453125, 0.791015625, 0.57470703125, 0, 
119, 1040404210, 0.5566636919975281, -0.6638528108596802, -0.4574439823627472, -0.20043247938156128, -0.9009580016136169, -2.0469419956207275, 0.44457271695137024, -17.4512939453125, 33.915672302246094, -126.25465393066406, -0.61083984375, 0.78125, 0.572509765625, 0, 
120, 1040412543, 0.5546046495437622, -0.659981906414032, -0.46176615357398987, -0.20883677899837494, -1.2574570178985596, -1.7761603593826294, 0.2742569148540497, -28.943527221679688, 41.20954513549805, -133.52793884277344, -0.626220703125, 0.762451171875, 0.571533203125, 0, 
121, 1040420876, 0.5524953007698059, -0.6557857394218445, -0.46619805693626404, -0.21761590242385864, -1.45796799659729, -1.3187037706375122, 0.3093968629837036, -28.975461959838867, 44.37815475463867, -139.55447387695312, -0.639892578125, 0.75146484375, 0.5712890625, 0, 
122, 1040429209, 0.5506383180618286, -0.6510193347930908, -0.47090601921081543, -0.22632262110710144, -1.4342705011367798, -1.1481469869613647, 0.3808978199958801, -21.084997177124023, 44.96153259277344, -144.43295288085938, -0.65966796875, 0.737548828125, 0.568359375, 0, 
123, 1040437542, 0.5488836765289307, -0.6458533406257629, -0.4757041335105896, -0.23517778515815735, -1.3784241676330566, -1.1816140413284302, 0.5680621266365051, -17.812679290771484, 47.505462646484375, -148.5988311767578, -0.6787109375, 0.720947265625, 0.564697265625, 0, 
124, 1040445875, 0.5470012426376343, -0.640545666217804, -0.4803244471549988, -0.2445039004087448, -1.4113904237747192, -1.1909235715866089, 0.7797983288764954, -21.547449111938477, 52.66256332397461, -151.94981384277344, -0.697509765625, 0.70947265625, 0.558837890625, 0, 
125, 1040454208, 0.5451464056968689, -0.6349432468414307, -0.4848579168319702, -0.25412246584892273, -1.3576014041900635, -1.1203370094299316, 0.8432832956314087, -21.298067092895508, 57.058685302734375, -155.20538330078125, -0.714111328125, 0.69189453125, 0.560302734375, 0, 
126, 1040462541, 0.5435077548027039, -0.6289082765579224, -0.48941174149513245, -0.2637284994125366, -1.3122210502624512, -1.2786978483200073, 0.7447296380996704, -16.024438858032227, 59.75679397583008, -157.4505615234375, -0.73486328125, 0.672119140625, 0.55615234375, 0, 
127, 1040470874, 0.5421110391616821, -0.6224404573440552, -0.4940043091773987, -0.27321481704711914, -1.1707574129104614, -1.5928441286087036, 0.749200701713562, -9.739192008972168, 61.6162223815918, -158.90158081054688, -0.7529296875, 0.658447265625, 0.548828125, 0, 
128, 1040479207, 0.5408821702003479, -0.6156185865402222, -0.4986157715320587, -0.2825700044631958, -0.8232976794242859, -1.6897218227386475, 0.7508738040924072, -4.712244987487793, 62.836055755615234, -159.88677978515625, -0.771728515625, 0.637939453125, 0.546142578125, 0, 
129, 1040487540, 0.5400339961051941, -0.608311653137207, -0.5032674670219421, -0.2916248142719269, -0.300121545791626, -1.5148727893829346, 0.7424999475479126, 4.343045234680176, 64.48023986816406, -159.81265258789062, -0.789794921875, 0.622802734375, 0.537841796875, 0, 
130, 1040495873, 0.5396840572357178, -0.6004812121391296, -0.5079061388969421, -0.30032965540885925, 0.14527221024036407, -1.343397855758667, 1.1160619258880615, 14.760066032409668, 67.20621490478516, -158.75686645507812, -0.8056640625, 0.6103515625, 0.53369140625, 0, 
131, 1040504206, 0.5396362543106079, -0.592435359954834, -0.5122517347335815, -0.3088915944099426, 0.4207627475261688, -1.379132866859436, 1.526681661605835, 18.641462326049805, 71.19286346435547, -155.50840759277344, -0.825439453125, 0.59521484375, 0.5244140625, 0, 
132, 1040512539, 0.5395760536193848, -0.5845600366592407, -0.5160078406333923, -0.31762588024139404, 0.4135793447494507, -1.5303066968917847, 1.4175225496292114, 13.558276176452637, 76.17023468017578, -150.86004638671875, -0.8388671875, 0.57470703125, 0.51416015625, 0, 
133, 1040520872, 0.5394443869590759, -0.5769311189651489, -0.5191061496734619, -0.3266223073005676, 0.29082027077674866, -1.9511338472366333, 0.9469596147537231, 6.419277667999268, 81.56070709228516, -146.05923461914062, -0.855224609375, 0.55712890625, 0.50439453125, 0, 
134, 1040529205, 0.5391764044761658, -0.5695716142654419, -0.5215179920196533, -0.3360043168067932, 0.21659207344055176, -2.4671974182128906, 0.04768957570195198, -2.494144916534424, 87.54255676269531, -142.18399047851562, -0.87646484375, 0.54345703125, 0.493896484375, 0, 
135, 1040537538, 0.5388458371162415, -0.5623401403427124, -0.5234051942825317, -0.345642626285553, 0.11375220865011215, -2.7299723625183105, -0.734626054763794, -8.192556381225586, 92.38343048095703, -139.32762145996094, -0.888671875, 0.527587890625, 0.48583984375, 0, 
136, 1040545871, 0.5388384461402893, -0.5548074245452881, -0.5252650380134583, -0.35488268733024597, 0.10285314917564392, -3.029301166534424, -0.8212933540344238, -0.7291523814201355, 93.28003692626953, -136.815185546875, -0.90478515625, 0.507568359375, 0.472412109375, 0, 
137, 1040554204, 0.5390218496322632, -0.5470861792564392, -0.5270020961761475, -0.3639013469219208, 0.1644519418478012, -3.6261539459228516, -1.035378336906433, 3.1281492710113525, 94.78350067138672, -134.65521240234375, -0.920166015625, 0.49658203125, 0.465576171875, 0, 
138, 1040562537, 0.5391802787780762, -0.5393608212471008, -0.5284578204154968, -0.372974693775177, 0.25076642632484436, -3.627046585083008, -1.277895212173462, 1.1624913215637207, 97.13504791259766, -133.11221313476562, -0.934326171875, 0.48095703125, 0.452880859375, 0, 
139, 1040570870, 0.5396221280097961, -0.5312602519989014, -0.5300467610359192, -0.38160717487335205, 0.29411083459854126, -3.5508742332458496, -0.7407455444335938, 9.930209159851074, 96.85112762451172, -132.09466552734375, -0.947509765625, 0.4609375, 0.43994140625, 0, 
140, 1040579203, 0.5403069257736206, -0.522810697555542, -0.5318986177444458, -0.3896467685699463, 0.3270193040370941, -3.6190435886383057, -0.47923192381858826, 19.999942779541016, 94.18167114257812, -130.8941650390625, -0.961181640625, 0.447021484375, 0.4287109375, 0, 
141, 1040587536, 0.5410077571868896, -0.5142708420753479, -0.5337927341461182, -0.3973717987537384, 0.47389134764671326, -3.836174964904785, -0.345824658870697, 23.319128036499023, 92.19429779052734, -129.4341278076172, -0.973876953125, 0.43212890625, 0.416259765625, 0, 
142, 1040595869, 0.5418310165405273, -0.5056179165840149, -0.5355609059333801, -0.404903769493103, 1.0973304510116577, -4.506986618041992, -0.18014366924762726, 25.74817657470703, 93.29374694824219, -127.27015686035156, -0.985595703125, 0.418701171875, 0.40283203125, 0, 
143, 1040604202, 0.5425307750701904, -0.4973527789115906, -0.5364068150520325, -0.41300275921821594, 2.0971953868865967, -5.478116035461426, -1.5710028409957886, 12.692380905151367, 101.03327941894531, -122.9159927368164, -0.996337890625, 0.402099609375, 0.39111328125, 0, 
144, 1040612535, 0.5428202152252197, -0.48970741033554077, -0.5364276766777039, -0.42164096236228943, 3.154845714569092, -5.130738735198975, -3.431018590927124, -3.404616594314575, 104.33721160888672, -119.05174255371094, -1.00927734375, 0.38330078125, 0.377197265625, 0, 
145, 1040620868, 0.5437829494476318, -0.48146718740463257, -0.5370100140571594, -0.42908376455307007, 4.481090545654297, -4.894335746765137, -3.0600767135620117, 17.638866424560547, 100.50578308105469, -114.40660858154297, -1.0205078125, 0.368896484375, 0.3623046875, 0, 
146, 1040629201, 0.5452142357826233, -0.47310566902160645, -0.5375010371208191, -0.4358992576599121, 5.595414638519287, -5.5581746101379395, -2.7249999046325684, 25.747804641723633, 101.21823120117188, -107.22807312011719, -1.034423828125, 0.35693359375, 0.346435546875, 0, 
147, 1040637534, 0.5466814637184143, -0.4650494158267975, -0.5374521613121033, -0.44273754954338074, 6.369980812072754, -5.793144226074219, -2.2967422008514404, 20.284523010253906, 103.8443603515625, -101.43739318847656, -1.042236328125, 0.344970703125, 0.33349609375, 0, 
148, 1040645867, 0.5482606887817383, -0.45731109380722046, -0.5365520119667053, -0.44987964630126953, 7.390989303588867, -6.457639694213867, -2.1996679306030273, 11.185335159301758, 111.0836181640625, -95.2236328125, -1.048828125, 0.331298828125, 0.317138671875, 0, 
149, 1040654200, 0.5495476126670837, -0.45031046867370605, -0.5343579053878784, -0.4579111933708191, 7.794575214385986, -6.0792670249938965, -3.5516533851623535, -10.786406517028809, 119.71479034423828, -90.18858337402344, -1.056396484375, 0.3173828125, 0.305419921875, 0, 
150, 1040662533, 0.5508238077163696, -0.44322875142097473, -0.5325687527656555, -0.4653118848800659, 7.953267574310303, -5.182474613189697, -3.0955867767333984, -3.050493001937866, 113.1769790649414, -88.56131744384766, -1.065185546875, 0.30517578125, 0.287353515625, 0, 
151, 1040670866, 0.5521564483642578, -0.4360825717449188, -0.5312708020210266, -0.47192126512527466, 8.593514442443848, -5.2629804611206055, -1.7358667850494385, 6.713523864746094, 105.46656799316406, -85.71422576904297, -1.073486328125, 0.294189453125, 0.27197265625, 0, 
152, 1040679199, 0.5528424978256226, -0.42990800738334656, -0.5292856693267822, -0.478961318731308, 9.078694343566895, -4.793988227844238, -1.3512803316116333, -12.140679359436035, 102.23151397705078, -81.91783905029297, -1.078125, 0.28466796875, 0.258056640625, 0, 
153, 1040687532, 0.5528424978256226, -0.42478492856025696, -0.5267524123191833, -0.4862690567970276, 9.914911270141602, -3.9643073081970215, -1.2764999866485596, -29.748933792114258, 96.07139587402344, -77.63166046142578, -1.084716796875, 0.270263671875, 0.24462890625, 0, 
154, 1040695865, 0.5526642203330994, -0.42015019059181213, -0.524167001247406, -0.4932423532009125, 11.224778175354004, -3.688969373703003, -0.8450731635093689, -32.43075942993164, 89.94741821289062, -72.38513946533203, -1.09423828125, 0.259521484375, 0.2294921875, 0, 
155, 1040704198, 0.5524516701698303, -0.41602852940559387, -0.5211057662963867, -0.5001692175865173, 12.351397514343262, -4.094743251800537, -0.576990008354187, -39.421058654785156, 89.58245086669922, -65.8787612915039, -1.095947265625, 0.250244140625, 0.218505859375, 0, 
156, 1040712531, 0.5521234273910522, -0.41277313232421875, -0.516954779624939, -0.5074828267097473, 13.817459106445312, -4.989602088928223, -0.5721682906150818, -56.92892837524414, 93.27106475830078, -57.1095085144043, -1.098388671875, 0.23681640625, 0.207275390625, 0, 
157, 1040720864, 0.5517973303794861, -0.41045987606048584, -0.511451244354248, -0.5152309536933899, 14.946353912353516, -5.950284004211426, -0.8842167854309082, -76.60112762451172, 99.46839904785156, -46.087890625, -1.1044921875, 0.227783203125, 0.194580078125, 0, 
158, 1040729197, 0.5512559413909912, -0.40904995799064636, -0.5053108930587769, -0.5229330062866211, 14.332242965698242, -5.353650093078613, -1.3372673988342285, -88.85728454589844, 96.1064224243164, -37.24558639526367, -1.10205078125, 0.22119140625, 0.185791015625, 0, 
159, 1040737530, 0.5505874156951904, -0.4080827832221985, -0.5002958178520203, -0.529177725315094, 13.55109977722168, -4.063978672027588, -0.7357361912727356, -74.70792388916016, 75.33564758300781, -30.447057723999023, -1.105224609375, 0.215087890625, 0.175537109375, 0, 
160, 1040745863, 0.5497961640357971, -0.4075007736682892, -0.49674391746520996, -0.5337751507759094, 13.534897804260254, -3.5742342472076416, 0.6537429690361023, -56.33369445800781, 51.34122848510742, -24.346940994262695, -1.113037109375, 0.2099609375, 0.16162109375, 0, 
161, 1040754196, 0.5490875244140625, -0.40737879276275635, -0.4934961199760437, -0.537596583366394, 13.915200233459473, -4.115018844604492, 1.5322222709655762, -51.81145095825195, 41.91265106201172, -16.52766990661621, -1.115478515625, 0.206787109375, 0.15966796875, 0, 
162, 1040762529, 0.5484778881072998, -0.40790143609046936, -0.4898619055747986, -0.5411348342895508, 14.51098346710205, -4.683664798736572, 1.561255931854248, -57.0626220703125, 39.11686325073242, -7.0262064933776855, -1.11767578125, 0.206787109375, 0.15185546875, 0, 
163, 1040770862, 0.5481284260749817, -0.4090195298194885, -0.48605668544769287, -0.5440681576728821, 14.960124015808105, -5.181910037994385, 1.127478003501892, -57.28843688964844, 34.37296676635742, 4.343179702758789, -1.115478515625, 0.20361328125, 0.14990234375, 0, 
164, 1040779195, 0.5479278564453125, -0.4107397198677063, -0.48256367444992065, -0.5460798740386963, 15.402256965637207, -5.073667526245117, 0.46166762709617615, -52.49658966064453, 23.28739356994629, 14.770661354064941, -1.113525390625, 0.204345703125, 0.146240234375, 0, 
165, 1040787528, 0.5479785203933716, -0.41281774640083313, -0.48025766015052795, -0.5464948415756226, 16.165807723999023, -3.6039202213287354, -0.12376369535923004, -34.261539459228516, 4.34958553314209, 24.249521255493164, -1.112548828125, 0.207763671875, 0.1494140625, 0, 
166, 1040795861, 0.5483517646789551, -0.4151487648487091, -0.4794580340385437, -0.5450548529624939, 16.572795867919922, -1.4363665580749512, 0.2794398069381714, -10.768264770507812, -17.34646987915039, 33.88167190551758, -1.11474609375, 0.212890625, 0.14990234375, 0, 
167, 1040804194, 0.5490099787712097, -0.4178667366504669, -0.4796055555343628, -0.5421779155731201, 16.615154266357422, 0.41003674268722534, 1.214333176612854, 4.519452095031738, -33.66444396972656, 43.876853942871094, -1.1123046875, 0.21875, 0.15673828125, 0, 
168, 1040812527, 0.5499588251113892, -0.42101413011550903, -0.47997793555259705, -0.5384390354156494, 16.462078094482422, 1.845546841621399, 1.89385986328125, 10.302844047546387, -41.649017333984375, 54.21071243286133, -1.11083984375, 0.224853515625, 0.16064453125, 0, 
169, 1040820860, 0.551163911819458, -0.42482420802116394, -0.4800274968147278, -0.5341528654098511, 16.589706420898438, 2.7798941135406494, 2.5462634563446045, 8.0031099319458, -45.539772033691406, 66.36929321289062, -1.10498046875, 0.240234375, 0.164794921875, 0, 
170, 1040829193, 0.5525041818618774, -0.42963701486587524, -0.4792095124721527, -0.5296341776847839, 16.711210250854492, 3.466479539871216, 3.0488553047180176, -3.650505304336548, -46.84804153442383, 80.93305206298828, -1.102783203125, 0.246337890625, 0.173583984375, 0, 
171, 1040837526, 0.553843080997467, -0.4356496036052704, -0.4773017168045044, -0.5250269174575806, 16.3194580078125, 3.6897647380828857, 3.2261385917663574, -20.126632690429688, -47.78514862060547, 95.8216552734375, -1.1025390625, 0.265380859375, 0.18017578125, 0, 
172, 1040845859, 0.5551314949989319, -0.4426577091217041, -0.4745950996875763, -0.5202361345291138, 15.542612075805664, 3.3530848026275635, 3.2374255657196045, -32.576904296875, -50.373836517333984, 108.29509735107422, -1.095703125, 0.277587890625, 0.1865234375, 0, 
173, 1040854192, 0.5564609169960022, -0.45044606924057007, -0.4715498089790344, -0.5148722529411316, 14.95872688293457, 2.7236461639404297, 3.407198905944824, -36.964134216308594, -56.53609085083008, 120.0035400390625, -1.09228515625, 0.296142578125, 0.1943359375, 0, 
174, 1040862525, 0.557885468006134, -0.45893412828445435, -0.46840038895606995, -0.5086723566055298, 14.809828758239746, 2.326296329498291, 3.4790456295013428, -37.047019958496094, -65.31027221679688, 132.37271118164062, -1.082275390625, 0.31103515625, 0.2080078125, 0, 
175, 1040870858, 0.5593042373657227, -0.4681755304336548, -0.46534428000450134, -0.5014460682868958, 14.963830947875977, 2.318796396255493, 3.5508546829223633, -35.5972785949707, -77.75761413574219, 144.36090087890625, -1.078369140625, 0.334228515625, 0.2177734375, 0, 
176, 1040879191, 0.5606340169906616, -0.4781564772129059, -0.4624757170677185, -0.4931279122829437, 15.361157417297363, 2.8561928272247314, 3.0553853511810303, -33.57870101928711, -91.9551773071289, 155.78103637695312, -1.065673828125, 0.352294921875, 0.23291015625, 0, 
177, 1040887524, 0.5623140335083008, -0.4883759021759033, -0.45978742837905884, -0.483622282743454, 15.95438289642334, 3.1721811294555664, 2.832655906677246, -24.33965492248535, -100.4886474609375, 167.54005432128906, -1.058837890625, 0.376953125, 0.247314453125, 0, 
178, 1040895857, 0.5649502277374268, -0.49826347827911377, -0.45744630694389343, -0.4725576341152191, 16.32781410217285, 3.102998733520508, 3.5956993103027344, -3.186253309249878, -105.4453353881836, 181.6286163330078, -1.04736328125, 0.401611328125, 0.263671875, 0, 
179, 1040904190, 0.5679826140403748, -0.5087102651596069, -0.4542293846607208, -0.46074748039245605, 16.357633590698242, 2.126490354537964, 4.616009712219238, -5.815228462219238, -104.83949279785156, 199.42303466796875, -1.033935546875, 0.42919921875, 0.276611328125, 0, 
180, 1040912523, 0.5699828267097473, -0.5211889743804932, -0.4486462473869324, -0.449667751789093, 16.22394561767578, 1.07289457321167, 3.925037145614624, -48.466156005859375, -100.62245178222656, 216.51739501953125, -1.016845703125, 0.455078125, 0.29052734375, 0, 
181, 1040920856, 0.57099848985672, -0.5350053906440735, -0.4417257606983185, -0.4388749599456787, 16.044588088989258, 0.6754149198532104, 1.67556893825531, -76.04924774169922, -102.383544921875, 225.93798828125, -0.999267578125, 0.48291015625, 0.310546875, 0, 
182, 1040929189, 0.5723624229431152, -0.5480884909629822, -0.43567949533462524, -0.4268333315849304, 15.799022674560547, 0.18029911816120148, 0.6210548877716064, -54.8663215637207, -111.94200134277344, 227.0421142578125, -0.982421875, 0.5107421875, 0.330078125, 0, 
183, 1040937522, 0.5744003653526306, -0.5599467754364014, -0.4309089183807373, -0.4133332371711731, 15.652484893798828, -0.6972581148147583, 1.4116616249084473, -23.915128707885742, -121.70390319824219, 225.44837951660156, -0.9638671875, 0.5400390625, 0.34619140625, 0, 
184, 1040945855, 0.5757380127906799, -0.5720820426940918, -0.42580318450927734, -0.3999282419681549, 15.409623146057129, -0.5873447060585022, 1.2747650146484375, -33.96743392944336, -124.09273529052734, 225.01564025878906, -0.940673828125, 0.563720703125, 0.361572265625, 0, 
185, 1040954188, 0.5773453712463379, -0.5835305452346802, -0.4209555983543396, -0.38595840334892273, 16.029436111450195, -0.37206315994262695, 0.9905570149421692, -21.678625106811523, -125.18104553222656, 224.84988403320312, -0.916259765625, 0.59228515625, 0.382568359375, 0, 
186, 1040962521, 0.5805949568748474, -0.5928531885147095, -0.4172595739364624, -0.37058353424072266, 16.5589599609375, -1.8954508304595947, 3.2400615215301514, 22.624509811401367, -124.85163879394531, 223.2432403564453, -0.89208984375, 0.62060546875, 0.39453125, 0, 
187, 1040970854, 0.5832035541534424, -0.6023964285850525, -0.41270148754119873, -0.3559112846851349, 15.479394912719727, -3.525364637374878, 3.1804141998291016, 7.213024616241455, -117.00044250488281, 222.6002655029297, -0.866943359375, 0.64501953125, 0.405517578125, 0, 
188, 1040979187, 0.5846377611160278, -0.6125203967094421, -0.40758228302001953, -0.341902494430542, 14.438437461853027, -3.455796003341675, -0.27427804470062256, -13.68679141998291, -116.55343627929688, 219.53451538085938, -0.842529296875, 0.67138671875, 0.42138671875, 0, 
189, 1040987520, 0.5873119235038757, -0.6205391883850098, -0.4043174982070923, -0.3263832628726959, 14.921496391296387, -2.8327488899230957, -1.0962300300598145, 30.87175178527832, -127.30683135986328, 210.0353240966797, -0.815673828125, 0.693603515625, 0.43603515625, 0, 
190, 1040995853, 0.5917555093765259, -0.6260886192321777, -0.40272456407546997, -0.3092803359031677, 16.300472259521484, -2.4021124839782715, 1.337037205696106, 82.22361755371094, -133.4337921142578, 202.8247833251953, -0.79150390625, 0.72119140625, 0.440185546875, 0, 
191, 1041004186, 0.5966522097587585, -0.6307927966117859, -0.40102919936180115, -0.2920362651348114, 17.470458984375, -2.3648953437805176, 3.68215012550354, 93.351806640625, -127.6818618774414, 202.05447387695312, -0.76318359375, 0.74609375, 0.449462890625, 0, 
192, 1041012519, 0.6004132628440857, -0.6363506317138672, -0.3979693055152893, -0.2760167717933655, 17.86627197265625, -1.8275201320648193, 2.901667356491089, 64.2593002319336, -115.58163452148438, 204.0361328125, -0.734130859375, 0.771484375, 0.444091796875, 0, 
193, 1041020852, 0.6028652191162109, -0.642822265625, -0.39387398958206177, -0.2611500918865204, 17.559162139892578, -0.8258893489837646, 0.6074358224868774, 35.01982879638672, -107.55667877197266, 203.57369995117188, -0.707275390625, 0.793212890625, 0.452880859375, 0, 
194, 1041029185, 0.6053906083106995, -0.6486867666244507, -0.3899903893470764, -0.246208056807518, 17.192659378051758, -1.0024967193603516, 0.5722315311431885, 41.869361877441406, -107.41996765136719, 199.33755493164062, -0.67919921875, 0.810546875, 0.462646484375, 0, 
195, 1041037518, 0.6079395413398743, -0.6541678309440613, -0.3856617212295532, -0.2318234145641327, 16.461971282958984, -3.0325980186462402, 1.3642349243164062, 40.77878952026367, -97.30835723876953, 196.67076110839844, -0.652587890625, 0.833251953125, 0.46435546875, 0, 
196, 1041045851, 0.609810471534729, -0.6600006818771362, -0.3803812861442566, -0.21873195469379425, 15.329665184020996, -4.782273292541504, 0.8267199993133545, 21.840213775634766, -82.4449234008789, 194.14474487304688, -0.6220703125, 0.85205078125, 0.468505859375, 0, 
197, 1041054184, 0.610671877861023, -0.6664353609085083, -0.3744165599346161, -0.20678292214870453, 14.415937423706055, -6.288926601409912, -0.19476613402366638, -0.4011080861091614, -73.42453002929688, 190.88006591796875, -0.5966796875, 0.86572265625, 0.47314453125, 0, 
198, 1041062517, 0.6102544069290161, -0.6736000180244446, -0.36817336082458496, -0.19571459293365479, 13.717865943908691, -7.878883361816406, -1.1855716705322266, -23.579944610595703, -71.67772674560547, 186.1638946533203, -0.569580078125, 0.877197265625, 0.4814453125, 0, 
199, 1041070850, 0.6099362373352051, -0.6801271438598633, -0.36264097690582275, -0.1841174066066742, 14.091286659240723, -8.311326026916504, -2.8757336139678955, -12.720406532287598, -80.32363891601562, 181.06298828125, -0.544189453125, 0.890869140625, 0.48681640625, 0, 
200, 1041079183, 0.6103377342224121, -0.6854435205459595, -0.3581787347793579, -0.17136451601982117, 15.017596244812012, -7.739999294281006, -3.666616201400757, 12.64046859741211, -93.45380401611328, 176.5251007080078, -0.51806640625, 0.89990234375, 0.493408203125, 0, 
201, 1041087516, 0.6116833686828613, -0.6894239783287048, -0.35453248023986816, -0.157631054520607, 16.01213264465332, -7.255548000335693, -2.446392297744751, 39.508506774902344, -101.75349426269531, 172.7220916748047, -0.486572265625, 0.912353515625, 0.497802734375, 0, 
202, 1041095849, 0.6136379241943359, -0.692538857460022, -0.3509647250175476, -0.14375324547290802, 16.274221420288086, -6.735687732696533, -0.47595179080963135, 53.4345817565918, -98.93013763427734, 170.27757263183594, -0.460205078125, 0.924560546875, 0.495361328125, 0, 
203, 1041104182, 0.6153466701507568, -0.6956591606140137, -0.34675395488739014, -0.13104020059108734, 15.5503511428833, -6.037747859954834, 0.6289693117141724, 44.15503692626953, -83.61602020263672, 166.1381378173828, -0.433837890625, 0.937255859375, 0.494873046875, 0, 
204, 1041112515, 0.6160404086112976, -0.6994039416313171, -0.3418670892715454, -0.12024221569299698, 14.110493659973145, -5.734177112579346, 0.8770409822463989, 18.811542510986328, -65.53038787841797, 157.52301025390625, -0.409423828125, 0.945556640625, 0.496337890625, 0, 
205, 1041120848, 0.615496814250946, -0.7038447856903076, -0.3367246091365814, -0.11129169911146164, 12.815049171447754, -6.291818618774414, 0.7784753441810608, -8.097881317138672, -52.58122253417969, 145.59617614746094, -0.387939453125, 0.95361328125, 0.49853515625, 0, 
206, 1041129181, 0.6139189600944519, -0.7087205648422241, -0.33166444301605225, -0.10402192920446396, 12.176462173461914, -7.593842506408691, -0.18832094967365265, -29.445533752441406, -42.44810485839844, 130.9636688232422, -0.36376953125, 0.95947265625, 0.504150390625, 0, 
207, 1041137514, 0.6112563610076904, -0.7140554189682007, -0.32695329189300537, -0.09795425087213516, 12.093963623046875, -8.670915603637695, -1.619411826133728, -48.877166748046875, -39.30763626098633, 118.00749969482422, -0.3515625, 0.9599609375, 0.50927734375, 0, 
208, 1041145847, 0.6084181070327759, -0.7190830707550049, -0.3229997158050537, -0.09176662564277649, 12.494863510131836, -9.766021728515625, -2.847008466720581, -46.457027435302734, -47.20499801635742, 109.90623474121094, -0.331787109375, 0.959716796875, 0.522216796875, 0, 
209, 1041154180, 0.606124758720398, -0.7232286334037781, -0.31980013847351074, -0.08534514904022217, 12.353890419006348, -10.64809513092041, -2.665576934814453, -31.70205307006836, -52.32540512084961, 101.23888397216797, -0.313232421875, 0.957763671875, 0.5244140625, 0, 
210, 1041162513, 0.6040987372398376, -0.7267676591873169, -0.317221462726593, -0.07903830707073212, 11.949636459350586, -10.754372596740723, -2.8500990867614746, -23.76052474975586, -54.438987731933594, 91.69161987304688, -0.298095703125, 0.9599609375, 0.529541015625, 0, 
211, 1041170846, 0.6023572087287903, -0.7297884225845337, -0.3150087594985962, -0.07312353700399399, 11.792226791381836, -10.945964813232422, -2.5960617065429688, -17.929401397705078, -51.794578552246094, 82.89645385742188, -0.286865234375, 0.95947265625, 0.533447265625, 0, 
212, 1041179179, 0.600202739238739, -0.7329308986663818, -0.31295245885849, -0.06806319952011108, 11.388822555541992, -10.941671371459961, -2.0118906497955322, -26.621631622314453, -46.38936233520508, 74.29017639160156, -0.27197265625, 0.959716796875, 0.537109375, 0, 
213, 1041187512, 0.5976595878601074, -0.7361685633659363, -0.31104326248168945, -0.06413955986499786, 10.719328880310059, -10.87685775756836, -2.542182207107544, -36.08037567138672, -37.948333740234375, 63.55015563964844, -0.258056640625, 0.9638671875, 0.542724609375, 0, 
214, 1041195845, 0.5952650904655457, -0.7390357255935669, -0.3094387352466583, -0.06112547963857651, 9.920674324035645, -11.296992301940918, -3.3278069496154785, -35.15083694458008, -30.24090576171875, 51.4584846496582, -0.25048828125, 0.958251953125, 0.550537109375, 0, 
215, 1041204178, 0.5926951169967651, -0.7417246699333191, -0.30836859345436096, -0.05889642983675003, 8.845333099365234, -11.95443344116211, -4.150832653045654, -38.369815826416016, -27.28148078918457, 38.780094146728516, -0.24267578125, 0.955810546875, 0.55810546875, 0, 
216, 1041212511, 0.5902959704399109, -0.7439495325088501, -0.3079149127006531, -0.05728251114487648, 8.172564506530762, -12.21539306640625, -4.490220546722412, -34.950496673583984, -24.884950637817383, 25.5642032623291, -0.239501953125, 0.95263671875, 0.560791015625, 0, 
217, 1041220844, 0.5886519551277161, -0.7452396750450134, -0.3081618845462799, -0.05608884245157242, 7.460406303405762, -12.174922943115234, -4.032498359680176, -20.868576049804688, -22.390012741088867, 11.711698532104492, -0.23583984375, 0.9501953125, 0.565185546875, 0, 
218, 1041229177, 0.5871151685714722, -0.7461051344871521, -0.3090830147266388, -0.05562110245227814, 6.362137794494629, -11.988421440124512, -3.829545736312866, -18.884307861328125, -19.574844360351562, -2.8808088302612305, -0.2314453125, 0.948486328125, 0.570556640625, 0, 
219, 1041237510, 0.5856265425682068, -0.7465921640396118, -0.31061577796936035, -0.05623690411448479, 5.156474590301514, -11.731217384338379, -3.812631607055664, -19.475847244262695, -12.949464797973633, -19.383712768554688, -0.234619140625, 0.947998046875, 0.572021484375, 0, 
220, 1041245843, 0.5844215750694275, -0.746483325958252, -0.31284454464912415, -0.05784047394990921, 4.075042247772217, -11.597103118896484, -3.266746997833252, -15.443100929260254, -6.693034648895264, -36.902015686035156, -0.23779296875, 0.94287109375, 0.574462890625, 0, 
221, 1041254176, 0.5832893252372742, -0.7458988428115845, -0.3158601224422455, -0.060362156480550766, 3.1096997261047363, -11.286623001098633, -3.3413267135620117, -14.201440811157227, -2.952714681625366, -54.25537109375, -0.244140625, 0.942138671875, 0.574462890625, 0, 
222, 1041262509, 0.5821031928062439, -0.7449356317520142, -0.319622278213501, -0.06380565464496613, 2.3911492824554443, -10.901659965515137, -4.151976108551025, -15.096484184265137, 0.6454176306724548, -71.08699798583984, -0.25634765625, 0.93701171875, 0.572998046875, 0, 
223, 1041270842, 0.5809009671211243, -0.7436371445655823, -0.32390207052230835, -0.06817688792943954, 2.376068115234375, -10.0579833984375, -4.707836627960205, -16.2077693939209, 6.18035888671875, -85.21815490722656, -0.26123046875, 0.931640625, 0.578369140625, 0, 
224, 1041279175, 0.579984724521637, -0.7418639659881592, -0.3284952640533447, -0.07313850522041321, 2.427476406097412, -9.096794128417969, -4.470016002655029, -11.81960678100586, 11.483481407165527, -95.0719985961914, -0.27490234375, 0.9306640625, 0.57958984375, 0, 
225, 1041287508, 0.5790871977806091, -0.7398167848587036, -0.33332371711730957, -0.07891198992729187, 1.9181281328201294, -8.100205421447754, -4.425991535186768, -12.878711700439453, 18.199443817138672, -105.08634948730469, -0.290283203125, 0.929443359375, 0.580322265625, 0, 
226, 1041295841, 0.5782370567321777, -0.7374106645584106, -0.3384118676185608, -0.08571919798851013, 1.0800989866256714, -7.276857852935791, -4.221354007720947, -13.990933418273926, 27.305606842041016, -117.63462829589844, -0.30810546875, 0.92236328125, 0.5830078125, 0, 
227, 1041304174, 0.5774549245834351, -0.7345508933067322, -0.3438175618648529, -0.09366599470376968, 0.3304121792316437, -6.609792709350586, -3.7209153175354004, -14.623309135437012, 37.14091491699219, -131.87232971191406, -0.32470703125, 0.9140625, 0.58349609375, 0, 
228, 1041312507, 0.5764638185501099, -0.7314072251319885, -0.349541038274765, -0.10274723917245865, 0.11172015219926834, -5.696345806121826, -3.6647233963012695, -19.434951782226562, 45.5023193359375, -145.77857971191406, -0.345703125, 0.905517578125, 0.582275390625, 0, 
229, 1041320840, 0.5754937529563904, -0.7277347445487976, -0.35559362173080444, -0.11298404633998871, -0.032004568725824356, -4.8603973388671875, -3.504873514175415, -20.119041442871094, 55.320194244384766, -160.6935577392578, -0.371337890625, 0.899169921875, 0.581787109375, 0, 
230, 1041329173, 0.574817955493927, -0.723291277885437, -0.3619605302810669, -0.12418462336063385, -0.1590583622455597, -4.5632004737854, -3.260714054107666, -15.299574851989746, 65.15797424316406, -174.84970092773438, -0.39404296875, 0.88916015625, 0.58056640625, 0, 
231, 1041337506, 0.574282705783844, -0.7182333469390869, -0.3685433566570282, -0.1360834836959839, -0.4972998797893524, -3.943876266479492, -2.659627914428711, -12.148948669433594, 72.11654663085938, -185.27017211914062, -0.421630859375, 0.878173828125, 0.577392578125, 0, 
232, 1041345839, 0.5737144947052002, -0.7127454876899719, -0.3752500116825104, -0.14844460785388947, -0.7751059532165527, -3.0961780548095703, -1.8257417678833008, -11.193869590759277, 76.37210083007812, -192.45091247558594, -0.448486328125, 0.865478515625, 0.576904296875, 0, 
233, 1041354172, 0.5730970501899719, -0.7068740129470825, -0.3818874955177307, -0.16141197085380554, -1.0502303838729858, -2.6143851280212402, -1.457810878753662, -11.909185409545898, 83.35478210449219, -198.57913208007812, -0.483642578125, 0.852294921875, 0.570068359375, 0, 
234, 1041362505, 0.5723922252655029, -0.7006127238273621, -0.3885209560394287, -0.1748240888118744, -1.35579514503479, -2.107740640640259, -1.0392439365386963, -12.038191795349121, 88.15196990966797, -204.3448028564453, -0.5107421875, 0.837158203125, 0.5673828125, 0, 
235, 1041370838, 0.5716901421546936, -0.6938980221748352, -0.3952043652534485, -0.1883944571018219, -1.5764639377593994, -1.5747363567352295, -0.34860989451408386, -9.164165496826172, 90.36012268066406, -208.43283081054688, -0.541259765625, 0.82470703125, 0.55908203125, 0, 
236, 1041379171, 0.5710508823394775, -0.6867420673370361, -0.40185922384262085, -0.2019864022731781, -1.9279507398605347, -1.3138973712921143, 0.26824551820755005, -5.292198657989502, 92.30300903320312, -210.62083435058594, -0.567626953125, 0.8095703125, 0.556396484375, 0, 
237, 1041387504, 0.5705530047416687, -0.6791308522224426, -0.4085084795951843, -0.21534740924835205, -2.3063580989837646, -1.4990065097808838, 0.9005383253097534, 0.8843085765838623, 92.18678283691406, -210.82830810546875, -0.600830078125, 0.7890625, 0.545654296875, 0, 
238, 1041395837, 0.5701637268066406, -0.6711555123329163, -0.4150705933570862, -0.22843633592128754, -2.711963415145874, -1.6673038005828857, 1.507578730583191, 6.018764972686768, 92.04171752929688, -209.65359497070312, -0.628662109375, 0.775146484375, 0.541259765625, 0, 
239, 1041404170, 0.5697884559631348, -0.6629260778427124, -0.4215497374534607, -0.24118179082870483, -3.074575901031494, -1.7215803861618042, 1.6435191631317139, 9.857251167297363, 90.37400817871094, -207.5558319091797, -0.65869140625, 0.75830078125, 0.530029296875, 0, 
240, 1041412503, 0.5696917772293091, -0.6542091965675354, -0.42813393473625183, -0.2533096373081207, -3.4842071533203125, -1.4611566066741943, 2.0118019580841064, 20.131385803222656, 87.17937469482422, -205.62008666992188, -0.686279296875, 0.74072265625, 0.521728515625, 0, 
241, 1041420836, 0.5698818564414978, -0.6449984312057495, -0.43495050072669983, -0.26463645696640015, -3.834367036819458, -1.3797563314437866, 2.395348310470581, 32.10625457763672, 81.53514862060547, -203.3044891357422, -0.711669921875, 0.723388671875, 0.50927734375, 0, 
242, 1041429169, 0.5700681805610657, -0.6356899738311768, -0.44178715348243713, -0.2752223014831543, -4.237141132354736, -1.5167882442474365, 2.3495583534240723, 37.34304428100586, 75.16272735595703, -198.31251525878906, -0.735595703125, 0.707763671875, 0.50048828125, 0, 
243, 1041437502, 0.5700527429580688, -0.6265895366668701, -0.44843220710754395, -0.2851964235305786, -4.646666526794434, -1.4696451425552368, 2.086641550064087, 36.938053131103516, 69.2787094116211, -191.30625915527344, -0.756591796875, 0.689208984375, 0.488037109375, 0, 
244, 1041445835, 0.5699591040611267, -0.6175564527511597, -0.4550139904022217, -0.2945099174976349, -4.924868106842041, -1.1488038301467896, 1.563680648803711, 39.56377029418945, 63.36113357543945, -185.50852966308594, -0.77880859375, 0.671630859375, 0.479736328125, 0, 
245, 1041454168, 0.5698983669281006, -0.6084189414978027, -0.4617002308368683, -0.30311429500579834, -5.014398097991943, -0.6349776387214661, 1.242905616760254, 45.52265167236328, 57.12111282348633, -181.32907104492188, -0.800537109375, 0.656494140625, 0.4716796875, 0, 
246, 1041462501, 0.5698312520980835, -0.5992119908332825, -0.4684631824493408, -0.3110991418361664, -4.9188127517700195, -0.0788324773311615, 1.1817530393600464, 50.2647590637207, 51.61249923706055, -177.60971069335938, -0.81787109375, 0.642578125, 0.461669921875, 0, 
247, 1041470834, 0.5695661902427673, -0.5901656150817871, -0.4751211702823639, -0.3186877369880676, -4.59039831161499, 0.0627906396985054, 1.2595046758651733, 49.47026824951172, 47.17906188964844, -173.43113708496094, -0.834716796875, 0.622802734375, 0.449951171875, 0, 
248, 1041479167, 0.5686656832695007, -0.5817627310752869, -0.481291800737381, -0.3263935446739197, -4.289565563201904, 0.2176370918750763, 1.0301570892333984, 36.38090133666992, 45.005123138427734, -168.99484252929688, -0.849853515625, 0.612060546875, 0.441650390625, 0, 
249, 1041487500, 0.567288875579834, -0.5738919973373413, -0.48716646432876587, -0.333920419216156, -3.8995728492736816, 0.4441486597061157, 0.771338701248169, 28.263385772705078, 40.315555572509766, -163.82591247558594, -0.867919921875, 0.59228515625, 0.435546875, 0, 
250, 1041495833, 0.5655760169029236, -0.5664029717445374, -0.492898553609848, -0.3411232829093933, -3.3095510005950928, 0.2724725008010864, 0.5211554169654846, 24.14917755126953, 34.89919662475586, -159.17567443847656, -0.882568359375, 0.57421875, 0.4306640625, 0, 
251, 1041504166, 0.5635057687759399, -0.5593196153640747, -0.4982892572879791, -0.3483295738697052, -2.6670517921447754, -0.3652029037475586, 0.21092098951339722, 16.585140228271484, 33.22270584106445, -155.45529174804688, -0.8935546875, 0.5546875, 0.425537109375, 0, 
252, 1041512499, 0.5612941980361938, -0.5524691939353943, -0.5032275915145874, -0.3556564152240753, -2.128593921661377, -1.3102842569351196, 0.06546980887651443, 10.702177047729492, 35.602081298828125, -152.00521850585938, -0.90625, 0.541748046875, 0.42041015625, 0, 
253, 1041520832, 0.5587995648384094, -0.5460503697395325, -0.507550060749054, -0.36327412724494934, -1.7392061948776245, -1.9757046699523926, -0.41713351011276245, 0.19394217431545258, 38.4669303894043, -147.9552001953125, -0.91748046875, 0.523681640625, 0.417236328125, 0, 
254, 1041529165, 0.5563515424728394, -0.5397622585296631, -0.511681854724884, -0.3705596625804901, -1.1913625001907349, -2.5415749549865723, -0.9462910294532776, 0.9063898324966431, 37.13954544067383, -142.838623046875, -0.93310546875, 0.5029296875, 0.41357421875, 0, 
255, 1041537498, 0.5545135140419006, -0.5331382751464844, -0.515889048576355, -0.37701430916786194, -0.628292977809906, -3.5769729614257812, -1.0375045537948608, 14.233760833740234, 36.368309020996094, -136.2891082763672, -0.939453125, 0.488525390625, 0.407958984375, 0, 
256, 1041545831, 0.5527681708335876, -0.5268075466156006, -0.5195720195770264, -0.38336533308029175, -0.1743132472038269, -4.101129531860352, -1.5908591747283936, 10.695178031921387, 38.7741813659668, -129.10116577148438, -0.953125, 0.4736328125, 0.403564453125, 0, 
257, 1041554164, 0.5511078238487244, -0.5207233428955078, -0.5230132937431335, -0.38934215903282166, 0.3718322217464447, -3.965616226196289, -1.4930355548858643, 10.840243339538574, 37.17815399169922, -122.29483795166016, -0.964599609375, 0.45849609375, 0.3984375, 0, 
258, 1041562497, 0.5503093004226685, -0.5140538811683655, -0.5268040895462036, -0.3941936194896698, 1.04764723777771, -4.410360813140869, -0.820697009563446, 31.406620025634766, 35.832923889160156, -115.86551666259766, -0.971435546875, 0.442626953125, 0.395751953125, 0, 
259, 1041570830, 0.5499535202980042, -0.5073106288909912, -0.530295729637146, -0.39871859550476074, 1.416883945465088, -5.090034008026123, -1.003172516822815, 35.840049743652344, 39.37321853637695, -109.42069244384766, -0.978515625, 0.431640625, 0.388671875, 0, 
260, 1041579163, 0.5498234629631042, -0.5006837248802185, -0.5333022475242615, -0.40323886275291443, 1.8623512983322144, -5.787939071655273, -1.3807969093322754, 33.909114837646484, 44.039127349853516, -103.90794372558594, -0.9912109375, 0.423828125, 0.383056640625, 0, 
261, 1041587496, 0.549559473991394, -0.4945637285709381, -0.535571813583374, -0.40811383724212646, 2.139777421951294, -5.989638328552246, -2.3198413848876953, 22.46732521057129, 48.23906707763672, -98.55548858642578, -0.99609375, 0.409423828125, 0.374267578125, 0, 
262, 1041595829, 0.5493857264518738, -0.48840343952178955, -0.5380358695983887, -0.41250208020210266, 2.4500014781951904, -5.092336654663086, -2.7646944522857666, 28.061140060424805, 44.37099075317383, -95.97598266601562, -1.003173828125, 0.399169921875, 0.36865234375, 0, 
263, 1041604162, 0.5501643419265747, -0.48126745223999023, -0.541451096534729, -0.4153730571269989, 3.2294363975524902, -5.62213134765625, -1.7908260822296143, 58.44786834716797, 39.55714416503906, -92.74520874023438, -1.01171875, 0.387939453125, 0.361328125, 0, 
264, 1041612495, 0.5507634282112122, -0.47478169202804565, -0.5437191724777222, -0.4190640151500702, 4.011119842529297, -6.529989719390869, -2.2103614807128906, 39.68361282348633, 48.63216018676758, -87.5136947631836, -1.02197265625, 0.380615234375, 0.35205078125, 0, 
265, 1041620828, 0.5505362153053284, -0.46944674849510193, -0.5446556210517883, -0.42412588000297546, 4.778491020202637, -5.90678596496582, -2.643988609313965, 7.645970821380615, 54.84403991699219, -85.39532470703125, -1.0234375, 0.368896484375, 0.34375, 0, 
266, 1041629161, 0.5505707859992981, -0.4640524983406067, -0.5455390214920044, -0.428855836391449, 6.248133182525635, -6.485421180725098, -2.481417179107666, 11.964205741882324, 55.42192840576172, -81.42176055908203, -1.0341796875, 0.360107421875, 0.338134765625, 0, 
267, 1041637494, 0.5505191087722778, -0.4591764509677887, -0.545579731464386, -0.43408694863319397, 7.299884796142578, -6.63201904296875, -4.444258213043213, -1.2450031042099, 61.2896728515625, -76.5093002319336, -1.039794921875, 0.3486328125, 0.328857421875, 0, 
268, 1041645827, 0.550407350063324, -0.45441627502441406, -0.5457055568695068, -0.4390513002872467, 8.188408851623535, -5.774454116821289, -4.5136942863464355, 0.014523382298648357, 57.824710845947266, -74.46725463867188, -1.045654296875, 0.33935546875, 0.322265625, 0, 
269, 1041654160, 0.5503863096237183, -0.4494532346725464, -0.5464344620704651, -0.4432593286037445, 9.402201652526855, -5.45831823348999, -2.9366912841796875, 11.430663108825684, 50.43898391723633, -73.54708862304688, -1.048583984375, 0.32958984375, 0.318115234375, 0, 
270, 1041662493, 0.5504268407821655, -0.44447454810142517, -0.5471233129501343, -0.447360634803772, 10.959768295288086, -5.286839962005615, -2.0073623657226562, 12.489690780639648, 50.64202880859375, -72.17257690429688, -1.05615234375, 0.31884765625, 0.3125, 0, 
271, 1041670826, 0.5505425333976746, -0.4399115741252899, -0.5467367768287659, -0.4521753787994385, 13.353095054626465, -5.61688232421875, -1.931254267692566, -2.185486316680908, 61.15605163574219, -67.48435974121094, -1.060302734375, 0.311279296875, 0.3037109375, 0, 
272, 1041679159, 0.5509648323059082, -0.4358868896961212, -0.5444573760032654, -0.45826783776283264, 15.110088348388672, -6.502042770385742, -2.323554515838623, -25.777698516845703, 82.16893005371094, -59.67878723144531, -1.06494140625, 0.302490234375, 0.29345703125, 0, 
273, 1041687492, 0.5510769486427307, -0.4327157735824585, -0.5404056310653687, -0.46587109565734863, 13.960253715515137, -5.755425930023193, -3.7437691688537598, -56.5903205871582, 96.96253204345703, -56.151973724365234, -1.069580078125, 0.293701171875, 0.2822265625, 0, 
274, 1041695825, 0.5512138605117798, -0.4294019937515259, -0.5371106266975403, -0.472538024187088, 13.214271545410156, -4.43526554107666, -3.5166358947753906, -43.55070114135742, 86.74241638183594, -54.37503433227539, -1.07421875, 0.28466796875, 0.27099609375, 0, 
275, 1041704158, 0.5516877174377441, -0.425645112991333, -0.5349964499473572, -0.4777538478374481, 13.724228858947754, -4.426716327667236, -1.6830651760101318, -19.813108444213867, 74.61268615722656, -51.53102111816406, -1.080810546875, 0.279541015625, 0.2607421875, 0, 
276, 1041712491, 0.5521364808082581, -0.42219480872154236, -0.5324407815933228, -0.4831218123435974, 14.696137428283691, -4.520008563995361, -0.7662215828895569, -26.301721572875977, 76.63359069824219, -47.90992736816406, -1.081298828125, 0.269775390625, 0.2529296875, 0, 
277, 1041720824, 0.5522660613059998, -0.4195689260959625, -0.5285961627960205, -0.48944151401519775, 16.22564697265625, -3.8162786960601807, -0.5675570964813232, -49.94955825805664, 84.15978240966797, -43.8470573425293, -1.088623046875, 0.263427734375, 0.237060546875, 0, 
278, 1041729157, 0.5520051717758179, -0.41779255867004395, -0.5236871242523193, -0.4964819550514221, 17.53519630432129, -3.3200764656066895, 0.3169550895690918, -71.0556640625, 87.81829833984375, -39.523136138916016, -1.09375, 0.2568359375, 0.228759765625, 0, 
279, 1041737490, 0.5511280298233032, -0.4170408844947815, -0.5177724361419678, -0.5042314529418945, 17.711381912231445, -3.1392030715942383, 0.41521599888801575, -94.34861755371094, 88.12657928466797, -36.07603073120117, -1.097900390625, 0.244140625, 0.218017578125, 0, 
280, 1041745823, 0.5498753190040588, -0.41701164841651917, -0.5115811824798584, -0.5118847489356995, 18.087865829467773, -2.119499921798706, -0.36902132630348206, -103.20899200439453, 81.95231628417969, -31.100727081298828, -1.100341796875, 0.239990234375, 0.2099609375, 0, 
281, 1041754156, 0.5488409399986267, -0.4172886908054352, -0.5057645440101624, -0.5185064673423767, 18.633325576782227, -1.8006525039672852, 0.6260779500007629, -94.37796020507812, 72.62648010253906, -21.884737014770508, -1.103515625, 0.230224609375, 0.19921875, 0, 
282, 1041762489, 0.5476789474487305, -0.41855326294898987, -0.4998025596141815, -0.524462878704071, 18.185701370239258, -1.870436429977417, 1.7074525356292725, -98.97297668457031, 61.934818267822266, -9.942554473876953, -1.103515625, 0.228271484375, 0.19287109375, 0, 
283, 1041770822, 0.5462881326675415, -0.42089372873306274, -0.4938410222530365, -0.5296619534492493, 17.679689407348633, -1.5755529403686523, 1.4810545444488525, -103.18097686767578, 48.28976058959961, 1.368737816810608, -1.104736328125, 0.224609375, 0.184326171875, 0, 
284, 1041779155, 0.5450206398963928, -0.4236816167831421, -0.4886108636856079, -0.5335811376571655, 17.34357452392578, -1.241624355316162, 1.479172706604004, -91.81330108642578, 32.9153938293457, 10.820594787597656, -1.106201171875, 0.224609375, 0.184326171875, 0, 
285, 1041787488, 0.543863832950592, -0.4267709255218506, -0.48441046476364136, -0.5361233949661255, 17.0476131439209, -1.0513367652893066, 2.6686599254608154, -76.61320495605469, 15.762861251831055, 17.839778900146484, -1.104736328125, 0.225341796875, 0.18212890625, 0, 
286, 1041795821, 0.5427908301353455, -0.43023231625556946, -0.48085474967956543, -0.5376432538032532, 16.727663040161133, -0.8347600102424622, 3.848231554031372, -67.347900390625, 2.7011871337890625, 24.939029693603516, -1.102294921875, 0.229736328125, 0.18212890625, 0, 
287, 1041804154, 0.5418962240219116, -0.434154748916626, -0.47754019498825073, -0.5383462309837341, 16.60490608215332, -0.7868204116821289, 4.272399425506592, -62.54059982299805, -6.10158109664917, 33.833152770996094, -1.1064453125, 0.23193359375, 0.184326171875, 0, 
288, 1041812487, 0.5413907170295715, -0.43859320878982544, -0.47398287057876587, -0.5384010672569275, 17.360607147216797, -0.8116656541824341, 3.8821208477020264, -61.61198043823242, -9.487089157104492, 46.52540588378906, -1.099853515625, 0.239501953125, 0.186279296875, 0, 
289, 1041820820, 0.5412689447402954, -0.4439423978328705, -0.46980997920036316, -0.537796139717102, 18.06804847717285, 0.4671139121055603, 2.719188690185547, -66.32875061035156, -13.063704490661621, 63.78061294555664, -1.100830078125, 0.239501953125, 0.1904296875, 0, 
290, 1041829153, 0.5415298342704773, -0.4500885605812073, -0.4659934937953949, -0.5357413291931152, 18.040706634521484, 2.7073488235473633, 2.021716356277466, -57.92740249633789, -28.05183219909668, 80.52322387695312, -1.098876953125, 0.251953125, 0.192138671875, 0, 
291, 1041837486, 0.5424525737762451, -0.4564718008041382, -0.46353405714035034, -0.5315241813659668, 18.042438507080078, 4.75932502746582, 2.5348169803619385, -31.734407424926758, -48.982810974121094, 94.47419738769531, -1.094970703125, 0.265380859375, 0.19970703125, 0, 
292, 1041845819, 0.5441488027572632, -0.4630577862262726, -0.4619241952896118, -0.5254604816436768, 18.195096969604492, 6.349504470825195, 3.523801565170288, -10.418047904968262, -63.526641845703125, 110.00928497314453, -1.090087890625, 0.28271484375, 0.20849609375, 0, 
293, 1041854152, 0.5466473698616028, -0.47005438804626465, -0.46032485365867615, -0.5180051922798157, 17.99148941040039, 7.377272129058838, 4.445072174072266, 0.5401376485824585, -70.27338409423828, 128.62379455566406, -1.08056640625, 0.30029296875, 0.21923828125, 0, 
294, 1041862485, 0.5493829846382141, -0.47812122106552124, -0.45783373713493347, -0.5098720788955688, 17.20390510559082, 7.320876598358154, 5.312628269195557, -8.04187297821045, -74.1397705078125, 148.0868682861328, -1.076416015625, 0.3212890625, 0.231201171875, 0, 
295, 1041870818, 0.5516313314437866, -0.48800450563430786, -0.4538015127182007, -0.5016188025474548, 16.350479125976562, 6.281128883361816, 5.827391147613525, -35.0119514465332, -79.02974700927734, 167.02545166015625, -1.069580078125, 0.34326171875, 0.241455078125, 0, 
296, 1041879151, 0.5533431768417358, -0.49954259395599365, -0.4483720362186432, -0.4931873381137848, 15.899101257324219, 4.150217056274414, 5.238309383392334, -59.699317932128906, -84.4510726928711, 184.5043182373047, -1.055419921875, 0.366943359375, 0.25634765625, 0, 
297, 1041887484, 0.5550344586372375, -0.5119819641113281, -0.4424145221710205, -0.4838220477104187, 16.10453987121582, 2.5452332496643066, 4.124495029449463, -64.51592254638672, -93.0331802368164, 200.55308532714844, -1.04638671875, 0.39111328125, 0.267822265625, 0, 
298, 1041895817, 0.5570326447486877, -0.5246763825416565, -0.43697860836982727, -0.4727391302585602, 16.274627685546875, 1.06763756275177, 3.676758050918579, -50.388427734375, -108.992431640625, 213.6897735595703, -1.031982421875, 0.4189453125, 0.287841796875, 0, 
299, 1041904150, 0.559742271900177, -0.5367909669876099, -0.4327598810195923, -0.4596366882324219, 16.211666107177734, -1.051902413368225, 3.9231619834899902, -20.76160430908203, -124.79803466796875, 221.42698669433594, -1.014404296875, 0.448974609375, 0.305419921875, 0, 
300, 1041912483, 0.5632354021072388, -0.5481497645378113, -0.42947980761528015, -0.4448009133338928, 16.368450164794922, -3.177917242050171, 4.38817024230957, 7.0872721672058105, -135.4248809814453, 228.38926696777344, -0.999267578125, 0.477783203125, 0.3193359375, 0, 
301, 1041920816, 0.5664152503013611, -0.560136616230011, -0.4254961609840393, -0.42939117550849915, 16.757831573486328, -3.6417860984802246, 3.5450737476348877, -1.0462331771850586, -139.9545135498047, 239.8477020263672, -0.97607421875, 0.51123046875, 0.34130859375, 0, 
302, 1041929149, 0.5685370564460754, -0.573104739189148, -0.42117592692375183, -0.4134373068809509, 17.309972763061523, -1.7078485488891602, 0.106613889336586, -15.651179313659668, -153.55247497558594, 246.259521484375, -0.954345703125, 0.541015625, 0.3603515625, 0, 
303, 1041937482, 0.5733951330184937, -0.5827111601829529, -0.4199420213699341, -0.3941032886505127, 19.094112396240234, -1.6549115180969238, 1.505777359008789, 69.33092498779297, -169.32948303222656, 244.36805725097656, -0.9267578125, 0.5732421875, 0.37744140625, 0, 
304, 1041945815, 0.5799936056137085, -0.5897597074508667, -0.42032644152641296, -0.3729872703552246, 18.468229293823242, -3.0538740158081055, 4.282429218292236, 122.5089111328125, -172.4920654296875, 240.1965789794922, -0.901123046875, 0.609375, 0.387451171875, 0, 
305, 1041954148, 0.5858756899833679, -0.5968933701515198, -0.420049250125885, -0.35217803716659546, 16.868499755859375, -2.30893611907959, 3.221101760864258, 110.84994506835938, -169.27349853515625, 239.85606384277344, -0.8740234375, 0.64404296875, 0.39990234375, 0, 
306, 1041962481, 0.5911317467689514, -0.6041727066040039, -0.4192247986793518, -0.33134883642196655, 17.094974517822266, -1.0582963228225708, 1.9911733865737915, 102.00473022460938, -169.3812255859375, 242.3957977294922, -0.84228515625, 0.6796875, 0.41064453125, 0, 
307, 1041970814, 0.596315324306488, -0.6110343933105469, -0.41788381338119507, -0.31051725149154663, 18.502758026123047, -1.4270899295806885, 3.004140853881836, 102.45539093017578, -163.69859313964844, 243.90045166015625, -0.80810546875, 0.708251953125, 0.419677734375, 0, 
308, 1041979147, 0.6010605692863464, -0.6176973581314087, -0.4157203137874603, -0.2904403507709503, 18.566619873046875, -1.897375464439392, 3.225898504257202, 92.55359649658203, -152.29751586914062, 241.67633056640625, -0.77783203125, 0.741943359375, 0.426025390625, 0, 
309, 1041987480, 0.6049164533615112, -0.6244616508483887, -0.41275858879089355, -0.2715822458267212, 17.27364730834961, -1.9369879961013794, 1.8397871255874634, 73.99784088134766, -140.83004760742188, 235.35452270507812, -0.742919921875, 0.766845703125, 0.435791015625, 0, 
310, 1041995813, 0.6078273057937622, -0.6314792633056641, -0.40911662578582764, -0.2537842094898224, 16.433080673217773, -2.732977867126465, 1.197732925415039, 55.22222137451172, -132.3806915283203, 230.33616638183594, -0.713134765625, 0.79541015625, 0.441162109375, 0, 
311, 1042004146, 0.6096348762512207, -0.6390899419784546, -0.4045184850692749, -0.23722758889198303, 16.01605987548828, -3.943420171737671, 0.2189570665359497, 30.354232788085938, -121.89094543457031, 227.7115478515625, -0.6796875, 0.8193359375, 0.448486328125, 0, 
312, 1042012479, 0.6111610531806946, -0.6464518904685974, -0.3995729684829712, -0.22119314968585968, 15.754366874694824, -4.270833969116211, -1.2860034704208374, 25.93507194519043, -115.13524627685547, 224.1207733154297, -0.646728515625, 0.837158203125, 0.45458984375, 0, 
313, 1042020812, 0.6129934191703796, -0.6530197858810425, -0.3945677876472473, -0.20523998141288757, 15.758746147155762, -5.006801605224609, -1.5262670516967773, 34.68928909301758, -109.82482147216797, 220.51547241210938, -0.616455078125, 0.8583984375, 0.46044921875, 0, 
314, 1042029145, 0.6145785450935364, -0.6593411564826965, -0.3892371654510498, -0.18989431858062744, 15.334192276000977, -5.700805187225342, -1.0915435552597046, 30.3463191986084, -102.259521484375, 216.3007354736328, -0.583984375, 0.876708984375, 0.464599609375, 0, 
315, 1042037478, 0.6159055233001709, -0.665449321269989, -0.3837168514728546, -0.1749342978000641, 14.879472732543945, -5.93701696395874, -0.9625546336174011, 27.23330307006836, -97.99989318847656, 212.9400177001953, -0.552734375, 0.892333984375, 0.469970703125, 0, 
316, 1042045811, 0.6169555187225342, -0.6713998317718506, -0.37806493043899536, -0.16018137335777283, 14.80151653289795, -6.21018123626709, -1.1112862825393677, 24.639524459838867, -96.05628204345703, 210.89752197265625, -0.520263671875, 0.91015625, 0.4736328125, 0, 
317, 1042054144, 0.6174640655517578, -0.6774411797523499, -0.372175931930542, -0.145944282412529, 14.64283275604248, -6.140981197357178, -1.6606621742248535, 15.651641845703125, -92.31834411621094, 207.9960479736328, -0.49072265625, 0.920654296875, 0.477294921875, 0, 
318, 1042062477, 0.6177143454551697, -0.683212161064148, -0.3662787079811096, -0.13226181268692017, 14.038325309753418, -5.796309947967529, -1.7620404958724976, 12.698144912719727, -87.83927917480469, 201.45318603515625, -0.459228515625, 0.933349609375, 0.478515625, 0, 
319, 1042070810, 0.6180395483970642, -0.6883280277252197, -0.36061856150627136, -0.1191168874502182, 13.569645881652832, -6.1166205406188965, -0.7454129457473755, 16.679468154907227, -83.2580337524414, 191.51580810546875, -0.43115234375, 0.943359375, 0.483642578125, 0, 
320, 1042079143, 0.6175823211669922, -0.6936216354370117, -0.3549336791038513, -0.1072668507695198, 13.210878372192383, -6.358707427978516, -0.7207444906234741, 1.311403512954712, -74.93795013427734, 180.3223419189453, -0.402099609375, 0.95703125, 0.4853515625, 0, 
321, 1042087476, 0.6159626245498657, -0.6993837952613831, -0.3493679165840149, -0.09694043546915054, 12.418474197387695, -6.223352909088135, -1.7209596633911133, -21.0346622467041, -67.80152130126953, 166.85623168945312, -0.37451171875, 0.96142578125, 0.489990234375, 0, 
322, 1042095809, 0.6137926578521729, -0.7049551010131836, -0.34443238377571106, -0.08755780011415482, 11.927095413208008, -6.556868076324463, -2.0841000080108643, -28.385271072387695, -66.43244171142578, 151.11041259765625, -0.348876953125, 0.966796875, 0.49755859375, 0, 
323, 1042104142, 0.6111087799072266, -0.7103381752967834, -0.3401714265346527, -0.0790703073143959, 11.671913146972656, -7.724978446960449, -1.7020795345306396, -35.22226333618164, -65.69007110595703, 135.55552673339844, -0.326416015625, 0.965576171875, 0.50439453125, 0, 
324, 1042112475, 0.607151210308075, -0.7162727117538452, -0.3364297151565552, -0.07168646156787872, 11.72324275970459, -8.663651466369629, -2.340331792831421, -56.882354736328125, -65.7944107055664, 122.35200500488281, -0.304443359375, 0.97119140625, 0.511474609375, 0, 
325, 1042120808, 0.6024206876754761, -0.7224277257919312, -0.3331288695335388, -0.06492810696363449, 11.960673332214355, -9.752901077270508, -3.818293809890747, -68.80825805664062, -67.14677429199219, 113.10790252685547, -0.287109375, 0.96875, 0.52392578125, 0, 
326, 1042129141, 0.5974644422531128, -0.7283400297164917, -0.33030083775520325, -0.05883327126502991, 11.485925674438477, -10.561410903930664, -4.410043239593506, -71.64400482177734, -65.25141906738281, 101.53732299804688, -0.267578125, 0.966796875, 0.53515625, 0, 
327, 1042137474, 0.5929762721061707, -0.7333667874336243, -0.3282538950443268, -0.05295856297016144, 10.928297996520996, -11.018696784973145, -4.623791694641113, -60.062374114990234, -66.6675796508789, 88.33638763427734, -0.250732421875, 0.962890625, 0.544921875, 0, 
328, 1042145807, 0.5889884829521179, -0.7375070452690125, -0.3270568251609802, -0.04703894257545471, 10.704081535339355, -11.215228080749512, -4.282285213470459, -46.95151138305664, -71.09832763671875, 76.4201431274414, -0.236083984375, 0.96044921875, 0.552978515625, 0, 
329, 1042154140, 0.5851824879646301, -0.741141676902771, -0.3264175355434418, -0.04153202846646309, 10.22906494140625, -11.666929244995117, -4.401115894317627, -42.51630401611328, -70.33350372314453, 65.34593963623047, -0.224609375, 0.955810546875, 0.559326171875, 0, 
330, 1042162473, 0.5815275311470032, -0.7443849444389343, -0.3261275887489319, -0.03688419237732887, 9.247808456420898, -11.791413307189941, -4.433677673339844, -41.475215911865234, -63.44222640991211, 53.11831283569336, -0.2099609375, 0.954345703125, 0.56884765625, 0, 
331, 1042170806, 0.5783480405807495, -0.746954619884491, -0.3263239860534668, -0.03298547863960266, 8.192840576171875, -11.943416595458984, -4.356026649475098, -34.34187698364258, -57.24020004272461, 39.46225357055664, -0.2021484375, 0.950927734375, 0.573486328125, 0, 
332, 1042179139, 0.5755054950714111, -0.7489323616027832, -0.32710081338882446, -0.03003319352865219, 7.062376976013184, -11.827468872070312, -5.198070049285889, -30.149158477783203, -50.302696228027344, 23.376312255859375, -0.19482421875, 0.949951171875, 0.578125, 0, 
333, 1042187472, 0.5733099579811096, -0.7500627040863037, -0.32855790853500366, -0.027824807912111282, 6.073521137237549, -12.020597457885742, -6.231655597686768, -19.851404190063477, -44.81785583496094, 7.036410808563232, -0.1875, 0.9443359375, 0.580810546875, 0, 
334, 1042195805, 0.5722245573997498, -0.7499738931655884, -0.3307862877845764, -0.026109442114830017, 5.156375885009766, -12.121834754943848, -6.16940975189209, -0.7131013870239258, -40.275936126708984, -9.987261772155762, -0.1875, 0.9443359375, 0.584228515625, 0, 
335, 1042204138, 0.5720311403274536, -0.7487135529518127, -0.3340355157852173, -0.025134041905403137, 3.4660847187042236, -10.954846382141113, -5.409734725952148, 14.699233055114746, -36.25718688964844, -31.24915313720703, -0.185302734375, 0.9443359375, 0.58544921875, 0, 
336, 1042212471, 0.571797788143158, -0.7469413876533508, -0.3383587896823883, -0.025347106158733368, 2.435239791870117, -8.853887557983398, -4.163260459899902, 13.23132610321045, -32.41810989379883, -54.11895751953125, -0.189697265625, 0.9453125, 0.581787109375, 0, 
337, 1042220804, 0.5707281827926636, -0.7454439401626587, -0.34330692887306213, -0.02694413810968399, 2.7506508827209473, -7.197302341461182, -3.835242509841919, -3.7439494132995605, -27.158401489257812, -70.33582305908203, -0.1953125, 0.942138671875, 0.580078125, 0, 
338, 1042229137, 0.5689700841903687, -0.7442721724510193, -0.34846198558807373, -0.030152536928653717, 2.1437747478485107, -5.863918304443359, -3.8716835975646973, -20.885683059692383, -15.580322265625, -83.91807556152344, -0.204345703125, 0.942626953125, 0.581298828125, 0, 
339, 1042237470, 0.5669823288917542, -0.7430112957954407, -0.3538788855075836, -0.0351862758398056, 1.1701247692108154, -5.165195941925049, -4.281956195831299, -31.173341751098633, -0.06465096026659012, -101.31139373779297, -0.2138671875, 0.93359375, 0.58837890625, 0, 
340, 1042245803, 0.5645829439163208, -0.7416680455207825, -0.3597622215747833, -0.04181960970163345, 0.7841863036155701, -5.241914749145508, -4.196573257446289, -42.299232482910156, 10.734450340270996, -119.24060821533203, -0.233642578125, 0.928466796875, 0.59130859375, 0, 
341, 1042254136, 0.5617374777793884, -0.7403524518013, -0.3658210337162018, -0.05007053166627884, 1.0091837644577026, -4.8670477867126465, -4.047062873840332, -54.95877456665039, 23.593576431274414, -133.62095642089844, -0.249755859375, 0.91845703125, 0.59521484375, 0, 
342, 1042262469, 0.5587068796157837, -0.7389354705810547, -0.3717609941959381, -0.060147106647491455, 1.0523502826690674, -4.109013557434082, -4.356790542602539, -65.33380126953125, 42.28998947143555, -147.23976135253906, -0.266357421875, 0.910888671875, 0.60400390625, 0, 
343, 1042270802, 0.5559347867965698, -0.7369661331176758, -0.37772226333618164, -0.07173692435026169, 0.9519366025924683, -3.7603986263275146, -4.281190872192383, -66.17122650146484, 59.23855209350586, -161.60983276367188, -0.295166015625, 0.89892578125, 0.609375, 0, 
344, 1042279135, 0.5534759163856506, -0.7343178391456604, -0.3837718963623047, -0.08463972061872482, 0.7269241809844971, -4.109757900238037, -4.047451972961426, -64.54975891113281, 74.21086883544922, -175.8485565185547, -0.322021484375, 0.8857421875, 0.611328125, 0, 
345, 1042287468, 0.5513976216316223, -0.7308704257011414, -0.3899284601211548, -0.09873126447200775, 0.580517053604126, -3.8503737449645996, -4.280707359313965, -60.756378173828125, 88.29292297363281, -189.67140197753906, -0.350341796875, 0.875, 0.617431640625, 0, 
346, 1042295801, 0.5497829914093018, -0.7265036702156067, -0.3962591886520386, -0.11363335698843002, 0.495587557554245, -2.89510178565979, -3.629814863204956, -53.252620697021484, 98.90219116210938, -201.9482879638672, -0.382568359375, 0.864501953125, 0.618896484375, 0, 
347, 1042304134, 0.5484102368354797, -0.7213022112846375, -0.4027920961380005, -0.12934739887714386, 0.27057310938835144, -2.1015584468841553, -2.727175712585449, -48.61724853515625, 108.07616424560547, -214.20120239257812, -0.4150390625, 0.8466796875, 0.61767578125, 0, 
348, 1042312467, 0.5470065474510193, -0.7155038118362427, -0.4092860221862793, -0.14603513479232788, -0.028548313304781914, -1.5302972793579102, -2.3185713291168213, -49.90321731567383, 118.9531021118164, -224.59979248046875, -0.451416015625, 0.830810546875, 0.62060546875, 0, 
349, 1042320800, 0.5455068945884705, -0.7091519832611084, -0.4156567454338074, -0.16357988119125366, -0.3176666796207428, -1.1771118640899658, -1.855099081993103, -51.734432220458984, 128.85244750976562, -233.06712341308594, -0.486328125, 0.810302734375, 0.616943359375, 0, 
350, 1042329133, 0.5440163016319275, -0.702186107635498, -0.421939492225647, -0.181524395942688, -0.4871158003807068, -1.0561590194702148, -1.2753851413726807, -49.542110443115234, 134.8756103515625, -238.775390625, -0.521484375, 0.794189453125, 0.6142578125, 0, 
351, 1042337466, 0.5425881147384644, -0.6945818066596985, -0.4281693696975708, -0.19957029819488525, -0.8006684184074402, -1.3188321590423584, -0.9120094776153564, -44.86629104614258, 138.18161010742188, -242.49586486816406, -0.55908203125, 0.771728515625, 0.609375, 0, 
352, 1042345799, 0.5413813591003418, -0.6862840056419373, -0.4343004524707794, -0.21750083565711975, -1.3119404315948486, -1.72927987575531, -0.4916968047618866, -37.187522888183594, 141.05091857910156, -244.24339294433594, -0.5966796875, 0.750244140625, 0.603271484375, 0, 
353, 1042354132, 0.5403973460197449, -0.6774009466171265, -0.44031864404678345, -0.23499202728271484, -1.9065978527069092, -2.1670475006103516, 0.09368841350078583, -28.417068481445312, 140.80221557617188, -242.6645965576172, -0.632568359375, 0.724365234375, 0.59228515625, 0, 
354, 1042362465, 0.539665699005127, -0.6679815649986267, -0.4462452232837677, -0.25185272097587585, -2.6930739879608154, -2.1946403980255127, 0.5276460647583008, -18.582365036010742, 138.89215087890625, -239.62896728515625, -0.6708984375, 0.70703125, 0.58203125, 0, 
355, 1042370798, 0.5394114851951599, -0.6578822731971741, -0.4522622227668762, -0.26774629950523376, -3.2802746295928955, -2.159330129623413, 0.7906661629676819, -2.886066436767578, 134.6012725830078, -235.73135375976562, -0.6982421875, 0.678955078125, 0.571533203125, 0, 
356, 1042379131, 0.5397363901138306, -0.6470907330513, -0.4584805369377136, -0.2824125587940216, -3.840792655944824, -2.3280117511749268, 1.010719656944275, 15.848669052124023, 128.17526245117188, -230.68849182128906, -0.729248046875, 0.65771484375, 0.55810546875, 0, 
357, 1042387464, 0.5405365228652954, -0.6357890367507935, -0.4649488627910614, -0.2956656515598297, -4.047810077667236, -2.1025824546813965, 1.3344974517822266, 33.76049041748047, 118.70111083984375, -223.73487854003906, -0.759765625, 0.639404296875, 0.544677734375, 0, 
358, 1042395797, 0.5416960120201111, -0.6241050958633423, -0.4717540740966797, -0.3074241876602173, -3.9793858528137207, -1.603332281112671, 1.870542049407959, 50.654476165771484, 107.0020523071289, -216.61170959472656, -0.787353515625, 0.622314453125, 0.53173828125, 0, 
359, 1042404130, 0.5429845452308655, -0.6122371554374695, -0.4788239598274231, -0.31790584325790405, -3.7642197608947754, -1.0040926933288574, 2.278867483139038, 62.5472526550293, 95.66730499267578, -209.9681396484375, -0.811279296875, 0.601318359375, 0.51123046875, 0, 
360, 1042412463, 0.5441510677337646, -0.6005100607872009, -0.4858843684196472, -0.3274243474006653, -3.570164203643799, -0.34475386142730713, 2.521087646484375, 66.75709533691406, 86.22592163085938, -202.3523406982422, -0.832275390625, 0.585693359375, 0.49951171875, 0, 
361, 1042420796, 0.5450348854064941, -0.5891594290733337, -0.4927695095539093, -0.33616846799850464, -3.330335855484009, 0.23934824764728546, 2.8152263164520264, 65.99697875976562, 77.53997802734375, -193.82081604003906, -0.8525390625, 0.56494140625, 0.484375, 0, 
362, 1042429129, 0.5455447435379028, -0.5783021450042725, -0.4993923008441925, -0.344322144985199, -3.027000665664673, 0.29981857538223267, 3.266052722930908, 62.05087661743164, 69.92594146728516, -185.6999969482422, -0.868408203125, 0.549560546875, 0.47412109375, 0, 
363, 1042437462, 0.5453634858131409, -0.5682148337364197, -0.505424439907074, -0.3525051474571228, -2.6781344413757324, -0.322389155626297, 3.1862151622772217, 47.785152435302734, 66.17510986328125, -179.164794921875, -0.888671875, 0.531982421875, 0.461669921875, 0, 
364, 1042445795, 0.5443313717842102, -0.5590733885765076, -0.5106246471405029, -0.361117959022522, -2.529712677001953, -0.7816810607910156, 2.4395289421081543, 27.01630973815918, 65.29570770263672, -173.47853088378906, -0.9033203125, 0.513671875, 0.452880859375, 0, 
365, 1042454128, 0.5430251359939575, -0.5503154993057251, -0.5153923630714417, -0.36966240406036377, -2.284991502761841, -1.948824405670166, 2.1397159099578857, 20.374473571777344, 64.14923095703125, -168.26922607421875, -0.9189453125, 0.49365234375, 0.442138671875, 0, 
366, 1042462461, 0.5409351587295532, -0.5424428582191467, -0.5193610191345215, -0.37869784235954285, -2.036186456680298, -2.4212539196014404, 0.6918321847915649, 0.2864646017551422, 63.80598831176758, -163.6387176513672, -0.930419921875, 0.47509765625, 0.435791015625, 0, 
367, 1042470794, 0.5388736724853516, -0.5345908403396606, -0.523552656173706, -0.38694125413894653, -1.4485840797424316, -1.974770426750183, -0.021822432056069374, 7.167261600494385, 56.30349349975586, -159.078369140625, -0.948974609375, 0.451416015625, 0.426513671875, 0, 
368, 1042479127, 0.5374221801757812, -0.5262914299964905, -0.5282768607139587, -0.3938542604446411, -0.5108644366264343, -2.078190565109253, 0.5932143330574036, 27.375534057617188, 49.37882995605469, -153.1459503173828, -0.956298828125, 0.434814453125, 0.41943359375, 0, 
369, 1042487460, 0.5361162424087524, -0.5181378722190857, -0.5326941609382629, -0.4004402458667755, 0.3567422926425934, -2.1670875549316406, 0.9815311431884766, 28.06569480895996, 49.517982482910156, -146.62765502929688, -0.968505859375, 0.416259765625, 0.4130859375, 0, 
370, 1042495793, 0.5347146391868591, -0.510502815246582, -0.5362513661384583, -0.4073137044906616, 1.0482792854309082, -2.235245704650879, 1.1136761903762817, 16.717453002929688, 54.38189697265625, -139.38003540039062, -0.97998046875, 0.4013671875, 0.406494140625, 0, 
371, 1042504126, 0.5332525968551636, -0.5034149289131165, -0.5388049483299255, -0.4146169126033783, 1.6912518739700317, -3.198451042175293, 1.0680383443832397, 3.4839208126068115, 61.23240661621094, -131.7711181640625, -0.98681640625, 0.380126953125, 0.397705078125, 0, 
372, 1042512459, 0.5316040515899658, -0.497131884098053, -0.539831817150116, -0.4228963553905487, 2.0814754962921143, -4.8172407150268555, -0.5924839377403259, -19.65011978149414, 73.2511978149414, -123.48658752441406, -0.998291015625, 0.365234375, 0.391357421875, 0, 
373, 1042520792, 0.5295974016189575, -0.4917057454586029, -0.5395909547805786, -0.43196815252304077, 1.8810468912124634, -4.695169448852539, -3.6482958793640137, -41.612274169921875, 80.25852966308594, -116.31399536132812, -1.007568359375, 0.349853515625, 0.380126953125, 0, 
374, 1042529125, 0.5283924341201782, -0.4855678677558899, -0.5403572916984558, -0.4393656849861145, 1.6363976001739502, -3.944549083709717, -3.8909029960632324, -12.610533714294434, 71.81575012207031, -111.46916961669922, -1.017822265625, 0.331787109375, 0.3740234375, 0, 
375, 1042537458, 0.5280795693397522, -0.47847217321395874, -0.5426264405250549, -0.44469743967056274, 1.7958987951278687, -4.059199810028076, -2.1995437145233154, 24.74005699157715, 59.48406982421875, -108.21449279785156, -1.025634765625, 0.3193359375, 0.364013671875, 0, 
376, 1042545791, 0.5280454754829407, -0.4711630642414093, -0.5450225472450256, -0.44958508014678955, 2.549009323120117, -4.284305572509766, -0.7434460520744324, 32.21210861206055, 59.05839920043945, -105.7168960571289, -1.031494140625, 0.304931640625, 0.357421875, 0, 
377, 1042554124, 0.5276997089385986, -0.46443313360214233, -0.546280562877655, -0.4554291069507599, 3.170789957046509, -4.417387962341309, -0.02229674905538559, 11.794976234436035, 67.5780029296875, -102.87944030761719, -1.0390625, 0.29150390625, 0.345703125, 0, 
378, 1042562457, 0.527175784111023, -0.4582802951335907, -0.5465148091316223, -0.4619412422180176, 4.122281074523926, -5.325627326965332, -0.40574294328689575, -4.9721598625183105, 74.34474182128906, -97.96464538574219, -1.046630859375, 0.277099609375, 0.3388671875, 0, 
379, 1042570790, 0.5264464616775513, -0.45299530029296875, -0.5455204248428345, -0.46910518407821655, 5.360767364501953, -6.316561698913574, -3.0897345542907715, -25.2576961517334, 80.27935028076172, -89.74627685546875, -1.0556640625, 0.263671875, 0.32958984375, 0, 
380, 1042579123, 0.5259748101234436, -0.4477784037590027, -0.5446746349334717, -0.4755810797214508, 6.3433990478515625, -5.748828887939453, -4.431148052215576, -18.031158447265625, 76.43567657470703, -83.50161743164062, -1.05908203125, 0.2529296875, 0.31689453125, 0, 
381, 1042587456, 0.5265591144561768, -0.4414113759994507, -0.5456871390342712, -0.4797082543373108, 6.954407691955566, -5.817023277282715, -2.1881535053253174, 26.531768798828125, 63.94482421875, -79.69613647460938, -1.066162109375, 0.238037109375, 0.30908203125, 0, 
382, 1042595789, 0.5274200439453125, -0.43489110469818115, -0.547069251537323, -0.4831315875053406, 7.561866760253906, -6.555062770843506, -0.7088741064071655, 37.045780181884766, 60.098724365234375, -76.1363754272461, -1.06982421875, 0.2314453125, 0.2978515625, 0, 
383, 1042604122, 0.5279510021209717, -0.4289993643760681, -0.5474665760993958, -0.48735061287879944, 8.33422565460205, -6.348848819732666, -1.0077401399612427, 17.988752365112305, 65.33447265625, -73.52934265136719, -1.07373046875, 0.223388671875, 0.292724609375, 0, 
384, 1042612455, 0.5281206369400024, -0.4236549139022827, -0.5470725893974304, -0.49226000905036926, 9.309653282165527, -5.599836349487305, -1.507332682609558, 1.3787237405776978, 68.77164459228516, -72.12789154052734, -1.07958984375, 0.213134765625, 0.2802734375, 0, 
385, 1042620788, 0.5283030271530151, -0.41836321353912354, -0.5465224385261536, -0.4971764087677002, 10.351997375488281, -5.1258931159973145, -1.9853121042251587, -0.0359242781996727, 69.6799545288086, -70.85018920898438, -1.087890625, 0.20068359375, 0.273193359375, 0, 
386, 1042629121, 0.5285542607307434, -0.41304096579551697, -0.5457794070243835, -0.5021507740020752, 11.25649356842041, -4.760019779205322, -2.68572998046875, -1.1758190393447876, 72.14971160888672, -69.85501098632812, -1.089599609375, 0.19140625, 0.265869140625, 0, 
387, 1042637454, 0.5286824107170105, -0.40806150436401367, -0.5444042086601257, -0.5075505971908569, 12.24085521697998, -4.630317211151123, -2.4565465450286865, -11.92278003692627, 75.86644744873047, -67.71646881103516, -1.092529296875, 0.183837890625, 0.256103515625, 0, 
388, 1042645787, 0.5283101797103882, -0.40388986468315125, -0.5418944358825684, -0.5139209032058716, 12.734121322631836, -4.422048091888428, -2.4199955463409424, -35.790802001953125, 80.17801666259766, -65.76869201660156, -1.101806640625, 0.1708984375, 0.243408203125, 0, 
389, 1042654120, 0.5276649594306946, -0.40019428730010986, -0.5387887954711914, -0.5206954479217529, 13.682910919189453, -3.58147931098938, -2.846100330352783, -47.98363494873047, 81.36442565917969, -63.875247955322266, -1.102783203125, 0.1611328125, 0.233642578125, 0, 
390, 1042662453, 0.5270830392837524, -0.39665836095809937, -0.5354863405227661, -0.5273547172546387, 14.737133026123047, -2.9928841590881348, -2.1281721591949463, -49.35558319091797, 81.47296142578125, -60.2215461730957, -1.105712890625, 0.154052734375, 0.22119140625, 0, 
391, 1042670786, 0.5262820720672607, -0.39369848370552063, -0.5315334796905518, -0.5343256592750549, 15.244743347167969, -2.6010677814483643, -1.2355302572250366, -61.73026657104492, 82.11827850341797, -56.39291763305664, -1.109375, 0.144287109375, 0.21044921875, 0, 
392, 1042679119, 0.525518536567688, -0.39125674962997437, -0.5267662405967712, -0.5415428876876831, 16.204057693481445, -2.453995943069458, -0.9928184151649475, -73.06827545166016, 85.79377746582031, -49.59019470214844, -1.11181640625, 0.133056640625, 0.19970703125, 0, 
393, 1042687452, 0.5248395204544067, -0.3894435167312622, -0.5209460258483887, -0.5490860939025879, 16.268077850341797, -2.77142333984375, -0.6322439908981323, -87.34931182861328, 91.11650848388672, -41.22622299194336, -1.112548828125, 0.125, 0.1875, 0, 
394, 1042695785, 0.5238513946533203, -0.388532429933548, -0.5144184827804565, -0.5567756295204163, 15.87880802154541, -2.650968313217163, -0.9175457954406738, -101.91557312011719, 87.9497299194336, -34.23860168457031, -1.1181640625, 0.1181640625, 0.174072265625, 0, 
395, 1042704118, 0.5226283073425293, -0.38819342851638794, -0.5084373950958252, -0.5636131167411804, 16.290931701660156, -1.906276822090149, -0.5402662754058838, -97.06757354736328, 73.46295166015625, -28.910381317138672, -1.117919921875, 0.11474609375, 0.160400390625, 0, 
396, 1042712451, 0.5213853120803833, -0.38803961873054504, -0.5038368105888367, -0.5689762830734253, 16.84617042541504, -1.3191248178482056, 1.2050483226776123, -77.50808715820312, 54.05066680908203, -24.404644012451172, -1.123046875, 0.108154296875, 0.153076171875, 0, 
397, 1042720784, 0.5203487873077393, -0.38801640272140503, -0.5001643896102905, -0.5731657147407532, 16.93100929260254, -1.4042596817016602, 2.778214454650879, -61.942752838134766, 41.59888458251953, -18.574451446533203, -1.119873046875, 0.10107421875, 0.14697265625, 0, 
398, 1042729117, 0.5194195508956909, -0.38851723074913025, -0.49651235342025757, -0.5768328905105591, 16.53868865966797, -1.5306724309921265, 3.4707188606262207, -61.371803283691406, 35.21564483642578, -10.342920303344727, -1.120361328125, 0.10205078125, 0.139892578125, 0, 
399, 1042737450, 0.5185527205467224, -0.3898060619831085, -0.4927355647087097, -0.5799731612205505, 16.13252067565918, -1.5279386043548584, 3.4808342456817627, -64.04557037353516, 27.531309127807617, -0.20040662586688995, -1.119384765625, 0.10205078125, 0.13671875, 0, 
400, 1042745783, 0.5178682804107666, -0.39178311824798584, -0.4891304671764374, -0.5822994709014893, 15.921085357666016, -1.5588405132293701, 3.132991075515747, -61.104164123535156, 17.626550674438477, 10.964595794677734, -1.1220703125, 0.10107421875, 0.13525390625, 0, 
401, 1042754116, 0.5174646973609924, -0.39426809549331665, -0.48604294657707214, -0.5835650563240051, 15.792518615722656, -1.3322304487228394, 2.6141042709350586, -51.91975021362305, 6.113699913024902, 21.220096588134766, -1.12109375, 0.099853515625, 0.134765625, 0, 
402, 1042762449, 0.5172451734542847, -0.3971562683582306, -0.4837794601917267, -0.583682119846344, 15.668913841247559, -0.9290810227394104, 2.376901149749756, -39.51210021972656, -8.048535346984863, 29.271957397460938, -1.12109375, 0.106689453125, 0.13427734375, 0, 
403, 1042770782, 0.517274022102356, -0.40029752254486084, -0.4823443591594696, -0.5826975107192993, 15.720155715942383, -0.4179927408695221, 2.569392442703247, -25.96344566345215, -20.263294219970703, 36.07562255859375, -1.120849609375, 0.10986328125, 0.13671875, 0, 
404, 1042779115, 0.5175409317016602, -0.40395987033843994, -0.4813152253627777, -0.5807809829711914, 15.84106731414795, 1.0007084608078003, 2.402479648590088, -18.939990997314453, -30.950542449951172, 46.019813537597656, -1.120849609375, 0.115966796875, 0.140380859375, 0, 
405, 1042787448, 0.5184735655784607, -0.4082091748714447, -0.4805958569049835, -0.5775648951530457, 16.152605056762695, 2.6550796031951904, 2.451282501220703, -8.329802513122559, -40.58179473876953, 62.5552864074707, -1.118896484375, 0.126220703125, 0.1474609375, 0, 
406, 1042795781, 0.519962728023529, -0.41363006830215454, -0.47943630814552307, -0.5733175873756409, 16.663677215576172, 4.428407192230225, 2.4811007976531982, -10.2525053024292, -48.933433532714844, 84.73724365234375, -1.116943359375, 0.136962890625, 0.151611328125, 0, 
407, 1042804114, 0.5217195153236389, -0.42086198925971985, -0.47680437564849854, -0.5686339139938354, 17.326509475708008, 6.345016002655029, 2.4436047077178955, -30.398792266845703, -53.32290267944336, 110.08615112304688, -1.111572265625, 0.15478515625, 0.162109375, 0, 
408, 1042812447, 0.5236560702323914, -0.4296650290489197, -0.4729434549808502, -0.5634711384773254, 17.237966537475586, 7.80941915512085, 3.085965156555176, -47.11339569091797, -58.46383285522461, 132.54100036621094, -1.111328125, 0.17138671875, 0.167236328125, 0, 
409, 1042820780, 0.5259279012680054, -0.4391888380050659, -0.46902868151664734, -0.557250440120697, 16.367359161376953, 7.499776840209961, 4.367772579193115, -43.8460693359375, -67.64979553222656, 147.57801818847656, -1.111572265625, 0.1943359375, 0.181640625, 0, 
410, 1042829113, 0.5283482074737549, -0.44931760430336, -0.46488189697265625, -0.5503177642822266, 15.663339614868164, 6.05109167098999, 5.115190029144287, -44.52239227294922, -74.03186798095703, 159.3541717529297, -1.09912109375, 0.21533203125, 0.195068359375, 0, 
411, 1042837446, 0.5305784940719604, -0.46074074506759644, -0.45978373289108276, -0.5429607033729553, 15.616777420043945, 5.237410545349121, 4.436692237854004, -59.57384490966797, -80.67130279541016, 174.98866271972656, -1.09521484375, 0.23486328125, 0.20263671875, 0, 
412, 1042845779, 0.5332328081130981, -0.47283464670181274, -0.45485973358154297, -0.5340372323989868, 15.82318115234375, 4.519688129425049, 3.7240638732910156, -50.59169006347656, -94.27615356445312, 192.8899383544922, -1.089599609375, 0.263671875, 0.2197265625, 0, 
413, 1042854112, 0.5369918346405029, -0.4846600890159607, -0.45135149359703064, -0.5225217938423157, 15.698402404785156, 2.703416585922241, 4.738696098327637, -14.81714916229248, -112.55440521240234, 208.9739532470703, -1.079833984375, 0.29443359375, 0.232177734375, 0, 
414, 1042862445, 0.5414800643920898, -0.49652665853500366, -0.4484049081802368, -0.5091133713722229, 15.66364574432373, 0.3718414902687073, 5.778872966766357, 5.515169143676758, -125.16838073730469, 224.85960388183594, -1.06884765625, 0.327880859375, 0.253173828125, 0, 
415, 1042870778, 0.5461471080780029, -0.5090506076812744, -0.4449465274810791, -0.49458709359169006, 16.097671508789062, -0.663494884967804, 4.550146579742432, 5.158117294311523, -132.41722106933594, 241.8433074951172, -1.05859375, 0.359619140625, 0.270263671875, 0, 
416, 1042879111, 0.5509990453720093, -0.5220416188240051, -0.44107604026794434, -0.4788814187049866, 17.050586700439453, -1.120023488998413, 2.4649734497070312, 7.350574493408203, -139.6984405517578, 257.846923828125, -1.0400390625, 0.395751953125, 0.2880859375, 0, 
417, 1042887444, 0.556332528591156, -0.5348016023635864, -0.43776655197143555, -0.4613511562347412, 17.91034507751465, -1.0828280448913574, 1.2808470726013184, 27.32524299621582, -152.5460968017578, 269.2789001464844, -1.0205078125, 0.432373046875, 0.308349609375, 0, 
418, 1042895777, 0.5621786713600159, -0.5468469858169556, -0.43541228771209717, -0.4419645369052887, 18.257596969604492, -0.2587539851665497, 0.8913676142692566, 53.794517517089844, -165.95071411132812, 275.5483703613281, -0.9990234375, 0.47314453125, 0.326416015625, 0, 
419, 1042904110, 0.5687816739082336, -0.5578023195266724, -0.43378859758377075, -0.4209209084510803, 19.016420364379883, -0.17979922890663147, 2.0903234481811523, 82.28377532958984, -172.848388671875, 280.8038330078125, -0.9736328125, 0.51318359375, 0.34765625, 0, 
420, 1042912443, 0.5747635364532471, -0.5692464113235474, -0.4307027757167816, -0.4001293182373047, 19.435922622680664, 0.3286071717739105, 3.3450803756713867, 63.72213363647461, -166.06898498535156, 289.50396728515625, -0.94873046875, 0.555908203125, 0.361572265625, 0, 
421, 1042920776, 0.5788328647613525, -0.5820456147193909, -0.4259052574634552, -0.38050389289855957, 19.675594329833984, 2.6202831268310547, 1.131272792816162, 21.717586517333984, -162.14195251464844, 291.0650634765625, -0.913818359375, 0.595458984375, 0.377685546875, 0, 
422, 1042929109, 0.5839900970458984, -0.592898428440094, -0.42150914669036865, -0.3602224588394165, 19.945873260498047, 1.7412484884262085, 1.953270673751831, 51.85530090332031, -154.08245849609375, 287.4898376464844, -0.883544921875, 0.62744140625, 0.39501953125, 0, 
423, 1042937442, 0.5886617302894592, -0.6035706400871277, -0.41593512892723083, -0.34085315465927124, 18.084808349609375, -0.531487762928009, 3.034601926803589, 38.227718353271484, -139.0611572265625, 286.2098388671875, -0.853271484375, 0.6650390625, 0.41064453125, 0, 
424, 1042945775, 0.5918204188346863, -0.6150467395782471, -0.40933507680892944, -0.32235682010650635, 16.024837493896484, -2.0227065086364746, 1.3325027227401733, 9.354950904846191, -135.9736785888672, 285.268310546875, -0.822509765625, 0.697265625, 0.421630859375, 0, 
425, 1042954108, 0.5943231582641602, -0.6263414025306702, -0.40306010842323303, -0.30335116386413574, 15.696310997009277, -3.1620044708251953, 0.4592459201812744, 9.587148666381836, -145.78506469726562, 282.6542053222656, -0.78564453125, 0.73046875, 0.43310546875, 0, 
426, 1042962441, 0.5967811942100525, -0.6367670893669128, -0.3972818851470947, -0.2838130295276642, 16.83167266845703, -4.293152809143066, 0.7934424877166748, 21.333576202392578, -151.08738708496094, 277.8059387207031, -0.74853515625, 0.75732421875, 0.448974609375, 0, 
427, 1042970774, 0.5994532704353333, -0.6460587382316589, -0.39171814918518066, -0.2642417550086975, 16.755104064941406, -4.003063201904297, 0.9348037242889404, 33.52986526489258, -147.51368713378906, 270.7713623046875, -0.713134765625, 0.785888671875, 0.458984375, 0, 
428, 1042979107, 0.6016751527786255, -0.6549248695373535, -0.38605913519859314, -0.24499347805976868, 15.844877243041992, -3.6517181396484375, 0.9146726131439209, 30.953697204589844, -144.76219177246094, 265.0923767089844, -0.678466796875, 0.807373046875, 0.46923828125, 0, 
429, 1042987440, 0.6034724712371826, -0.6634722352027893, -0.38018083572387695, -0.22603341937065125, 15.317757606506348, -4.344259738922119, 0.86934494972229, 27.497005462646484, -141.51803588867188, 261.5073547363281, -0.636474609375, 0.83203125, 0.474609375, 0, 
430, 1042995773, 0.6047623157501221, -0.6717745065689087, -0.37394052743911743, -0.2077331691980362, 14.941039085388184, -4.800822734832764, -0.17600245773792267, 20.32608413696289, -134.3983917236328, 256.52606201171875, -0.596923828125, 0.854736328125, 0.48486328125, 0, 
431, 1043004106, 0.6054425239562988, -0.6798731684684753, -0.3673804998397827, -0.19038504362106323, 15.16979694366455, -5.653388500213623, -0.5955764651298523, 10.573216438293457, -125.49288177490234, 248.7369384765625, -0.5595703125, 0.877685546875, 0.494873046875, 0, 
432, 1043012439, 0.6055421233177185, -0.6878194808959961, -0.3605334162712097, -0.1739017218351364, 15.32153606414795, -6.498621940612793, -1.013087511062622, 1.2965342998504639, -117.55309295654297, 241.9628143310547, -0.5234375, 0.890869140625, 0.503173828125, 0, 
433, 1043020772, 0.6057229042053223, -0.6951110363006592, -0.35366037487983704, -0.15763133764266968, 14.795032501220703, -6.590657711029053, -2.134678840637207, 6.393818378448486, -113.35769653320312, 237.36700439453125, -0.4892578125, 0.90673828125, 0.50830078125, 0, 
434, 1043029105, 0.6064400672912598, -0.7013945579528809, -0.34694865345954895, -0.14108742773532867, 14.410962104797363, -7.120635032653809, -1.886017084121704, 21.604326248168945, -112.5181655883789, 234.3784942626953, -0.452392578125, 0.917724609375, 0.513671875, 0, 
435, 1043037438, 0.6066803932189941, -0.70755934715271, -0.34016895294189453, -0.12484630942344666, 14.071797370910645, -7.705892086029053, -1.517494797706604, 16.407777786254883, -111.0826644897461, 231.0215301513672, -0.413330078125, 0.9326171875, 0.5146484375, 0, 
436, 1043045771, 0.6068925857543945, -0.7131581902503967, -0.3335406184196472, -0.10881292819976807, 13.831068992614746, -7.5074334144592285, -1.5430043935775757, 20.154769897460938, -109.4764633178711, 225.11448669433594, -0.37744140625, 0.942626953125, 0.52099609375, 0, 
437, 1043054104, 0.6072425246238708, -0.7180236577987671, -0.32715287804603577, -0.09312634915113449, 13.975707054138184, -7.493484020233154, -1.3790427446365356, 26.384353637695312, -106.37040710449219, 216.72474670410156, -0.34130859375, 0.955322265625, 0.5205078125, 0, 
438, 1043062437, 0.6068851947784424, -0.7228462100028992, -0.32097047567367554, -0.07851426303386688, 14.296442031860352, -7.314555644989014, -1.9856635332107544, 15.200301170349121, -100.58494567871094, 204.60118103027344, -0.30712890625, 0.962890625, 0.523193359375, 0, 
439, 1043070770, 0.6059308052062988, -0.7275720238685608, -0.3150094747543335, -0.06525951623916626, 14.26937484741211, -7.323970317840576, -2.0348329544067383, 4.31100606918335, -91.4996566772461, 190.0405731201172, -0.2783203125, 0.966796875, 0.5263671875, 0, 
440, 1043079103, 0.6041668057441711, -0.7324666976928711, -0.3092365860939026, -0.053394120186567307, 13.714200973510742, -7.7747578620910645, -1.486838459968567, -11.039003372192383, -82.79492950439453, 176.5423583984375, -0.24609375, 0.97216796875, 0.528564453125, 0, 
441, 1043087436, 0.6016014218330383, -0.737483024597168, -0.3039628267288208, -0.042473748326301575, 12.787421226501465, -8.27118968963623, -1.0235471725463867, -23.782554626464844, -80.9554214477539, 163.65972900390625, -0.21728515625, 0.974609375, 0.53271484375, 0, 
442, 1043095769, 0.5981186032295227, -0.7427020072937012, -0.29936131834983826, -0.03214987367391586, 12.34884262084961, -9.494232177734375, -2.078670024871826, -36.85540008544922, -84.38455963134766, 152.15078735351562, -0.189208984375, 0.974365234375, 0.537353515625, 0, 
443, 1043104102, 0.5940916538238525, -0.7478216290473938, -0.2954772412776947, -0.022675558924674988, 11.663185119628906, -9.897916793823242, -3.2243378162384033, -44.79024887084961, -83.85289764404297, 137.27540588378906, -0.16943359375, 0.970947265625, 0.545654296875, 0, 
