PacketCounter,SampleTimeFine,Quat_W,Quat_X,Quat_Y,Quat_Z,Acc_X,Acc_Y,Acc_Z,Gyr_X,Gyr_Y,Gyr_Z,Mag_X,Mag_Y,Mag_Z,Status,
0, 1049945495, 0.5637987852096558, -0.5785366296768188, -0.4472736716270447, -0.3838953375816345, 0, 0, 0, 0, 0, 0, -0.90087890625, 0.587158203125, 0.4072265625, 0, 
1, 1049953828, 0.5629270672798157, -0.5793699622154236, -0.44682782888412476, -0.3844366669654846, 9.51887035369873, -3.0965139865875244, -0.7140700817108154, -17.78278923034668, -2.2128655910491943, 0.17841601371765137, -0.90283203125, 0.5869140625, 0.411865234375, 0, 
2, 1049962161, 0.562162458896637, -0.5800634026527405, -0.44645312428474426, -0.3849449157714844, 9.430756568908691, -3.3202059268951416, -0.6459194421768188, -15.38696002960205, -1.5590876340866089, -0.43948912620544434, -0.90478515625, 0.58447265625, 0.415283203125, 0, 
3, 1049970494, 0.5614847540855408, -0.5806368589401245, -0.446209579706192, -0.3853513300418854, 9.306035041809082, -3.4262187480926514, -0.5460993647575378, -12.461685180664062, -2.2424752712249756, -0.951978862285614, -0.90380859375, 0.58642578125, 0.41552734375, 0, 
4, 1049978827, 0.5609292387962341, -0.5811059474945068, -0.4461078345775604, -0.38557082414627075, 9.265457153320312, -3.4308385848999023, -0.7249775528907776, -8.766024589538574, -3.501889228820801, -0.6576840281486511, -0.90673828125, 0.5849609375, 0.41552734375, 0, 
5, 1049987160, 0.5605756044387817, -0.581405758857727, -0.4461953639984131, -0.3855322003364563, 9.296029090881348, -3.303835391998291, -0.8583115935325623, -3.423739194869995, -4.867101669311523, -0.11374000459909439, -0.901123046875, 0.581787109375, 0.4169921875, 0, 
6, 1049995493, 0.5604416728019714, -0.5814964175224304, -0.4464802145957947, -0.3852604925632477, 9.35063362121582, -3.0669546127319336, -0.8037644624710083, 2.58530855178833, -5.815788745880127, -0.04674597829580307, -0.904541015625, 0.583251953125, 0.42041015625, 0, 
7, 1050003826, 0.5604830980300903, -0.5814114212989807, -0.4468700587749481, -0.3848762512207031, 9.38187026977539, -2.8573427200317383, -0.7196434736251831, 6.588160514831543, -5.545673847198486, -0.14803747832775116, -0.904541015625, 0.583984375, 0.41748046875, 0, 
8, 1050012159, 0.5607149600982666, -0.5811454653739929, -0.44734013080596924, -0.3843937814235687, 9.399791717529297, -2.6992640495300293, -0.7084930539131165, 10.53476333618164, -4.792679786682129, -0.15637491643428802, -0.9052734375, 0.58447265625, 0.41845703125, 0, 
9, 1050020492, 0.5608288645744324, -0.5809745788574219, -0.4478108882904053, -0.38393735885620117, 9.384651184082031, -2.6431472301483154, -0.44766005873680115, 8.658008575439453, -5.835205078125, -0.37932124733924866, -0.902099609375, 0.58447265625, 0.42041015625, 0, 
10, 1050028825, 0.5608835220336914, -0.5808315873146057, -0.4482889771461487, -0.38351571559906006, 9.49576187133789, -2.3774030208587646, -0.3126871585845947, 7.837917804718018, -6.109302520751953, -0.8685787916183472, -0.905517578125, 0.58447265625, 0.42041015625, 0, 
11, 1050037158, 0.5608676671981812, -0.5807800889015198, -0.4486008882522583, -0.38325250148773193, 9.350205421447754, -2.509836196899414, -0.1334281712770462, 4.697458267211914, -4.504364967346191, -0.5495277643203735, -0.905029296875, 0.583740234375, 0.41943359375, 0, 
12, 1050045491, 0.5604842305183411, -0.5811163783073425, -0.4485962390899658, -0.38330912590026855, 9.225916862487793, -2.7518818378448486, -0.412140816450119, -4.852142810821533, -3.7951204776763916, -0.05580061674118042, -0.90185546875, 0.583251953125, 0.421142578125, 0, 
13, 1050053824, 0.5599368810653687, -0.581600546836853, -0.44855645298957825, -0.38342106342315674, 9.138748168945312, -2.893094539642334, -0.7435178756713867, -7.911188125610352, -4.878769874572754, -0.12143711000680923, -0.902099609375, 0.58447265625, 0.422119140625, 0, 
14, 1050062157, 0.5594426989555359, -0.5820032954216003, -0.4486367702484131, -0.3834378123283386, 9.15529727935791, -3.080009698867798, -0.464198499917984, -5.556317329406738, -5.802342414855957, -0.6026774644851685, -0.902587890625, 0.583984375, 0.421630859375, 0, 
15, 1050070490, 0.5589064955711365, -0.5824747681617737, -0.44863051176071167, -0.38351091742515564, 9.2206392288208, -3.1163721084594727, -0.2532373368740082, -7.071373462677002, -5.388236999511719, -0.12835294008255005, -0.903564453125, 0.584228515625, 0.425048828125, 0, 
16, 1050078823, 0.5583435297012329, -0.5829967260360718, -0.4485588073730469, -0.383621484041214, 9.177117347717285, -3.047092914581299, -0.41678565740585327, -8.404081344604492, -4.936938285827637, 0.2669387459754944, -0.90234375, 0.5849609375, 0.4296875, 0, 
17, 1050087156, 0.5577999353408813, -0.5835128426551819, -0.44852447509765625, -0.3836674094200134, 9.158439636230469, -2.9462780952453613, -0.6292150020599365, -7.6425461769104, -5.613309860229492, 0.5553295612335205, -0.90234375, 0.582763671875, 0.424560546875, 0, 
18, 1050095489, 0.5572589635848999, -0.5840198397636414, -0.4485313296318054, -0.38367384672164917, 9.252911567687988, -2.856327772140503, -0.5975002646446228, -7.056108474731445, -6.158764362335205, 0.4589943289756775, -0.900146484375, 0.57861328125, 0.427734375, 0, 
19, 1050103822, 0.5566415190696716, -0.5846073031425476, -0.44848984479904175, -0.3837242126464844, 9.343626022338867, -2.7044808864593506, -0.493889182806015, -8.846824645996094, -6.355533123016357, 0.6301742792129517, -0.90185546875, 0.582275390625, 0.42919921875, 0, 
20, 1050112155, 0.5559912323951721, -0.5852388739585876, -0.44843971729278564, -0.38376274704933167, 9.3895845413208, -2.5554466247558594, -0.5119933485984802, -9.38723373413086, -6.794252872467041, 0.8629052639007568, -0.902099609375, 0.581298828125, 0.433349609375, 0, 
21, 1050120488, 0.5553193092346191, -0.5859101414680481, -0.4483575224876404, -0.38380736112594604, 9.382061958312988, -2.648021936416626, -0.5171120762825012, -10.065547943115234, -6.8832621574401855, 1.2284457683563232, -0.8994140625, 0.578125, 0.435302734375, 0, 
22, 1050128821, 0.5545659065246582, -0.5866869688034058, -0.44817909598350525, -0.3839184045791626, 9.293732643127441, -2.752906560897827, -0.46816691756248474, -12.452644348144531, -6.634549140930176, 1.6938055753707886, -0.900634765625, 0.581298828125, 0.434326171875, 0, 
23, 1050137154, 0.5537726283073425, -0.5875215530395508, -0.44797781109809875, -0.38402244448661804, 9.31706428527832, -2.8507704734802246, -0.5914179682731628, -13.291561126708984, -7.105697154998779, 2.1021735668182373, -0.89794921875, 0.5771484375, 0.4375, 0, 
24, 1050145487, 0.552962064743042, -0.5883814096450806, -0.44777095317840576, -0.38411545753479004, 9.286290168762207, -2.8721258640289307, -0.6597391366958618, -13.583487510681152, -7.352029323577881, 2.2698700428009033, -0.8974609375, 0.5771484375, 0.4404296875, 0, 
25, 1050153820, 0.5522079467773438, -0.5892061591148376, -0.447576642036438, -0.38416212797164917, 9.296621322631836, -2.8548223972320557, -0.6930165886878967, -12.476054191589355, -7.3448309898376465, 2.6247036457061768, -0.89697265625, 0.57763671875, 0.44189453125, 0, 
26, 1050162153, 0.5514344573020935, -0.5900411605834961, -0.4474208354949951, -0.38417303562164307, 9.219181060791016, -2.873898506164551, -0.5974531769752502, -12.32091236114502, -8.045792579650879, 2.523374319076538, -0.8984375, 0.57861328125, 0.4404296875, 0, 
27, 1050170486, 0.5505969524383545, -0.5908967852592468, -0.44734013080596924, -0.38415321707725525, 9.2777681350708, -2.6726162433624268, -0.6709246039390564, -12.382205963134766, -9.420072555541992, 1.9592971801757812, -0.896728515625, 0.573974609375, 0.447509765625, 0, 
28, 1050178819, 0.5496886968612671, -0.5918112397193909, -0.44724124670028687, -0.38416141271591187, 9.320966720581055, -2.524226188659668, -0.28334471583366394, -13.699493408203125, -9.74824047088623, 1.859529733657837, -0.897705078125, 0.576171875, 0.447509765625, 0, 
29, 1050187152, 0.548602819442749, -0.5928946137428284, -0.4469669461250305, -0.3843623697757721, 9.327726364135742, -2.4896342754364014, -0.23562121391296387, -18.561079025268555, -8.873772621154785, 1.9618077278137207, -0.896728515625, 0.575927734375, 0.45166015625, 0, 
30, 1050195485, 0.5473935604095459, -0.5941027402877808, -0.446541965007782, -0.3847150504589081, 9.292133331298828, -2.407301902770996, -0.7028416991233826, -22.21029281616211, -7.88119649887085, 2.1293766498565674, -0.891845703125, 0.572509765625, 0.45263671875, 0, 
31, 1050203818, 0.5461878180503845, -0.5953150987625122, -0.4461120367050171, -0.3850531578063965, 9.255182266235352, -2.593841075897217, -1.0179083347320557, -22.091262817382812, -8.034035682678223, 2.3474559783935547, -0.893798828125, 0.572509765625, 0.454833984375, 0, 
32, 1050212151, 0.5449056625366211, -0.5966096520423889, -0.44564706087112427, -0.385404497385025, 9.205914497375488, -2.9401156902313232, -0.8249790072441101, -23.65862464904785, -8.494709014892578, 2.610847234725952, -0.8916015625, 0.56982421875, 0.459716796875, 0, 
33, 1050220484, 0.5435072779655457, -0.5980170965194702, -0.4451110363006592, -0.385816752910614, 9.066619873046875, -3.132730007171631, -0.7874184250831604, -25.922773361206055, -8.917805671691895, 2.81156063079834, -0.894287109375, 0.56787109375, 0.46044921875, 0, 
34, 1050228817, 0.5421237945556641, -0.599381148815155, -0.44468656182289124, -0.38613593578338623, 8.91606616973877, -3.2186505794525146, -0.744307816028595, -24.601232528686523, -10.054156303405762, 2.4052932262420654, -0.89306640625, 0.5703125, 0.46484375, 0, 
35, 1050237150, 0.5408726334571838, -0.6006112098693848, -0.44438329339027405, -0.38632798194885254, 8.838546752929688, -3.2238833904266357, -0.5793537497520447, -21.123109817504883, -10.52526569366455, 2.2715227603912354, -0.888916015625, 0.565673828125, 0.468017578125, 0, 
36, 1050245483, 0.5396613478660583, -0.6018387675285339, -0.4440420866012573, -0.38650399446487427, 8.899304389953613, -3.1227924823760986, -0.41988760232925415, -20.846399307250977, -10.077119827270508, 2.865696430206299, -0.891357421875, 0.564697265625, 0.467041015625, 0, 
37, 1050253816, 0.5383670330047607, -0.6032041311264038, -0.443515419960022, -0.38678503036499023, 9.119723320007324, -2.670482635498047, -0.6557044386863708, -24.259204864501953, -9.097464561462402, 4.062278747558594, -0.888671875, 0.563720703125, 0.47119140625, 0, 
38, 1050262149, 0.5369614362716675, -0.6046770215034485, -0.44288817048072815, -0.38715770840644836, 9.206160545349121, -2.2089366912841797, -0.9445641040802002, -26.996139526367188, -8.815887451171875, 4.241349220275879, -0.88916015625, 0.566650390625, 0.47607421875, 0, 
39, 1050270482, 0.535456120967865, -0.6062113046646118, -0.44223329424858093, -0.3875918388366699, 9.228116989135742, -2.2148616313934326, -1.0876168012619019, -28.965063095092773, -9.042011260986328, 3.9095678329467773, -0.886474609375, 0.56201171875, 0.4765625, 0, 
40, 1050278815, 0.5339149832725525, -0.607790470123291, -0.44147610664367676, -0.3881075978279114, 9.191367149353027, -2.5143325328826904, -1.4403953552246094, -30.470157623291016, -8.059244155883789, 4.194629192352295, -0.886962890625, 0.5595703125, 0.481689453125, 0, 
41, 1050287148, 0.5322828888893127, -0.6094350814819336, -0.440705269575119, -0.38864588737487793, 9.017162322998047, -2.899705410003662, -1.7192091941833496, -31.96065902709961, -8.7164306640625, 4.091941833496094, -0.883544921875, 0.554443359375, 0.4853515625, 0, 
42, 1050295481, 0.5307865738868713, -0.6109383702278137, -0.4401797950267792, -0.3889274299144745, 8.975131034851074, -3.0492653846740723, -1.7840690612792969, -26.883258819580078, -11.043381690979004, 3.746917247772217, -0.885498046875, 0.5546875, 0.490478515625, 0, 
43, 1050303814, 0.5294384360313416, -0.6123199462890625, -0.4397988021373749, -0.38902342319488525, 9.036428451538086, -3.1309399604797363, -1.5854026079177856, -22.966426849365234, -12.123942375183105, 3.991788864135742, -0.885009765625, 0.555419921875, 0.490478515625, 0, 
44, 1050312147, 0.5281285047531128, -0.6137080788612366, -0.4394264817237854, -0.38903728127479553, 9.025575637817383, -3.0841641426086426, -1.4664055109024048, -22.034658432006836, -12.66678524017334, 4.711318492889404, -0.885986328125, 0.556396484375, 0.49560546875, 0, 
45, 1050320480, 0.5269927382469177, -0.6149321794509888, -0.4392068386077881, -0.3888925015926361, 9.052766799926758, -3.060901403427124, -1.4080586433410645, -17.583589553833008, -13.242795944213867, 4.546336650848389, -0.88330078125, 0.55419921875, 0.4970703125, 0, 
46, 1050328813, 0.5258885025978088, -0.6161637306213379, -0.43894410133361816, -0.38873451948165894, 9.241829872131348, -2.8852031230926514, -1.2847771644592285, -17.534408569335938, -12.833223342895508, 5.190099239349365, -0.8828125, 0.550048828125, 0.501220703125, 0, 
47, 1050337146, 0.5248619914054871, -0.617375910282135, -0.4386371970176697, -0.38854503631591797, 9.421409606933594, -2.913773775100708, -1.4830217361450195, -16.806812286376953, -12.253752708435059, 6.122560024261475, -0.880126953125, 0.550048828125, 0.503662109375, 0, 
48, 1050345479, 0.5239766240119934, -0.6185183525085449, -0.4383902847766876, -0.3882015645503998, 9.569576263427734, -2.9963953495025635, -1.8601970672607422, -13.832716941833496, -12.723823547363281, 7.026819229125977, -0.878662109375, 0.549072265625, 0.503662109375, 0, 
49, 1050353812, 0.5231863260269165, -0.6196181774139404, -0.4381752014160156, -0.3877561390399933, 9.818314552307129, -2.967299699783325, -2.1349070072174072, -11.952169418334961, -13.065773963928223, 7.774319648742676, -0.876953125, 0.547119140625, 0.5068359375, 0, 
50, 1050362145, 0.5226464867591858, -0.6205543279647827, -0.4381067454814911, -0.38706400990486145, 9.941387176513672, -2.866246461868286, -2.277240753173828, -6.352972984313965, -13.794038772583008, 8.616695404052734, -0.875244140625, 0.548095703125, 0.512939453125, 0, 
51, 1050370478, 0.5222485065460205, -0.6213955283164978, -0.4382043182849884, -0.3861399292945862, 9.824884414672852, -2.8225371837615967, -2.3131277561187744, -2.1948838233947754, -15.652860641479492, 9.082232475280762, -0.8759765625, 0.5517578125, 0.512451171875, 0, 
52, 1050378811, 0.5221161842346191, -0.622067391872406, -0.4385107159614563, -0.38488709926605225, 9.913768768310547, -2.6717216968536377, -2.2850863933563232, 4.399720191955566, -17.416379928588867, 10.015233993530273, -0.873779296875, 0.55078125, 0.51513671875, 0, 
53, 1050387144, 0.5223128795623779, -0.6225265264511108, -0.43898212909698486, -0.3833375573158264, 10.008928298950195, -2.75573468208313, -1.7647005319595337, 11.401350021362305, -18.074514389038086, 11.226788520812988, -0.86962890625, 0.557373046875, 0.51904296875, 0, 
54, 1050395477, 0.5228207111358643, -0.622800886631012, -0.439494788646698, -0.3816085755825043, 10.014030456542969, -2.6221137046813965, -1.3151038885116577, 16.693410873413086, -17.008785247802734, 12.652787208557129, -0.86767578125, 0.558349609375, 0.519775390625, 0, 
55, 1050403810, 0.5236392617225647, -0.6229014992713928, -0.4400169849395752, -0.37971532344818115, 10.093968391418457, -2.199000358581543, -1.0052481889724731, 21.622106552124023, -15.729535102844238, 14.375323295593262, -0.86865234375, 0.557861328125, 0.51806640625, 0, 
56, 1050412143, 0.5245361924171448, -0.6230072379112244, -0.4404212236404419, -0.37783050537109375, 9.963506698608398, -1.6113625764846802, -0.9513067603111267, 21.615140914916992, -14.326412200927734, 15.722914695739746, -0.8642578125, 0.5615234375, 0.520263671875, 0, 
57, 1050420476, 0.5253432989120483, -0.6233034729957581, -0.4406018853187561, -0.3760055601596832, 9.926751136779785, -1.171473503112793, -1.352827548980713, 17.92525291442871, -13.77475643157959, 17.938316345214844, -0.86328125, 0.564697265625, 0.520751953125, 0, 
58, 1050428809, 0.526244044303894, -0.6236534118652344, -0.44071662425994873, -0.37402623891830444, 9.95468807220459, -1.2054681777954102, -1.7421786785125732, 18.955717086791992, -14.290884971618652, 20.384349822998047, -0.858154296875, 0.567138671875, 0.5185546875, 0, 
59, 1050437142, 0.5272772312164307, -0.6240005493164062, -0.44079962372779846, -0.3718881905078888, 9.920453071594238, -1.7885146141052246, -1.814789891242981, 20.896202087402344, -14.646720886230469, 22.522069931030273, -0.85986328125, 0.572998046875, 0.520751953125, 0, 
60, 1050445475, 0.5283939242362976, -0.6243456602096558, -0.4408608376979828, -0.3696443736553192, 9.765532493591309, -2.218784809112549, -1.926520586013794, 22.170873641967773, -14.841238021850586, 23.837467193603516, -0.853759765625, 0.574951171875, 0.518310546875, 0, 
61, 1050453808, 0.5296933054924011, -0.6246026158332825, -0.44097423553466797, -0.36720752716064453, 9.690193176269531, -2.3425896167755127, -1.972380518913269, 25.791093826293945, -15.355062484741211, 25.251916885375977, -0.851806640625, 0.581787109375, 0.519775390625, 0, 
62, 1050462141, 0.5311998128890991, -0.6247413754463196, -0.4412243366241455, -0.3644845485687256, 9.797780990600586, -2.347121000289917, -2.040194272994995, 30.882478713989258, -16.92104721069336, 26.42608642578125, -0.851806640625, 0.584716796875, 0.52392578125, 0, 
63, 1050470474, 0.5328220725059509, -0.6248149871826172, -0.44151484966278076, -0.36162739992141724, 9.857599258422852, -2.2897069454193115, -1.5502197742462158, 33.36796951293945, -17.38503074645996, 27.310476303100586, -0.845947265625, 0.593017578125, 0.516357421875, 0, 
64, 1050478807, 0.5343555212020874, -0.6249921917915344, -0.44180238246917725, -0.35869544744491577, 9.707118034362793, -2.3416359424591064, -1.8440138101577759, 32.28464126586914, -19.014970779418945, 28.003442764282227, -0.843017578125, 0.5986328125, 0.520263671875, 0, 
65, 1050487140, 0.536016047000885, -0.6250206828117371, -0.44239377975463867, -0.3554246425628662, 9.484733581542969, -2.0238451957702637, -2.420703649520874, 38.052249908447266, -22.70517921447754, 27.6771297454834, -0.841064453125, 0.603515625, 0.517822265625, 0, 
66, 1050495473, 0.5378249883651733, -0.6249444484710693, -0.4430523216724396, -0.3519894480705261, 9.409655570983887, -2.308014154434204, -1.4960992336273193, 41.40420913696289, -23.146854400634766, 28.328872680664062, -0.8349609375, 0.608642578125, 0.517333984375, 0, 
67, 1050503806, 0.5394411683082581, -0.6250855326652527, -0.4433755874633789, -0.34884434938430786, 9.289973258972168, -2.510775566101074, -1.7133979797363281, 34.753273010253906, -20.4428653717041, 29.536542892456055, -0.8310546875, 0.61474609375, 0.516357421875, 0, 
68, 1050512139, 0.541082501411438, -0.6252334117889404, -0.4436153471469879, -0.34571874141693115, 9.111889839172363, -3.0061657428741455, -1.881213665008545, 34.39685821533203, -19.491092681884766, 30.19196319580078, -0.82763671875, 0.62060546875, 0.51953125, 0, 
69, 1050520472, 0.5426681041717529, -0.6254532933235168, -0.4437316656112671, -0.34267300367355347, 9.117447853088379, -3.6247010231018066, -1.9075345993041992, 32.3138427734375, -18.6146183013916, 30.917125701904297, -0.82421875, 0.62451171875, 0.51904296875, 0, 
70, 1050528805, 0.5440952777862549, -0.6258179545402527, -0.44364023208618164, -0.3398507237434387, 8.98666763305664, -3.9985458850860596, -1.9564989805221558, 27.521303176879883, -16.746591567993164, 31.089065551757812, -0.820068359375, 0.63037109375, 0.52099609375, 0, 
71, 1050537138, 0.5454875826835632, -0.6261895895004272, -0.4434956908226013, -0.3371117413043976, 8.818527221679688, -4.247541427612305, -2.2808122634887695, 26.421905517578125, -15.920783996582031, 30.891084671020508, -0.817626953125, 0.634033203125, 0.516357421875, 0, 
72, 1050545471, 0.5468004941940308, -0.6265875101089478, -0.4433232545852661, -0.3344617187976837, 8.661523818969727, -4.539851665496826, -2.086674690246582, 24.858919143676758, -15.510004043579102, 30.16691017150879, -0.810302734375, 0.641845703125, 0.51904296875, 0, 
73, 1050553804, 0.5479810833930969, -0.6270534992218018, -0.4430137872695923, -0.33205801248550415, 8.64145278930664, -4.562087059020996, -2.0309600830078125, 21.08746910095215, -13.512141227722168, 29.38831329345703, -0.810302734375, 0.6474609375, 0.51708984375, 0, 
74, 1050562137, 0.5491395592689514, -0.6274989247322083, -0.44265735149383545, -0.329770028591156, 8.507840156555176, -4.595334053039551, -1.988282322883606, 20.120197296142578, -12.16569995880127, 28.60858154296875, -0.806396484375, 0.652099609375, 0.515625, 0, 
75, 1050570470, 0.5502527356147766, -0.6279399394989014, -0.44228777289390564, -0.32756346464157104, 8.431585311889648, -4.328317642211914, -1.9280519485473633, 19.213581085205078, -11.650571823120117, 27.957468032836914, -0.80224609375, 0.654052734375, 0.51708984375, 0, 
76, 1050578803, 0.5514053702354431, -0.6283573508262634, -0.44185662269592285, -0.3253995180130005, 8.638351440429688, -3.98429274559021, -1.8857734203338623, 19.191547393798828, -10.438887596130371, 28.11865997314453, -0.80126953125, 0.65478515625, 0.5166015625, 0, 
77, 1050587136, 0.5524718761444092, -0.6288325190544128, -0.44130170345306396, -0.32341963052749634, 8.564533233642578, -3.885516881942749, -2.027313470840454, 16.341041564941406, -8.724600791931152, 27.836360931396484, -0.7978515625, 0.660400390625, 0.51513671875, 0, 
78, 1050595469, 0.5535774230957031, -0.6292413473129272, -0.4408557415008545, -0.3213358521461487, 8.58729076385498, -3.808478593826294, -2.205207109451294, 18.294898986816406, -9.8859281539917, 27.37497901916504, -0.79443359375, 0.6650390625, 0.51513671875, 0, 
79, 1050603802, 0.5546648502349854, -0.6296859979629517, -0.4403533637523651, -0.31927135586738586, 8.727239608764648, -4.212130069732666, -2.0620486736297607, 17.511051177978516, -9.587417602539062, 27.93285369873047, -0.794921875, 0.667236328125, 0.51416015625, 0, 
80, 1050612135, 0.5557324886322021, -0.6301404237747192, -0.43982359766960144, -0.3172418773174286, 8.713541030883789, -4.202558517456055, -2.1273488998413086, 16.919254302978516, -9.210453033447266, 27.79701805114746, -0.79150390625, 0.672119140625, 0.519287109375, 0, 
81, 1050620468, 0.5568829774856567, -0.630476713180542, -0.4393845498561859, -0.3151581287384033, 8.515985488891602, -4.3154072761535645, -1.684173822402954, 19.267135620117188, -9.382298469543457, 27.151052474975586, -0.7890625, 0.679443359375, 0.511962890625, 0, 
82, 1050628801, 0.5578668117523193, -0.6309731006622314, -0.43885257840156555, -0.313159316778183, 8.600364685058594, -4.163259506225586, -1.7731913328170776, 15.6780424118042, -9.607499122619629, 27.47292137145996, -0.78515625, 0.68017578125, 0.51416015625, 0, 
83, 1050637134, 0.5588741302490234, -0.6314963102340698, -0.438266783952713, -0.3111228942871094, 8.886144638061523, -3.8740131855010986, -1.7267391681671143, 15.676118850708008, -9.520539283752441, 28.56900405883789, -0.781494140625, 0.68359375, 0.513671875, 0, 
84, 1050645467, 0.5599340796470642, -0.6320200562477112, -0.4376159608364105, -0.3090629279613495, 8.855070114135742, -3.8091793060302734, -1.5447375774383545, 15.98851203918457, -8.886791229248047, 29.46514892578125, -0.777099609375, 0.686279296875, 0.5126953125, 0, 
85, 1050653800, 0.5609460473060608, -0.6326051354408264, -0.43691301345825195, -0.3070182800292969, 8.844847679138184, -3.647068738937378, -1.6744869947433472, 14.785101890563965, -8.92459774017334, 30.043771743774414, -0.776611328125, 0.69091796875, 0.51318359375, 0, 
86, 1050662133, 0.5619562268257141, -0.6332387328147888, -0.43616577982902527, -0.30492040514945984, 8.963768005371094, -3.7098381519317627, -1.7463524341583252, 14.528449058532715, -9.236862182617188, 31.04560089111328, -0.771728515625, 0.6982421875, 0.5126953125, 0, 
87, 1050670466, 0.5629907250404358, -0.6338825225830078, -0.43542253971099854, -0.3027283847332001, 9.088191032409668, -4.000192642211914, -1.7912776470184326, 15.246006965637207, -10.01171875, 31.982210159301758, -0.769287109375, 0.701904296875, 0.51220703125, 0, 
88, 1050678799, 0.5640286207199097, -0.6345692873001099, -0.43454599380493164, -0.3006095290184021, 9.099138259887695, -4.297976016998291, -1.5437932014465332, 13.94577693939209, -8.471841812133789, 32.768959045410156, -0.76416015625, 0.704345703125, 0.509765625, 0, 
89, 1050687132, 0.5650240778923035, -0.6352695226669312, -0.43376362323760986, -0.29838311672210693, 9.034235954284668, -4.16633939743042, -1.635393738746643, 14.508268356323242, -10.479898452758789, 32.768882751464844, -0.76123046875, 0.710693359375, 0.51171875, 0, 
90, 1050695465, 0.5661658048629761, -0.6358609199523926, -0.43302762508392334, -0.2960188388824463, 9.030973434448242, -4.177333354949951, -1.4320740699768066, 17.638229370117188, -10.697338104248047, 33.30240249633789, -0.756591796875, 0.712646484375, 0.513671875, 0, 
91, 1050703798, 0.5673180818557739, -0.636472225189209, -0.43227148056030273, -0.2935947775840759, 8.978060722351074, -4.147270679473877, -1.299800992012024, 17.854415893554688, -11.109550476074219, 34.19165802001953, -0.753173828125, 0.718017578125, 0.513427734375, 0, 
92, 1050712131, 0.5684629082679749, -0.6371402740478516, -0.4314655065536499, -0.2911064624786377, 9.082462310791016, -3.9137961864471436, -1.4182971715927124, 17.523324966430664, -11.528496742248535, 35.35009002685547, -0.75, 0.720947265625, 0.51171875, 0, 
93, 1050720464, 0.5695633888244629, -0.6379131078720093, -0.4305398762226105, -0.28862202167510986, 9.273909568786621, -3.521583080291748, -1.4036931991577148, 15.819517135620117, -11.27143383026123, 36.90080642700195, -0.746826171875, 0.727294921875, 0.51025390625, 0, 
94, 1050728797, 0.5707297325134277, -0.6387155652046204, -0.42945149540901184, -0.2861543297767639, 9.381255149841309, -3.2666590213775635, -1.5874338150024414, 15.41314697265625, -9.548925399780273, 38.54655075073242, -0.741455078125, 0.729736328125, 0.513916015625, 0, 
95, 1050737130, 0.5719614624977112, -0.6395345330238342, -0.4282647371292114, -0.28363385796546936, 9.251733779907227, -3.4719622135162354, -1.4634790420532227, 15.786964416503906, -8.948477745056152, 40.27375793457031, -0.7392578125, 0.734619140625, 0.512939453125, 0, 
96, 1050745463, 0.573167085647583, -0.6404373645782471, -0.42707598209381104, -0.2809427082538605, 9.150045394897461, -3.5049750804901123, -1.5522716045379639, 15.892446517944336, -10.885431289672852, 41.931087493896484, -0.734130859375, 0.73974609375, 0.50830078125, 0, 
97, 1050753796, 0.5744844675064087, -0.6412980556488037, -0.4258803427219391, -0.27808836102485657, 9.266347885131836, -3.4953062534332275, -1.4573568105697632, 18.145505905151367, -11.481322288513184, 43.56509780883789, -0.728759765625, 0.743896484375, 0.51025390625, 0, 
98, 1050762129, 0.5759199261665344, -0.6421390771865845, -0.42458614706993103, -0.2751420736312866, 9.350747108459473, -3.7217466831207275, -1.6221483945846558, 19.497814178466797, -10.712666511535645, 45.39493942260742, -0.72314453125, 0.751708984375, 0.509521484375, 0, 
99, 1050770462, 0.5773808360099792, -0.6430282592773438, -0.4232100546360016, -0.2721073031425476, 9.42788314819336, -3.8417601585388184, -1.4609994888305664, 19.553661346435547, -10.917247772216797, 47.30360412597656, -0.71923828125, 0.7578125, 0.50537109375, 0, 
100, 1050778795, 0.5788657069206238, -0.6439940333366394, -0.4217219650745392, -0.2689603865146637, 9.504229545593262, -3.94846773147583, -0.9897666573524475, 19.385684967041016, -11.130106925964355, 49.61317825317383, -0.709228515625, 0.76318359375, 0.509033203125, 0, 
101, 1050787128, 0.580220639705658, -0.645157516002655, -0.4200855493545532, -0.2657943069934845, 9.483294486999512, -3.8995609283447266, -1.0874186754226685, 16.23061752319336, -11.640190124511719, 51.860965728759766, -0.706787109375, 0.767822265625, 0.508056640625, 0, 
102, 1050795461, 0.581480085849762, -0.6464820504188538, -0.41832152009010315, -0.26258695125579834, 9.530524253845215, -3.7678122520446777, -0.9728503823280334, 13.86219310760498, -12.090746879577637, 53.787113189697266, -0.698974609375, 0.771484375, 0.5068359375, 0, 
103, 1050803794, 0.5826560258865356, -0.6479833722114563, -0.4163684546947479, -0.2593643367290497, 9.724574089050293, -3.681457281112671, -0.9790688753128052, 11.118852615356445, -11.875255584716797, 56.42948913574219, -0.696533203125, 0.778076171875, 0.508056640625, 0, 
104, 1050812127, 0.5838598012924194, -0.6495963931083679, -0.414241224527359, -0.25600701570510864, 9.950637817382812, -3.7792086601257324, -0.9576601982116699, 10.61538028717041, -11.876615524291992, 59.676300048828125, -0.688232421875, 0.786376953125, 0.507568359375, 0, 
105, 1050820460, 0.5851324796676636, -0.6512362957000732, -0.41199326515197754, -0.252538800239563, 9.994460105895996, -4.021296501159668, -0.8971620202064514, 11.22562026977539, -11.648500442504883, 62.17321014404297, -0.677978515625, 0.78857421875, 0.50390625, 0, 
106, 1050828793, 0.5864755511283875, -0.652876079082489, -0.4096812605857849, -0.24892479181289673, 10.009773254394531, -4.179104804992676, -0.9516305327415466, 12.4567232131958, -11.993115425109863, 64.02995300292969, -0.673583984375, 0.79736328125, 0.504150390625, 0, 
107, 1050837126, 0.5877887606620789, -0.6545901894569397, -0.4072924256324768, -0.24521814286708832, 10.121299743652344, -4.336181163787842, -0.544132649898529, 11.85238265991211, -12.679457664489746, 65.92951202392578, -0.6669921875, 0.800048828125, 0.506103515625, 0, 
108, 1050845459, 0.5890345573425293, -0.6564397215843201, -0.4047207236289978, -0.24151477217674255, 10.504364013671875, -3.651488780975342, -0.6334336996078491, 9.512847900390625, -11.952934265136719, 67.93440246582031, -0.658935546875, 0.806884765625, 0.505615234375, 0, 
109, 1050853792, 0.5903507471084595, -0.6583194136619568, -0.4019749164581299, -0.23774079978466034, 10.820230484008789, -3.3096296787261963, -0.6484764814376831, 9.717662811279297, -10.947599411010742, 70.6369400024414, -0.6494140625, 0.816650390625, 0.51025390625, 0, 
110, 1050862125, 0.5915772914886475, -0.6603788137435913, -0.3990537226200104, -0.23387011885643005, 10.847716331481934, -3.1847212314605713, -0.679522693157196, 7.408325672149658, -11.423234939575195, 73.55325317382812, -0.64111328125, 0.822265625, 0.50927734375, 0, 
111, 1050870458, 0.5926263332366943, -0.6626750230789185, -0.3959156274795532, -0.2300211787223816, 10.99246883392334, -3.1582069396972656, -0.6216280460357666, 3.050222873687744, -11.260562896728516, 76.24745178222656, -0.634765625, 0.826416015625, 0.509765625, 0, 
112, 1050878791, 0.5935521721839905, -0.6651484966278076, -0.3926822543144226, -0.22600212693214417, 10.988298416137695, -2.8030526638031006, -0.7136939167976379, 1.1101398468017578, -13.20492935180664, 78.90438842773438, -0.623046875, 0.833251953125, 0.511474609375, 0, 
113, 1050887124, 0.5945678353309631, -0.667586088180542, -0.3893626630306244, -0.22185036540031433, 10.917272567749023, -2.476681709289551, -0.6637986302375793, 2.668980598449707, -13.186822891235352, 81.05598449707031, -0.615966796875, 0.839111328125, 0.511962890625, 0, 
114, 1050895457, 0.5956481099128723, -0.6700263619422913, -0.3860488831996918, -0.2173413187265396, 10.83335018157959, -2.4096522331237793, -0.518867015838623, 5.177323341369629, -16.10594940185547, 83.94144439697266, -0.602783203125, 0.844970703125, 0.510986328125, 0, 
115, 1050903790, 0.5968772768974304, -0.6723825335502625, -0.38281577825546265, -0.2123546302318573, 11.133451461791992, -2.4134624004364014, -0.6415767073631287, 10.006464004516602, -20.20721435546875, 87.32440185546875, -0.591064453125, 0.85107421875, 0.51611328125, 0, 
116, 1050912123, 0.598230242729187, -0.674717903137207, -0.3795814514160156, -0.20687571167945862, 11.8079252243042, -1.9360004663467407, -0.5344577431678772, 13.916312217712402, -23.955137252807617, 91.4125747680664, -0.583984375, 0.85693359375, 0.51611328125, 0, 
117, 1050920456, 0.5997385382652283, -0.6769922375679016, -0.37632185220718384, -0.2009473741054535, 12.618268966674805, -1.154162049293518, -0.5847160220146179, 18.13131332397461, -27.022388458251953, 95.70701599121094, -0.573486328125, 0.865234375, 0.51513671875, 0, 
118, 1050928789, 0.6011919379234314, -0.6793950200080872, -0.3729375898838043, -0.1947077065706253, 13.369845390319824, -0.34407439827919006, -0.3501928150653839, 17.828157424926758, -29.443214416503906, 99.70853424072266, -0.55908203125, 0.87158203125, 0.515380859375, 0, 
119, 1050937122, 0.6025474667549133, -0.6819068193435669, -0.3695172071456909, -0.1881481111049652, 13.93474006652832, 0.1546294093132019, 0.16042515635490417, 17.55939483642578, -33.02682876586914, 103.26238250732422, -0.545166015625, 0.883544921875, 0.514892578125, 0, 
120, 1050945455, 0.6037470102310181, -0.684560239315033, -0.3661191165447235, -0.18118080496788025, 14.241785049438477, 0.34980836510658264, 0.7517982721328735, 17.051912307739258, -38.09203338623047, 106.47492218017578, -0.5263671875, 0.891357421875, 0.515869140625, 0, 
121, 1050953788, 0.6048678159713745, -0.6872460246086121, -0.362859308719635, -0.17367848753929138, 14.536191940307617, 0.42660075426101685, 0.8304172158241272, 19.06854248046875, -44.85990905761719, 109.90080261230469, -0.51611328125, 0.898193359375, 0.51806640625, 0, 
122, 1050962121, 0.6060335040092468, -0.6899018287658691, -0.35970979928970337, -0.1654416173696518, 14.960868835449219, 0.11271881312131882, 1.2402088642120361, 23.683433532714844, -52.320037841796875, 114.60591888427734, -0.497802734375, 0.904052734375, 0.5185546875, 0, 
123, 1050970454, 0.6073829531669617, -0.692363440990448, -0.3567330241203308, -0.1564076691865921, 15.375797271728516, -0.44590526819229126, 1.7745029926300049, 31.374996185302734, -60.09474563598633, 119.43853759765625, -0.47900390625, 0.91796875, 0.522216796875, 0, 
124, 1050978787, 0.608985960483551, -0.6945505738258362, -0.35395655035972595, -0.14647063612937927, 15.346532821655273, -1.3085235357284546, 1.077597975730896, 40.94881057739258, -68.407470703125, 123.90330505371094, -0.4609375, 0.927490234375, 0.519287109375, 0, 
125, 1050987120, 0.6108742952346802, -0.6963882446289062, -0.3514120578765869, -0.13560418784618378, 15.243663787841797, -2.615172863006592, 0.9990888237953186, 51.5849723815918, -77.27606964111328, 128.77023315429688, -0.43896484375, 0.9404296875, 0.520263671875, 0, 
126, 1050995453, 0.6126973032951355, -0.6981927156448364, -0.34889963269233704, -0.12410042434930801, 15.079078674316406, -3.3289129734039307, 0.2510969042778015, 54.38533401489258, -83.76133728027344, 133.10958862304688, -0.416748046875, 0.947021484375, 0.518310546875, 0, 
127, 1051003786, 0.6148855686187744, -0.6994802355766296, -0.34660738706588745, -0.11184516549110413, 14.96440315246582, -3.2704455852508545, -1.3097703456878662, 66.22258758544922, -90.34895324707031, 135.94850158691406, -0.39404296875, 0.95947265625, 0.516845703125, 0, 
128, 1051012119, 0.6176542043685913, -0.7002008557319641, -0.3440968990325928, -0.09910766035318375, 15.098716735839844, -3.685490608215332, -2.2231149673461914, 78.5676498413086, -89.35273742675781, 139.83924865722656, -0.36865234375, 0.97216796875, 0.509521484375, 0, 
129, 1051020452, 0.6204315423965454, -0.7008200883865356, -0.3412109911441803, -0.08656782656908035, 14.585648536682129, -4.606838703155518, -3.2813262939453125, 78.0667495727539, -84.23564910888672, 141.83250427246094, -0.348388671875, 0.981689453125, 0.509521484375, 0, 
130, 1051028785, 0.622604250907898, -0.7017160058021545, -0.33816590905189514, -0.07487037777900696, 13.39128303527832, -4.959575176239014, -3.6322193145751953, 65.73641967773438, -77.77113342285156, 136.23239135742188, -0.3232421875, 0.995361328125, 0.499755859375, 0, 
131, 1051037118, 0.6240672469139099, -0.7027808427810669, -0.33541226387023926, -0.06434911489486694, 12.04787826538086, -5.118099689483643, -3.3409013748168945, 52.285099029541016, -72.54390716552734, 123.9767837524414, -0.29931640625, 1.00390625, 0.496337890625, 0, 
132, 1051045451, 0.6242415308952332, -0.7045249938964844, -0.33306628465652466, -0.055108215659856796, 10.482197761535645, -5.818692207336426, -2.0632753372192383, 28.441152572631836, -70.05992889404297, 110.46737670898438, -0.281982421875, 1.009521484375, 0.497314453125, 0, 
133, 1051053784, 0.6226893663406372, -0.7072724103927612, -0.33133915066719055, -0.047339554876089096, 9.313532829284668, -6.880244255065918, -1.1931122541427612, -3.1432902812957764, -69.92599487304688, 95.73282623291016, -0.26220703125, 1.015869140625, 0.4990234375, 0, 
134, 1051062117, 0.6201960444450378, -0.7105045318603516, -0.32993289828300476, -0.04108089581131935, 8.337486267089844, -8.183097839355469, -0.3552972674369812, -23.147266387939453, -62.44118881225586, 80.66449737548828, -0.24609375, 1.017822265625, 0.502685546875, 0, 
135, 1051070450, 0.6173442602157593, -0.7136664390563965, -0.32908010482788086, -0.035716161131858826, 7.273052215576172, -9.302733421325684, -1.0060160160064697, -29.75729751586914, -60.17314147949219, 67.74519348144531, -0.231201171875, 1.019287109375, 0.51025390625, 0, 
136, 1051078783, 0.6139018535614014, -0.71714848279953, -0.32846346497535706, -0.030618570744991302, 6.249521732330322, -10.192652702331543, -4.253059387207031, -39.40150451660156, -62.227088928222656, 63.68598937988281, -0.223388671875, 1.019287109375, 0.5185546875, 0, 
137, 1051087116, 0.606403648853302, -0.7239748239517212, -0.32768818736076355, -0.027542613446712494, 5.3792548179626465, -12.424436569213867, -4.881932735443115, -116.7869873046875, -60.86370849609375, 62.2181282043457, -0.211669921875, 1.0146484375, 0.53125, 0, 
138, 1051095449, 0.5989797115325928, -0.7301598787307739, -0.3278604745864868, -0.024505287408828735, 5.580190181732178, -11.197402000427246, -7.032906532287598, -110.56131744384766, -67.61857604980469, 48.96363067626953, -0.19873046875, 1.009033203125, 0.553955078125, 0, 
139, 1051103782, 0.5970150828361511, -0.7311323881149292, -0.32968586683273315, -0.018123827874660492, 6.227969169616699, -7.860196590423584, -8.149993896484375, 2.882739543914795, -88.63546752929688, 38.87898254394531, -0.1884765625, 1.007080078125, 0.56396484375, 0, 
140, 1051112115, 0.5975501537322998, -0.7296015024185181, -0.33241328597068787, -0.01095474511384964, 7.1610107421875, -7.3590216636657715, -6.7611188888549805, 52.30622482299805, -91.80937194824219, 24.919435501098633, -0.17822265625, 1.015869140625, 0.560546875, 0, 
141, 1051120448, 0.6009106040000916, -0.7256479859352112, -0.3351461887359619, -0.0046397969126701355, 7.68503475189209, -6.433732032775879, -3.6110117435455322, 96.75110626220703, -70.18148040771484, 7.828282356262207, -0.174072265625, 1.021240234375, 0.554443359375, 0, 
142, 1051128781, 0.6059569120407104, -0.7204097509384155, -0.3373855948448181, 0.000025697052478790283, 6.407290935516357, -5.960073947906494, 0.25095921754837036, 116.4658203125, -41.615596771240234, -7.322388172149658, -0.17138671875, 1.031005859375, 0.53564453125, 0, 
143, 1051137114, 0.6102116107940674, -0.7158271670341492, -0.3394576609134674, 0.002162143588066101, 4.320920944213867, -5.419395923614502, 1.856555700302124, 91.53311157226562, -18.990009307861328, -23.045387268066406, -0.175048828125, 1.04296875, 0.521240234375, 0, 
144, 1051145447, 0.6126158833503723, -0.7127465605735779, -0.3416065573692322, 0.0014491453766822815, 2.261385202407837, -4.60709810256958, 1.383823037147522, 47.302677154541016, -0.028508739545941353, -41.29753875732422, -0.179443359375, 1.047607421875, 0.519775390625, 0, 
145, 1051153780, 0.6138046979904175, -0.7105153799057007, -0.344110369682312, -0.0016004964709281921, 0.9335082769393921, -4.387716770172119, 0.1468074917793274, 17.350257873535156, 14.037457466125488, -59.78644943237305, -0.19091796875, 1.051513671875, 0.5166015625, 0, 
146, 1051162113, 0.6141155958175659, -0.7087673544883728, -0.34709763526916504, -0.006081894040107727, 0.4597427546977997, -4.955633163452148, -0.9981298446655273, -2.170689821243286, 19.936187744140625, -74.98841094970703, -0.20361328125, 1.051025390625, 0.5166015625, 0, 
147, 1051170446, 0.6124460101127625, -0.7082621455192566, -0.35091105103492737, -0.01179589331150055, 0.589029848575592, -5.97855281829834, -2.469054937362671, -37.69390106201172, 15.257023811340332, -87.02880096435547, -0.219970703125, 1.049072265625, 0.519775390625, 0, 
148, 1051178779, 0.6090766787528992, -0.7087100148200989, -0.3555567264556885, -0.01839011162519455, 1.4869322776794434, -6.384973049163818, -4.4380950927734375, -66.47746276855469, 8.623152732849121, -98.87960052490234, -0.2392578125, 1.048828125, 0.53076171875, 0, 
149, 1051187112, 0.6058381199836731, -0.7084870338439941, -0.36106860637664795, -0.02527446299791336, 2.654423236846924, -5.955179691314697, -5.509359359741211, -60.691688537597656, 4.843119144439697, -112.35994720458984, -0.25732421875, 1.039306640625, 0.5400390625, 0, 
150, 1051195445, 0.6038296818733215, -0.7067765593528748, -0.367178350687027, -0.0322437584400177, 3.408622980117798, -5.698075294494629, -4.7778730392456055, -36.623382568359375, 7.474258899688721, -126.49043273925781, -0.27587890625, 1.031005859375, 0.546630859375, 0, 
151, 1051203778, 0.6028988361358643, -0.7037649154663086, -0.37369078397750854, -0.039824340492486954, 3.6083626747131348, -5.663350582122803, -2.633714199066162, -18.140506744384766, 15.94057559967041, -140.94271850585938, -0.298828125, 1.03076171875, 0.55419921875, 0, 
152, 1051212111, 0.6019601821899414, -0.7004919648170471, -0.38023895025253296, -0.0487460121512413, 3.4311864376068115, -5.417172431945801, -0.4590575695037842, -23.032344818115234, 28.877527236938477, -154.38587951660156, -0.324951171875, 1.0205078125, 0.55419921875, 0, 
153, 1051220444, 0.5999699234962463, -0.6978358626365662, -0.38664689660072327, -0.05973431095480919, 3.147355794906616, -4.827408790588379, 0.5602245926856995, -49.052494049072266, 43.8871955871582, -166.9954376220703, -0.351806640625, 1.01220703125, 0.55859375, 0, 
154, 1051228777, 0.5969385504722595, -0.6957911849021912, -0.3927590250968933, -0.07267935574054718, 2.970820903778076, -4.4289469718933105, 0.1783723533153534, -74.85198974609375, 59.21458435058594, -178.53402709960938, -0.381591796875, 1.0029296875, 0.5703125, 0, 
155, 1051237110, 0.5933704972267151, -0.6937740445137024, -0.39875730872154236, -0.08708865195512772, 2.9834513664245605, -4.640892028808594, -0.8804497718811035, -88.12844848632812, 71.07279968261719, -189.231689453125, -0.4130859375, 0.98828125, 0.576416015625, 0, 
156, 1051245443, 0.5896940231323242, -0.691356897354126, -0.40475142002105713, -0.10230350494384766, 3.18473744392395, -5.537259101867676, -1.8299094438552856, -90.43086242675781, 78.8394775390625, -198.71188354492188, -0.450927734375, 0.971435546875, 0.5849609375, 0, 
157, 1051253776, 0.586332380771637, -0.6881579160690308, -0.41076570749282837, -0.11801448464393616, 3.4567062854766846, -6.80980110168457, -2.409290075302124, -83.7312240600586, 86.0728988647461, -206.21966552734375, -0.4873046875, 0.951416015625, 0.59326171875, 0, 
158, 1051262109, 0.5831878781318665, -0.6842701435089111, -0.41673946380615234, -0.13415434956550598, 3.629718065261841, -7.868159770965576, -2.951174020767212, -78.71155548095703, 92.97528076171875, -213.44920349121094, -0.524658203125, 0.932861328125, 0.598388671875, 0, 
159, 1051270442, 0.5803508162498474, -0.6794853210449219, -0.4228834807872772, -0.1505495011806488, 3.6140830516815186, -8.348668098449707, -3.211519956588745, -69.68031311035156, 97.25447845458984, -221.07102966308594, -0.56298828125, 0.908447265625, 0.602294921875, 0, 
160, 1051278775, 0.5779193639755249, -0.6736539602279663, -0.4293532371520996, -0.16690850257873535, 3.4761621952056885, -8.21556568145752, -3.13179087638855, -56.74449920654297, 99.01608276367188, -229.67752075195312, -0.598388671875, 0.885009765625, 0.60302734375, 0, 
161, 1051287108, 0.5760818719863892, -0.6665650606155396, -0.436234712600708, -0.18309235572814941, 3.634042739868164, -8.136706352233887, -2.441977024078369, -39.18528747558594, 100.345947265625, -237.57199096679688, -0.64208984375, 0.86328125, 0.60205078125, 0, 
162, 1051295441, 0.574560284614563, -0.6585521101951599, -0.44321584701538086, -0.19937962293624878, 3.934202194213867, -7.838743209838867, -2.108241558074951, -29.421525955200195, 104.89839935302734, -244.6431427001953, -0.677001953125, 0.841064453125, 0.593505859375, 0, 
163, 1051303774, 0.57306307554245, -0.6498889923095703, -0.4500117301940918, -0.2161838263273239, 4.221374034881592, -7.286599636077881, -2.0101094245910645, -27.64450454711914, 112.80311584472656, -250.3819580078125, -0.720458984375, 0.813232421875, 0.5908203125, 0, 
164, 1051312107, 0.571709156036377, -0.6404712796211243, -0.456662118434906, -0.23325484991073608, 4.604291915893555, -6.762633323669434, -1.939624547958374, -22.57959747314453, 119.63436889648438, -255.99481201171875, -0.757080078125, 0.787841796875, 0.580078125, 0, 
165, 1051320440, 0.5705499053001404, -0.6301867365837097, -0.4632045030593872, -0.25056368112564087, 5.156618595123291, -6.483715057373047, -1.9638835191726685, -15.823166847229004, 126.42103576660156, -261.18695068359375, -0.796142578125, 0.757080078125, 0.571533203125, 0, 
166, 1051328773, 0.5695005059242249, -0.6191906929016113, -0.4694410264492035, -0.26814210414886475, 5.710997581481934, -6.622775554656982, -2.0761704444885254, -12.125138282775879, 134.4728546142578, -265.35211181640625, -0.836669921875, 0.72705078125, 0.55859375, 0, 
167, 1051337106, 0.5683314204216003, -0.6076073050498962, -0.47531813383102417, -0.2861616015434265, 6.131165504455566, -6.823353290557861, -2.240565061569214, -12.664074897766113, 142.2797088623047, -269.449951171875, -0.874755859375, 0.697509765625, 0.545166015625, 0, 
168, 1051345439, 0.5670351386070251, -0.5953633785247803, -0.48104649782180786, -0.3043205142021179, 6.257796764373779, -6.533944129943848, -2.2189254760742188, -10.113543510437012, 146.53330993652344, -274.64654541015625, -0.91259765625, 0.6611328125, 0.528076171875, 0, 
169, 1051353772, 0.5655860304832458, -0.5822734236717224, -0.4869784116744995, -0.32237422466278076, 6.3175435066223145, -5.995311260223389, -1.584474802017212, -3.1790850162506104, 146.4627227783203, -281.21527099609375, -0.948974609375, 0.62451171875, 0.509521484375, 0, 
170, 1051362105, 0.5637173652648926, -0.568579912185669, -0.4930090010166168, -0.34041860699653625, 6.611423969268799, -5.466964244842529, -0.6221153140068054, -1.3853451013565063, 145.64047241210938, -288.3515319824219, -0.98291015625, 0.583984375, 0.491943359375, 0, 
171, 1051370438, 0.5612003803253174, -0.5544564723968506, -0.49883508682250977, -0.3588855266571045, 7.101841449737549, -5.161393165588379, 0.18406787514686584, -6.921274185180664, 148.0023193359375, -295.4820556640625, -1.015625, 0.543212890625, 0.4697265625, 0, 
172, 1051378771, 0.5577946305274963, -0.5402587056159973, -0.5040473937988281, -0.37805411219596863, 7.7005133628845215, -5.009476184844971, 0.6927107572555542, -20.991653442382812, 152.5041961669922, -301.61248779296875, -1.05078125, 0.498291015625, 0.450439453125, 0, 
173, 1051387104, 0.5533445477485657, -0.5262476205825806, -0.5083017349243164, -0.3981279134750366, 8.598006248474121, -5.071420669555664, 0.5872334837913513, -41.42312240600586, 158.22117614746094, -305.0962829589844, -1.078369140625, 0.451904296875, 0.430419921875, 0, 
174, 1051395437, 0.548062264919281, -0.5125112533569336, -0.5114758610725403, -0.4187549352645874, 9.73476505279541, -5.107055187225342, -0.04343263804912567, -59.334476470947266, 163.2717742919922, -304.605224609375, -1.104248046875, 0.40087890625, 0.408203125, 0, 
175, 1051403770, 0.5423808097839355, -0.49885034561157227, -0.513728141784668, -0.4393835663795471, 10.8340482711792, -5.078516483306885, -0.6016416549682617, -68.02839660644531, 166.82711791992188, -299.4277648925781, -1.12841796875, 0.347900390625, 0.387939453125, 0, 
176, 1051412103, 0.5365001559257507, -0.48536014556884766, -0.5152527689933777, -0.45946791768074036, 11.517005920410156, -4.599388122558594, -0.9827300310134888, -71.2291259765625, 166.24293518066406, -290.8325500488281, -1.15185546875, 0.297119140625, 0.359619140625, 0, 
177, 1051420436, 0.5307368636131287, -0.47182831168174744, -0.5166757702827454, -0.47827377915382385, 12.121088027954102, -4.322110176086426, -0.3457808196544647, -61.71418762207031, 159.38502502441406, -279.8341064453125, -1.166015625, 0.248779296875, 0.3349609375, 0, 
178, 1051428769, 0.5251149535179138, -0.4585173726081848, -0.5179722309112549, -0.49570584297180176, 12.602987289428711, -4.2662553787231445, 0.8661819100379944, -53.48466873168945, 151.112060546875, -266.9204406738281, -1.181640625, 0.197265625, 0.314697265625, 0, 
179, 1051437102, 0.5197881460189819, -0.44539669156074524, -0.5190792083740234, -0.5118610262870789, 13.082618713378906, -4.601903438568115, 1.5469155311584473, -45.19327926635742, 145.0594482421875, -252.72207641601562, -1.19287109375, 0.15380859375, 0.291015625, 0, 
180, 1051445435, 0.5151495337486267, -0.4324474036693573, -0.5197981595993042, -0.5267096161842346, 13.020326614379883, -5.303987503051758, 0.9383015632629395, -35.60785675048828, 143.70880126953125, -235.34823608398438, -1.202392578125, 0.109619140625, 0.263427734375, 0, 
181, 1051453768, 0.5109006762504578, -0.4204925298690796, -0.5200901627540588, -0.5400703549385071, 12.0872163772583, -4.9157819747924805, -0.08134838938713074, -32.8027229309082, 133.28488159179688, -211.95050048828125, -1.20654296875, 0.067138671875, 0.243408203125, 0, 
182, 1051462101, 0.5072072744369507, -0.40988630056381226, -0.5211158990859985, -0.5506138801574707, 11.225282669067383, -3.7765347957611084, 0.21615159511566162, -13.453628540039062, 105.97382354736328, -183.00819396972656, -1.20849609375, 0.03173828125, 0.220703125, 0, 
183, 1051470434, 0.5043355822563171, -0.4004822075366974, -0.5231800675392151, -0.5581623315811157, 10.395782470703125, -2.363887310028076, 0.7734713554382324, 12.112313270568848, 78.45500946044922, -152.78146362304688, -1.2099609375, 0.005126953125, 0.2021484375, 0, 
184, 1051478767, 0.5021007657051086, -0.3928382396697998, -0.5250177979469299, -0.5638548731803894, 8.654601097106934, -1.1197625398635864, 1.4122952222824097, 15.033675193786621, 61.054298400878906, -121.45930480957031, -1.212646484375, -0.02099609375, 0.19189453125, 0, 
185, 1051487100, 0.5000990629196167, -0.3879590630531311, -0.5257725715637207, -0.568291425704956, 7.0194807052612305, 0.5452820658683777, 1.0405795574188232, -2.126779317855835, 41.81882095336914, -84.84143829345703, -1.211669921875, -0.044189453125, 0.181640625, 0, 
186, 1051495433, 0.4987304210662842, -0.3860031068325043, -0.5260283350944519, -0.570584774017334, 6.709415435791016, 2.290562629699707, -0.290811151266098, -7.25674295425415, 15.719944953918457, -41.6833610534668, -1.20751953125, -0.0546875, 0.17431640625, 0, 
187, 1051503766, 0.4983263611793518, -0.3867743909358978, -0.5259438753128052, -0.5704930424690247, 7.772675514221191, 2.867621660232544, -0.32515889406204224, -6.259030818939209, -9.20146656036377, 4.092233180999756, -1.209716796875, -0.0595703125, 0.1748046875, 0, 
188, 1051512099, 0.49908989667892456, -0.39002805948257446, -0.5249245762825012, -0.5685460567474365, 8.81773567199707, 1.9864685535430908, 0.08161045610904694, -10.973923683166504, -23.5184268951416, 48.57637023925781, -1.208984375, -0.056884765625, 0.17578125, 0, 
189, 1051520432, 0.5009767413139343, -0.3953053653240204, -0.522826611995697, -0.5651649236679077, 8.475981712341309, 0.2958161234855652, -0.6226969361305237, -16.922191619873047, -31.688966751098633, 87.91449737548828, -1.210693359375, -0.047607421875, 0.176025390625, 0, 
190, 1051528765, 0.5031783580780029, -0.4031004011631012, -0.5201225280761719, -0.5601760149002075, 8.999341011047363, -1.5371705293655396, -1.8267638683319092, -25.70323944091797, -53.389610290527344, 122.51657104492188, -1.212890625, -0.0322265625, 0.18310546875, 0, 
191, 1051537098, 0.504898726940155, -0.4132393002510071, -0.5168814063072205, -0.554208517074585, 10.388029098510742, -2.4797821044921875, -3.9690213203430176, -41.73629379272461, -76.75908660888672, 145.6353302001953, -1.213623046875, -0.012939453125, 0.19482421875, 0, 
192, 1051545431, 0.5050971508026123, -0.42537084221839905, -0.5148600935935974, -0.5466794967651367, 13.878820419311523, 0.03834044188261032, -2.9435553550720215, -43.816673278808594, -119.94551086425781, 151.79931640625, -1.2119140625, 0.0087890625, 0.2041015625, 0, 
193, 1051553764, 0.5038328170776367, -0.4356379508972168, -0.517638623714447, -0.5370523929595947, 20.347518920898438, 4.245148181915283, 1.5667847394943237, 11.51427936553955, -162.0442657470703, 114.38899230957031, -1.208740234375, 0.030029296875, 0.2333984375, 0, 
194, 1051562097, 0.5082707405090332, -0.4331553280353546, -0.533519446849823, -0.5190350413322449, 28.841123580932617, 7.062723636627197, 13.782211303710938, 290.5295715332031, -168.20159912109375, 45.09589385986328, -1.20361328125, 0.046875, 0.258544921875, 0, 
195, 1051570430, 0.5122030377388, -0.43326589465141296, -0.5374100208282471, -0.5110012292861938, 21.42442512512207, 1.1923327445983887, 18.44121742248535, 110.5450439453125, -47.24624252319336, 62.44237518310547, -1.2001953125, 0.060302734375, 0.271484375, 0, 
196, 1051578763, 0.5090997815132141, -0.44611042737960815, -0.5251264572143555, -0.5157985091209412, 11.334114074707031, -2.089693546295166, 3.4197912216186523, -229.5648193359375, 1.762937307357788, 112.81104278564453, -1.197265625, 0.068603515625, 0.2724609375, 0, 
197, 1051587096, 0.5078997611999512, -0.46018368005752563, -0.5114703178405762, -0.5183338522911072, 10.776208877563477, -2.3097732067108154, -7.92087459564209, -219.89105224609375, 2.3293564319610596, 159.73635864257812, -1.195556640625, 0.079345703125, 0.27099609375, 0, 
198, 1051595429, 0.5110166668891907, -0.4709204435348511, -0.50187087059021, -0.5149995684623718, 7.744409561157227, -8.32353687286377, -4.531034469604492, -99.06497955322266, -8.80758285522461, 182.0677490234375, -1.195556640625, 0.1025390625, 0.265869140625, 0, 
199, 1051603762, 0.5118842124938965, -0.4825883209705353, -0.49321693181991577, -0.5116864442825317, 5.096962928771973, -10.882598876953125, -5.740675926208496, -113.62549591064453, -37.626956939697266, 166.55844116210938, -1.194091796875, 0.125, 0.27099609375, 0, 
200, 1051612095, 0.5112727880477905, -0.4934004247188568, -0.4872165322303772, -0.5077196955680847, 3.938370704650879, -10.84143352508545, -11.825135231018066, -94.30839538574219, -64.46039581298828, 137.06866455078125, -1.1904296875, 0.14453125, 0.275390625, 0, 
201, 1051620428, 0.5101159811019897, -0.502205491065979, -0.48517224192619324, -0.5021775364875793, 3.3384063243865967, -11.692198753356934, -14.13337516784668, -45.720680236816406, -92.77534484863281, 104.2611312866211, -1.18603515625, 0.16162109375, 0.28564453125, 0, 
202, 1051628761, 0.5084436535835266, -0.5102024078369141, -0.48485317826271057, -0.49608370661735535, 6.847477912902832, -6.341078281402588, -10.243486404418945, -28.015872955322266, -106.3760757446289, 87.04893493652344, -1.18115234375, 0.17529296875, 0.304931640625, 0, 
203, 1051637094, 0.5085538625717163, -0.516833484172821, -0.4840075969696045, -0.48989373445510864, 9.98297119140625, -1.5567092895507812, -4.849472522735596, -8.911059379577637, -82.27006530761719, 94.62596893310547, -1.172119140625, 0.18701171875, 0.318359375, 0, 
204, 1051645427, 0.5092495083808899, -0.5231752991676331, -0.48190081119537354, -0.48448652029037476, 9.799721717834473, -2.427151679992676, -3.1840267181396484, -16.432477951049805, -61.936805725097656, 99.97834014892578, -1.16845703125, 0.198486328125, 0.32568359375, 0, 
205, 1051653760, 0.5091527104377747, -0.5297535061836243, -0.47914063930511475, -0.480158269405365, 10.170158386230469, -5.096303462982178, -3.0901145935058594, -35.29277801513672, -56.494083404541016, 93.54572296142578, -1.1630859375, 0.210205078125, 0.33642578125, 0, 
206, 1051662093, 0.5084043741226196, -0.5362539887428284, -0.47603046894073486, -0.4768172800540924, 10.58836841583252, -7.186613082885742, -1.85969078540802, -48.3125114440918, -50.560211181640625, 84.23130798339844, -1.1591796875, 0.22509765625, 0.34619140625, 0, 
207, 1051670426, 0.5070763826370239, -0.54264897108078, -0.47234126925468445, -0.4746602475643158, 9.603063583374023, -8.509069442749023, -0.9928837418556213, -63.398990631103516, -40.941585540771484, 75.85348510742188, -1.157470703125, 0.231201171875, 0.353759765625, 0, 
208, 1051678759, 0.5059051513671875, -0.5482869148254395, -0.469528466463089, -0.4722154438495636, 7.965958118438721, -9.278850555419922, -1.5982259511947632, -49.356990814208984, -43.183555603027344, 67.30488586425781, -1.15087890625, 0.238037109375, 0.35888671875, 0, 
209, 1051687092, 0.5056644082069397, -0.5527838468551636, -0.468671977519989, -0.4680633544921875, 7.469362258911133, -9.943514823913574, -1.889971137046814, -10.67723274230957, -56.298160552978516, 63.194244384765625, -1.14599609375, 0.24609375, 0.3642578125, 0, 
210, 1051695425, 0.5065215826034546, -0.5563773512840271, -0.4694395065307617, -0.4620712399482727, 8.164514541625977, -9.95141887664795, -1.8667055368423462, 26.264944076538086, -68.63858795166016, 64.80170440673828, -1.141845703125, 0.25537109375, 0.372802734375, 0, 
211, 1051703758, 0.508676290512085, -0.5588128566741943, -0.4715123772621155, -0.4545941948890686, 8.739187240600586, -8.714214324951172, -2.2515456676483154, 62.135684967041016, -73.40141296386719, 65.9709243774414, -1.134765625, 0.269775390625, 0.382568359375, 0, 
212, 1051712091, 0.5124902129173279, -0.5594184994697571, -0.47472837567329407, -0.446139931678772, 9.183660507202148, -6.1481404304504395, -1.8716506958007812, 101.17252349853516, -66.66590881347656, 62.48617172241211, -1.13037109375, 0.28369140625, 0.392822265625, 0, 
213, 1051720424, 0.5170342922210693, -0.5588517785072327, -0.478109747171402, -0.43792033195495605, 9.584314346313477, -3.6979751586914062, 0.23431368172168732, 114.52993774414062, -54.100154876708984, 56.39027404785156, -1.125, 0.299072265625, 0.39599609375, 0, 
214, 1051728757, 0.5211611390113831, -0.5584651231765747, -0.48044857382774353, -0.430905818939209, 10.228704452514648, -1.697178602218628, 0.2996470332145691, 95.84593200683594, -41.222312927246094, 54.50039291381836, -1.12060546875, 0.3125, 0.399169921875, 0, 
215, 1051737090, 0.5239177942276001, -0.5595135688781738, -0.48071783781051636, -0.4258732795715332, 10.619388580322266, -0.3317708671092987, -1.0287001132965088, 49.6701545715332, -28.756460189819336, 57.541297912597656, -1.118896484375, 0.326416015625, 0.4033203125, 0, 
216, 1051745423, 0.5250409245491028, -0.5619598627090454, -0.4791945815086365, -0.42297619581222534, 10.140633583068848, 1.2525615692138672, -2.518317699432373, 2.4251761436462402, -18.36282730102539, 55.63312530517578, -1.11474609375, 0.32958984375, 0.404296875, 0, 
217, 1051753756, 0.5249983072280884, -0.5650402307510376, -0.4775654375553131, -0.4207617938518524, 9.344731330871582, 1.1236740350723267, -4.100310802459717, -16.285118103027344, -23.730426788330078, 48.91168975830078, -1.1123046875, 0.337646484375, 0.407470703125, 0, 
218, 1051762089, 0.524440586566925, -0.5682414174079895, -0.4761338531970978, -0.41876399517059326, 9.366738319396973, -1.6309003829956055, -3.8632185459136963, -21.42987632751465, -27.51834487915039, 43.633548736572266, -1.10693359375, 0.34326171875, 0.412109375, 0, 
219, 1051770422, 0.523791491985321, -0.5713682174682617, -0.47457027435302734, -0.4170934557914734, 9.510576248168945, -3.8822104930877686, -2.1906917095184326, -24.518753051757812, -24.203155517578125, 41.299259185791016, -1.102294921875, 0.3505859375, 0.416259765625, 0, 
220, 1051778755, 0.5232576727867126, -0.5743527412414551, -0.47283363342285156, -0.4156343638896942, 9.289815902709961, -4.531147003173828, -2.4096786975860596, -24.9530086517334, -19.70264434814453, 40.860984802246094, -1.100341796875, 0.355712890625, 0.419921875, 0, 
221, 1051787088, 0.523708701133728, -0.5764771103858948, -0.4718136191368103, -0.41327744722366333, 8.93786334991455, -5.002692222595215, -4.057525157928467, -1.0536178350448608, -20.646005630493164, 41.699832916259766, -1.09716796875, 0.359375, 0.42333984375, 0, 
222, 1051795421, 0.52531898021698, -0.5774887204170227, -0.4718947112560272, -0.40971359610557556, 8.621964454650879, -5.890120029449463, -4.089623928070068, 30.24085807800293, -24.283620834350586, 41.028709411621094, -1.096923828125, 0.363037109375, 0.42431640625, 0, 
223, 1051803754, 0.5275000929832458, -0.5778118371963501, -0.4727303981781006, -0.405470073223114, 8.553315162658691, -6.0233869552612305, -2.800750255584717, 48.414981842041016, -27.553346633911133, 38.68394470214844, -1.09375, 0.372314453125, 0.427978515625, 0, 
224, 1051812087, 0.5300582051277161, -0.5776989459991455, -0.47401052713394165, -0.400773286819458, 8.963547706604004, -5.175342559814453, -1.9722706079483032, 59.993186950683594, -29.492176055908203, 37.7199592590332, -1.08935546875, 0.381591796875, 0.427978515625, 0, 
225, 1051820420, 0.5329750776290894, -0.5772423148155212, -0.4754154086112976, -0.3958687484264374, 9.518926620483398, -3.8879854679107666, -1.289894938468933, 67.39069366455078, -27.812179565429688, 37.94906234741211, -1.086669921875, 0.391845703125, 0.427734375, 0, 
226, 1051828753, 0.5359467267990112, -0.5767378211021423, -0.4765459895133972, -0.3912053108215332, 9.61227035522461, -2.547579765319824, -0.44644275307655334, 65.10689544677734, -23.277732849121094, 38.37470626831055, -1.082763671875, 0.401611328125, 0.4306640625, 0, 
227, 1051837086, 0.5384892225265503, -0.5766084790229797, -0.477145791053772, -0.38715222477912903, 9.693082809448242, -1.1340707540512085, -0.23762299120426178, 52.08371353149414, -19.343870162963867, 38.19437026977539, -1.080322265625, 0.40673828125, 0.4267578125, 0, 
228, 1051845419, 0.5404649972915649, -0.5769979953765869, -0.4771839380264282, -0.38375672698020935, 9.895842552185059, -0.06669869273900986, -0.5259089469909668, 36.44312286376953, -16.46208381652832, 38.20667266845703, -1.077392578125, 0.41748046875, 0.4267578125, 0, 
229, 1051853752, 0.5417920351028442, -0.5780152678489685, -0.47662457823753357, -0.3810403347015381, 10.04089641571045, 0.4958505928516388, -0.610359251499176, 19.009366989135742, -14.197124481201172, 38.55921173095703, -1.073974609375, 0.42333984375, 0.42919921875, 0, 
230, 1051862085, 0.5425084233283997, -0.5797072649002075, -0.4754537343978882, -0.37890759110450745, 10.115469932556152, 0.33156299591064453, -0.9337766170501709, 2.1099886894226074, -12.544770240783691, 40.33191680908203, -1.069091796875, 0.431396484375, 0.430908203125, 0, 
231, 1051870418, 0.543201744556427, -0.5814801454544067, -0.47418224811553955, -0.3767848610877991, 9.763543128967285, -0.6543686389923096, -1.409484624862671, 0.7265874147415161, -12.2841215133667, 41.44192123413086, -1.069091796875, 0.4345703125, 0.431884765625, 0, 
232, 1051878751, 0.5437973141670227, -0.5833407044410706, -0.47291913628578186, -0.37463122606277466, 9.330293655395508, -2.175968885421753, -2.091135025024414, -0.4601605236530304, -13.689037322998047, 41.69688034057617, -1.065673828125, 0.439697265625, 0.433349609375, 0, 
233, 1051887084, 0.5444251298904419, -0.5851249694824219, -0.4718822240829468, -0.37223708629608154, 9.139810562133789, -3.1127512454986572, -2.3300421237945557, 3.0919125080108643, -16.704965591430664, 41.339561462402344, -1.062255859375, 0.446044921875, 0.43408203125, 0, 
234, 1051895417, 0.5457183718681335, -0.5862968564033508, -0.4714225232601166, -0.3690683841705322, 9.14682674407959, -3.0044617652893066, -1.6482118368148804, 21.017921447753906, -19.80696678161621, 41.93854522705078, -1.05517578125, 0.4541015625, 0.438232421875, 0, 
235, 1051903750, 0.5474944710731506, -0.5871318578720093, -0.47109469771385193, -0.36551180481910706, 9.078316688537598, -2.649423360824585, -1.0691035985946655, 30.62066078186035, -19.076358795166016, 44.039306640625, -1.05517578125, 0.4619140625, 0.437744140625, 0, 
236, 1051912083, 0.5492114424705505, -0.5881070494651794, -0.4706572890281677, -0.3619140088558197, 8.978170394897461, -1.860901117324829, -1.2834452390670776, 28.80852508544922, -19.67998504638672, 45.85651397705078, -1.0498046875, 0.46923828125, 0.440185546875, 0, 
237, 1051920416, 0.5509557723999023, -0.589019775390625, -0.4704894423484802, -0.3579748868942261, 9.202993392944336, -0.7296119332313538, -1.0096315145492554, 33.04179000854492, -23.97981834411621, 45.97794723510742, -1.0458984375, 0.475830078125, 0.440185546875, 0, 
238, 1051928749, 0.5526206493377686, -0.5900970697402954, -0.4701695442199707, -0.35403281450271606, 9.750631332397461, -0.27359503507614136, -0.28585973381996155, 30.43187713623047, -24.184864044189453, 47.915340423583984, -1.046630859375, 0.483642578125, 0.438232421875, 0, 
239, 1051937082, 0.5537818670272827, -0.5918363928794861, -0.4690350294113159, -0.35080552101135254, 9.901422500610352, -0.6812044382095337, 0.018914051353931427, 12.727813720703125, -18.667348861694336, 50.91775131225586, -1.035888671875, 0.493896484375, 0.44287109375, 0, 
240, 1051945415, 0.5544936060905457, -0.59400874376297, -0.46752479672431946, -0.3480146527290344, 9.421738624572754, -1.134019136428833, -0.849105715751648, 1.1424360275268555, -17.246978759765625, 51.281837463378906, -1.03515625, 0.49951171875, 0.444580078125, 0, 
241, 1051953748, 0.5551382303237915, -0.5962733030319214, -0.4660440683364868, -0.34508776664733887, 9.400126457214355, -1.9700112342834473, -1.1264829635620117, 0.9154423475265503, -19.458059310913086, 52.35783004760742, -1.02880859375, 0.503662109375, 0.447998046875, 0, 
242, 1051962081, 0.5557106733322144, -0.598727822303772, -0.46436619758605957, -0.34216612577438354, 9.426100730895996, -2.7075750827789307, -0.6343516111373901, -2.1061112880706787, -19.272695541381836, 54.80119323730469, -1.0244140625, 0.51416015625, 0.447998046875, 0, 
243, 1051970414, 0.5562554001808167, -0.6013591885566711, -0.46251803636550903, -0.3391563594341278, 9.528656959533691, -2.76133394241333, -0.9523091316223145, -3.915123462677002, -19.711320877075195, 57.890403747558594, -1.0185546875, 0.518798828125, 0.451171875, 0, 
244, 1051978747, 0.5570242404937744, -0.6038947701454163, -0.46066704392433167, -0.3358927071094513, 9.806987762451172, -2.554356813430786, -1.1407724618911743, 0.2649417519569397, -19.91252326965332, 60.27581787109375, -1.015869140625, 0.52392578125, 0.453369140625, 0, 
245, 1051987080, 0.5579414963722229, -0.6063717603683472, -0.4588075280189514, -0.33243536949157715, 10.080370903015137, -2.2302305698394775, -0.8810582756996155, 3.1315953731536865, -20.248796463012695, 62.167842864990234, -1.010498046875, 0.5322265625, 0.455810546875, 0, 
246, 1051995413, 0.558815062046051, -0.6089805960655212, -0.45685675740242004, -0.32886672019958496, 10.128005027770996, -1.706310749053955, -0.9415083527565002, 2.0424234867095947, -21.35032081604004, 64.39066314697266, -1.00244140625, 0.54248046875, 0.4580078125, 0, 
247, 1052003746, 0.5598911643028259, -0.6114908456802368, -0.45501652359962463, -0.3249061107635498, 10.117656707763672, -1.4035181999206543, -0.7271343469619751, 7.461523056030273, -23.773983001708984, 66.80400085449219, -1.002685546875, 0.55078125, 0.4599609375, 0, 
248, 1052012079, 0.561278223991394, -0.6137992143630981, -0.45341166853904724, -0.32037219405174255, 10.051424980163574, -1.740868330001831, 0.23719364404678345, 16.266698837280273, -27.54953384399414, 69.33634185791016, -0.993408203125, 0.55859375, 0.463623046875, 0, 
249, 1052020412, 0.5626546740531921, -0.6163922548294067, -0.45164135098457336, -0.3154416084289551, 10.591286659240723, -1.8106563091278076, 1.411535382270813, 15.722972869873047, -30.952228546142578, 75.56221008300781, -0.98193359375, 0.56982421875, 0.463623046875, 0, 
250, 1052028745, 0.5641512274742126, -0.6191866993904114, -0.4495924413204193, -0.31017887592315674, 11.292423248291016, -0.4592212736606598, 1.72008216381073, 16.039094924926758, -31.728984832763672, 82.22577667236328, -0.973876953125, 0.582275390625, 0.4677734375, 0, 
251, 1052037078, 0.5664264559745789, -0.621584951877594, -0.44746121764183044, -0.304261177778244, 11.752839088439941, 0.753334105014801, 1.746856689453125, 29.43890380859375, -30.188241958618164, 88.93299865722656, -0.968017578125, 0.590576171875, 0.468017578125, 0, 
252, 1052045411, 0.5688136219978333, -0.6242390871047974, -0.4449321925640106, -0.29801860451698303, 11.653244018554688, 0.9499228000640869, 1.7248570919036865, 28.739620208740234, -30.224273681640625, 96.8542251586914, -0.95703125, 0.603515625, 0.468994140625, 0, 
253, 1052053744, 0.571201503276825, -0.6272076368331909, -0.4420636296272278, -0.291413813829422, 11.748258590698242, 1.1491808891296387, 0.8860277533531189, 27.107322692871094, -32.00224304199219, 104.60598754882812, -0.948974609375, 0.614990234375, 0.469482421875, 0, 
254, 1052062077, 0.5736585259437561, -0.6303473711013794, -0.43897610902786255, -0.2843959629535675, 11.74448299407959, 0.9451492428779602, 0.5522427558898926, 27.995620727539062, -34.06999588012695, 110.97892761230469, -0.937744140625, 0.633544921875, 0.4697265625, 0, 
255, 1052070410, 0.5761264562606812, -0.6336068511009216, -0.43567782640457153, -0.2771434187889099, 11.59045696258545, 0.7686008810997009, 0.27781784534454346, 27.730257034301758, -34.900840759277344, 115.53137969970703, -0.92822265625, 0.64697265625, 0.472412109375, 0, 
256, 1052078743, 0.5787131190299988, -0.6369193196296692, -0.43215882778167725, -0.2695675492286682, 11.682974815368652, 0.8167308568954468, -0.09861411154270172, 29.44979476928711, -35.402313232421875, 120.67835235595703, -0.912841796875, 0.66259765625, 0.470458984375, 0, 
257, 1052087076, 0.5812363028526306, -0.6404891610145569, -0.428338885307312, -0.2616613507270813, 12.037541389465332, 0.5497731566429138, -0.15819111466407776, 27.688447952270508, -37.302459716796875, 127.37662506103516, -0.89990234375, 0.67919921875, 0.469482421875, 0, 
258, 1052095409, 0.5836542844772339, -0.6442877054214478, -0.4243522882461548, -0.25331592559814453, 12.361255645751953, 0.169383704662323, -0.22561703622341156, 26.926097869873047, -41.21052932739258, 133.1854705810547, -0.8876953125, 0.695068359375, 0.47412109375, 0, 
259, 1052103742, 0.5861298441886902, -0.6481001973152161, -0.42037999629974365, -0.2443389892578125, 12.732755661010742, -0.21843703091144562, 0.5665125250816345, 31.056989669799805, -46.71358108520508, 138.57923889160156, -0.8701171875, 0.710693359375, 0.47509765625, 0, 
260, 1052112075, 0.5888123512268066, -0.6518229842185974, -0.4164572060108185, -0.23450665175914764, 13.531996726989746, -0.6318148374557495, 1.0801199674606323, 38.7390251159668, -53.158897399902344, 145.03997802734375, -0.857177734375, 0.725341796875, 0.477294921875, 0, 
261, 1052120408, 0.5918387174606323, -0.6553841233253479, -0.412440687417984, -0.2238178849220276, 15.147228240966797, -0.7156795263290405, 1.638872504234314, 47.72791290283203, -57.67321014404297, 153.20196533203125, -0.839599609375, 0.744384765625, 0.47802734375, 0, 
262, 1052128741, 0.5950446724891663, -0.6590011715888977, -0.40802162885665894, -0.21251076459884644, 17.544111251831055, -0.013114172965288162, 2.2023565769195557, 51.1637077331543, -59.03887176513672, 162.5294952392578, -0.819091796875, 0.7626953125, 0.4755859375, 0, 
263, 1052137074, 0.5983669757843018, -0.6626945734024048, -0.40306946635246277, -0.2008252739906311, 19.990938186645508, 1.2173099517822266, 2.7826833724975586, 52.14463806152344, -57.77245330810547, 171.4698944091797, -0.798095703125, 0.783935546875, 0.47265625, 0, 
264, 1052145407, 0.6016724109649658, -0.66646409034729, -0.39770108461380005, -0.18881893157958984, 21.648670196533203, 2.0094122886657715, 3.916309356689453, 52.00699234008789, -57.47694396972656, 178.03424072265625, -0.775146484375, 0.799072265625, 0.476806640625, 0, 
265, 1052153740, 0.6046936511993408, -0.6702921986579895, -0.3922370374202728, -0.17665539681911469, 21.98630714416504, 1.846626877784729, 4.895207405090332, 49.50688552856445, -59.954833984375, 180.0999755859375, -0.752685546875, 0.81884765625, 0.47314453125, 0, 
266, 1052162073, 0.6070954203605652, -0.6743679642677307, -0.38680875301361084, -0.1644536852836609, 21.863595962524414, 1.753251552581787, 4.5911736488342285, 42.053314208984375, -64.42473602294922, 179.61436462402344, -0.7294921875, 0.836669921875, 0.46875, 0, 
267, 1052170406, 0.6086709499359131, -0.6786962151527405, -0.3818090558052063, -0.15203894674777985, 22.10371971130371, 4.001856803894043, 4.385106563568115, 34.35477828979492, -75.10391235351562, 177.27256774902344, -0.705322265625, 0.853759765625, 0.469970703125, 0, 
268, 1052178739, 0.6106417179107666, -0.6824525594711304, -0.3768833875656128, -0.13905785977840424, 21.2059268951416, 4.450865745544434, 3.8021163940429688, 45.990718841552734, -77.57965087890625, 178.76597595214844, -0.677978515625, 0.867919921875, 0.468994140625, 0, 
269, 1052187072, 0.6123889684677124, -0.6862618923187256, -0.3716824948787689, -0.12601357698440552, 18.449953079223633, 3.01796555519104, 0.6570323705673218, 43.20138931274414, -77.30804443359375, 182.1943359375, -0.65380859375, 0.882080078125, 0.468505859375, 0, 
270, 1052195405, 0.6125767827033997, -0.6912515759468079, -0.3661269545555115, -0.1134684756398201, 16.370586395263672, 0.7527777552604675, -2.687727212905884, 15.426607131958008, -79.43894958496094, 184.20071411132812, -0.624755859375, 0.893798828125, 0.46875, 0, 
271, 1052203738, 0.6111689209938049, -0.6972226500511169, -0.360571950674057, -0.10170597583055496, 14.587543487548828, -2.56850528717041, -4.388945579528809, -11.995537757873535, -81.7810287475586, 180.60585021972656, -0.600341796875, 0.9033203125, 0.472900390625, 0, 
272, 1052212071, 0.6091233491897583, -0.7031951546669006, -0.35554829239845276, -0.08985430747270584, 13.488530158996582, -5.45051383972168, -6.875234603881836, -16.892528533935547, -90.05652618408203, 174.82400512695312, -0.570556640625, 0.907470703125, 0.4765625, 0, 
273, 1052220404, 0.6063598394393921, -0.7092183828353882, -0.351032555103302, -0.07820738852024078, 12.912734031677246, -7.984491348266602, -7.549381256103516, -24.6611385345459, -96.11833953857422, 168.16160583496094, -0.542236328125, 0.91259765625, 0.482666015625, 0, 
274, 1052228737, 0.6022492051124573, -0.7156201004981995, -0.3474191427230835, -0.06698248535394669, 12.118149757385254, -9.773697853088379, -4.63465690612793, -41.993072509765625, -106.22093200683594, 155.6162567138672, -0.5166015625, 0.917236328125, 0.488525390625, 0, 
275, 1052237070, 0.5947310328483582, -0.7238715887069702, -0.3450455665588379, -0.0570233017206192, 11.212052345275879, -9.942367553710938, -1.6583607196807861, -95.75242614746094, -122.24301147460938, 139.261474609375, -0.4912109375, 0.91748046875, 0.501708984375, 0, 
276, 1052245403, 0.5832387208938599, -0.7347045540809631, -0.3427818715572357, -0.050456080585718155, 11.16087532043457, -8.985535621643066, -4.202058792114258, -172.44020080566406, -110.0350341796875, 118.9300537109375, -0.46337890625, 0.90576171875, 0.522705078125, 0, 
277, 1052253736, 0.5789456367492676, -0.7394343614578247, -0.34075066447257996, -0.04416666179895401, 10.629081726074219, -7.2684760093688965, -7.2834882736206055, -51.883056640625, -71.16557312011719, 91.21685791015625, -0.445068359375, 0.897216796875, 0.53515625, 0, 
278, 1052262069, 0.5813120007514954, -0.7389991283416748, -0.3384712338447571, -0.037374548614025116, 8.003752708435059, -11.528879165649414, -1.9854068756103516, 59.148162841796875, -39.71046447753906, 76.94254302978516, -0.43017578125, 0.8994140625, 0.532958984375, 0, 
279, 1052270402, 0.5760486125946045, -0.7451056241989136, -0.3339751660823822, -0.038068607449531555, 2.997811794281006, -16.33310317993164, -5.403928756713867, -106.64568328857422, 14.954687118530273, 66.81462860107422, -0.419677734375, 0.89599609375, 0.5341796875, 0, 
280, 1052278735, 0.5700613260269165, -0.7508061528205872, -0.3314796984195709, -0.03800412267446518, -0.8593782782554626, -13.531815528869629, -16.05169677734375, -106.33757019042969, -11.520682334899902, 49.41850280761719, -0.410400390625, 0.879638671875, 0.543701171875, 0, 
281, 1052287068, 0.5704679489135742, -0.7497909069061279, -0.33370327949523926, -0.032015908509492874, -1.7441166639328003, -10.617117881774902, -14.940937995910645, 41.81329345703125, -77.29013061523438, 20.506301879882812, -0.39990234375, 0.875, 0.54833984375, 0, 
282, 1052295401, 0.5739538073539734, -0.7447946071624756, -0.33959200978279114, -0.023198887705802917, 1.5830397605895996, -7.910458564758301, -10.591482162475586, 119.37022399902344, -119.05941772460938, -12.650779724121094, -0.387451171875, 0.87890625, 0.5380859375, 0, 
283, 1052303734, 0.5814242959022522, -0.7360697388648987, -0.3463011085987091, -0.015016786754131317, 5.262019634246826, -5.619293689727783, -4.292564392089844, 186.9930877685547, -99.45137023925781, -41.59123611450195, -0.379150390625, 0.881591796875, 0.520263671875, 0, 
284, 1052312067, 0.5913379192352295, -0.7252618074417114, -0.35244911909103394, -0.009867995977401733, 5.503875732421875, -4.812317848205566, 0.7193003296852112, 213.73666381835938, -51.978023529052734, -70.19634246826172, -0.37841796875, 0.89404296875, 0.497802734375, 0, 
285, 1052320400, 0.6010146737098694, -0.7145187854766846, -0.3580102324485779, -0.008727140724658966, 3.712334156036377, -3.3819549083709717, 2.465331792831421, 191.45191955566406, -8.550915718078613, -96.03123474121094, -0.380859375, 0.896240234375, 0.472412109375, 0, 
286, 1052328733, 0.6085990071296692, -0.7056270241737366, -0.3627127707004547, -0.01184728741645813, 1.2857060432434082, -1.8987314701080322, 2.25079607963562, 134.39480590820312, 30.05376434326172, -114.57066345214844, -0.394287109375, 0.895263671875, 0.44921875, 0, 
287, 1052337066, 0.61368328332901, -0.6987708806991577, -0.3671228885650635, -0.018323145806789398, -0.9479000568389893, -2.0475072860717773, 1.5975620746612549, 76.40991973876953, 52.11863708496094, -129.4320831298828, -0.40869140625, 0.8935546875, 0.434326171875, 0, 
288, 1052345399, 0.6158676147460938, -0.694041907787323, -0.3718826174736023, -0.026815280318260193, -1.9828370809555054, -3.5012447834014893, 0.8640367984771729, 20.403316497802734, 53.509029388427734, -140.4379425048828, -0.42578125, 0.88623046875, 0.427734375, 0, 
289, 1052353732, 0.6150364875793457, -0.6912839412689209, -0.37751513719558716, -0.036630403250455856, -1.8713163137435913, -4.757903575897217, -1.0228129625320435, -31.429443359375, 42.45558166503906, -150.36917114257812, -0.440185546875, 0.8681640625, 0.425537109375, 0, 
290, 1052362065, 0.6121963858604431, -0.689471960067749, -0.3842289447784424, -0.047063712030649185, -1.023964762687683, -4.793295860290527, -3.854754686355591, -61.27947998046875, 28.422801971435547, -162.61399841308594, -0.455810546875, 0.857177734375, 0.427978515625, 0, 
291, 1052370398, 0.6092411875724792, -0.6869734525680542, -0.391848623752594, -0.05788222327828407, 0.0768144503235817, -3.888983964920044, -5.183902263641357, -57.95796203613281, 24.139440536499023, -177.53890991210938, -0.47314453125, 0.839111328125, 0.427978515625, 0, 
292, 1052378731, 0.6072800159454346, -0.682960569858551, -0.3999558389186859, -0.06938453018665314, 0.7126924991607666, -3.637991428375244, -3.850651502609253, -39.25843811035156, 33.221370697021484, -195.8543701171875, -0.4921875, 0.823486328125, 0.43603515625, 0, 
293, 1052387064, 0.6059550642967224, -0.6776720881462097, -0.4084487557411194, -0.08216805756092072, 0.8593994975090027, -4.174676895141602, -1.6247775554656982, -29.213340759277344, 46.616477966308594, -215.99136352539062, -0.51806640625, 0.8046875, 0.4375, 0, 
294, 1052395397, 0.604255199432373, -0.6720538139343262, -0.41704103350639343, -0.09643086791038513, 0.9717525243759155, -4.853363513946533, 0.1489967256784439, -38.25187301635742, 57.97507095336914, -232.1177215576172, -0.5400390625, 0.785400390625, 0.433349609375, 0, 
295, 1052403730, 0.6013416647911072, -0.6670016050338745, -0.42519721388816833, -0.1127268522977829, 1.3443526029586792, -5.46152925491333, 1.0727040767669678, -66.31373596191406, 72.55192565917969, -242.76412963867188, -0.564208984375, 0.76416015625, 0.43359375, 0, 
296, 1052412063, 0.5971941947937012, -0.6626901030540466, -0.43243956565856934, -0.13114874064922333, 1.7366429567337036, -5.651829719543457, 1.0305044651031494, -97.70616149902344, 91.3758544921875, -250.1300811767578, -0.5927734375, 0.738525390625, 0.433349609375, 0, 
297, 1052420396, 0.5922701954841614, -0.6586419939994812, -0.4387373924255371, -0.15139152109622955, 1.9575356245040894, -5.622504711151123, 0.06641405820846558, -119.39493560791016, 110.49474334716797, -255.74476623535156, -0.618896484375, 0.70849609375, 0.435791015625, 0, 
298, 1052428729, 0.5869299173355103, -0.6544897556304932, -0.4441031813621521, -0.17300842702388763, 2.0505197048187256, -5.911062717437744, -1.913191318511963, -132.63507080078125, 128.3800506591797, -260.5625, -0.644287109375, 0.676513671875, 0.437255859375, 0, 
299, 1052437062, 0.5817155241966248, -0.6495956182479858, -0.4488765001296997, -0.19530896842479706, 2.250258684158325, -6.054800033569336, -4.3966264724731445, -131.033935546875, 141.69247436523438, -264.4282531738281, -0.6728515625, 0.645751953125, 0.43408203125, 0, 
300, 1052445395, 0.5781574249267578, -0.6425022482872009, -0.45386043190956116, -0.21665355563163757, 2.7545342445373535, -6.369295597076416, -4.428432941436768, -92.2401123046875, 147.7565155029297, -268.34075927734375, -0.69873046875, 0.61376953125, 0.4306640625, 0, 
301, 1052453728, 0.5759987831115723, -0.6333437561988831, -0.4592140018939972, -0.2371213734149933, 3.0086216926574707, -7.23793363571167, -2.5730512142181396, -56.8228645324707, 151.80047607421875, -272.82275390625, -0.72900390625, 0.586181640625, 0.423583984375, 0, 
302, 1052462061, 0.5735818147659302, -0.6235695481300354, -0.4642843008041382, -0.2580854892730713, 3.082815408706665, -7.593595504760742, -1.2558692693710327, -58.31150436401367, 158.90264892578125, -279.5515441894531, -0.75, 0.55322265625, 0.408935546875, 0, 
303, 1052470394, 0.5705090761184692, -0.6134197115898132, -0.4687645435333252, -0.28017574548721313, 3.267277479171753, -7.544013500213623, -0.9822273254394531, -70.2084732055664, 170.2096710205078, -287.5935363769531, -0.776611328125, 0.522705078125, 0.399169921875, 0, 
304, 1052478727, 0.5668970346450806, -0.6027789115905762, -0.4726482927799225, -0.3031367063522339, 3.608668565750122, -7.830606937408447, -1.6943033933639526, -78.86752319335938, 180.802734375, -295.1490478515625, -0.80322265625, 0.486572265625, 0.384033203125, 0, 
305, 1052487060, 0.5632243156433105, -0.5910391807556152, -0.4763631224632263, -0.32639285922050476, 3.8126630783081055, -7.860157489776611, -2.476911783218384, -73.4015121459961, 188.60208129882812, -302.96405029296875, -0.830078125, 0.44921875, 0.366943359375, 0, 
306, 1052495393, 0.559813380241394, -0.5777931213378906, -0.48068660497665405, -0.3488660454750061, 3.9407215118408203, -7.759429931640625, -2.287503719329834, -51.767539978027344, 186.1536865234375, -311.0242004394531, -0.850830078125, 0.40966796875, 0.348876953125, 0, 
307, 1052503726, 0.5564264059066772, -0.5632559061050415, -0.4857349693775177, -0.37040114402770996, 4.5748724937438965, -7.904528617858887, -2.107607126235962, -31.939369201660156, 179.32040405273438, -317.5317687988281, -0.869873046875, 0.37353515625, 0.330810546875, 0, 
308, 1052512059, 0.5532823801040649, -0.5473283529281616, -0.49146151542663574, -0.39086973667144775, 5.676321983337402, -8.020516395568848, -2.0240743160247803, -8.85692024230957, 174.7255096435547, -323.1261901855469, -0.88671875, 0.33154296875, 0.308349609375, 0, 
309, 1052520392, 0.5502694249153137, -0.5300838351249695, -0.49785229563713074, -0.4103180170059204, 6.970951557159424, -8.118268966674805, -1.4314582347869873, 12.62763500213623, 169.81105041503906, -328.13824462890625, -0.9052734375, 0.29541015625, 0.291259765625, 0, 
310, 1052528725, 0.5470227599143982, -0.5119455456733704, -0.5046995878219604, -0.4289051294326782, 8.591307640075684, -7.91691780090332, -0.8505943417549133, 26.15105438232422, 163.6680908203125, -332.8093566894531, -0.919921875, 0.255859375, 0.26953125, 0, 
311, 1052537058, 0.5437064170837402, -0.4929237961769104, -0.5116391181945801, -0.4468085765838623, 10.69099235534668, -7.205033302307129, -1.726054310798645, 37.596580505371094, 162.75131225585938, -334.4697570800781, -0.930419921875, 0.21826171875, 0.248046875, 0, 
312, 1052545391, 0.5399512648582458, -0.4739495813846588, -0.5179412364959717, -0.46428897976875305, 12.266783714294434, -5.064304351806641, -2.85688853263855, 33.32609176635742, 161.40716552734375, -329.73602294921875, -0.941650390625, 0.1787109375, 0.228515625, 0, 
313, 1052553724, 0.5353426337242126, -0.45573490858078003, -0.5238786339759827, -0.4809034764766693, 13.525822639465332, -2.4860377311706543, -1.7543554306030273, 25.956090927124023, 147.41282653808594, -320.60693359375, -0.946533203125, 0.13818359375, 0.209716796875, 0, 
314, 1052562057, 0.5298691987991333, -0.4387454092502594, -0.5293028950691223, -0.4965708255767822, 14.788186073303223, -0.6114990711212158, 0.3707873523235321, 14.951336860656738, 131.04444885253906, -307.66314697265625, -0.95166015625, 0.098388671875, 0.19091796875, 0, 
315, 1052570390, 0.5240765810012817, -0.4229453504085541, -0.5334497094154358, -0.5117568969726562, 15.678125381469727, -0.21531078219413757, 2.113708972930908, -1.6248412132263184, 126.82486724853516, -289.6777648925781, -0.954345703125, 0.057373046875, 0.17578125, 0, 
316, 1052578723, 0.5185076594352722, -0.40849238634109497, -0.5355767011642456, -0.5267297625541687, 15.83868408203125, -1.390509843826294, 2.588156223297119, -21.9219970703125, 132.47804260253906, -265.2210693359375, -0.95458984375, 0.02392578125, 0.15576171875, 0, 
317, 1052587056, 0.5127464532852173, -0.3967536985874176, -0.5351805090904236, -0.5415369868278503, 15.256028175354004, -2.028043508529663, 1.4509577751159668, -60.13187789916992, 128.2256622314453, -231.0082550048828, -0.95166015625, -0.002197265625, 0.139892578125, 0, 
318, 1052595389, 0.5068519711494446, -0.38801518082618713, -0.5333812236785889, -0.5550249814987183, 13.369425773620605, -1.7358109951019287, 0.6783890724182129, -82.03616333007812, 107.83173370361328, -193.21263122558594, -0.95068359375, -0.034912109375, 0.125, 0, 
319, 1052603722, 0.5019965767860413, -0.38076817989349365, -0.532784640789032, -0.5649411678314209, 10.14913272857666, -1.5398920774459839, 0.8065258264541626, -51.51671600341797, 76.4955825805664, -155.55152893066406, -0.9453125, -0.05419921875, 0.113525390625, 0, 
320, 1052612055, 0.4987855553627014, -0.37517446279525757, -0.5331417322158813, -0.5711566805839539, 6.7643208503723145, -2.2107505798339844, 0.7810510993003845, -19.78537368774414, 49.86637496948242, -110.41477966308594, -0.943115234375, -0.071044921875, 0.102294921875, 0, 
321, 1052620388, 0.49684715270996094, -0.37269988656044006, -0.5335816740989685, -0.5740482211112976, 4.909726142883301, -2.078946828842163, -1.9006098508834839, -9.6034574508667, 16.85209083557129, -54.894649505615234, -0.9443359375, -0.081787109375, 0.102294921875, 0, 
322, 1052628721, 0.4961661994457245, -0.37364640831947327, -0.5347550511360168, -0.5729290246963501, 6.4608659744262695, -0.348082572221756, -3.138253927230835, 8.695578575134277, -26.368093490600586, 3.494168519973755, -0.941162109375, -0.0830078125, 0.104248046875, 0, 
323, 1052637054, 0.49721559882164, -0.3769479990005493, -0.5367463231086731, -0.5679728984832764, 8.98873233795166, 0.9332866668701172, -0.4667392373085022, 35.63315200805664, -57.74685287475586, 56.608943939208984, -0.940185546875, -0.076171875, 0.109375, 0, 
324, 1052645387, 0.500008761882782, -0.38230499625205994, -0.5377718210220337, -0.5609266757965088, 8.700769424438477, 0.10930774360895157, 1.8042293787002563, 39.046627044677734, -64.90869140625, 104.51266479492188, -0.936767578125, -0.06494140625, 0.11767578125, 0, 
325, 1052653720, 0.5033639073371887, -0.39068761467933655, -0.5361869931221008, -0.5536194443702698, 6.87360954284668, -1.754135251045227, 1.1443697214126587, 2.451569080352783, -67.73233795166016, 146.93101501464844, -0.93896484375, -0.046142578125, 0.12646484375, 0, 
326, 1052662053, 0.5063378810882568, -0.4024423360824585, -0.5325127243995667, -0.5459811091423035, 6.621566295623779, -3.1364259719848633, -0.37498149275779724, -35.86458206176758, -83.31571197509766, 182.22360229492188, -0.944580078125, -0.024169921875, 0.1357421875, 0, 
327, 1052670386, 0.5066894888877869, -0.41887366771698, -0.52595055103302, -0.5396199226379395, 10.50275707244873, -3.539116859436035, -3.8915951251983643, -114.53241729736328, -110.65444946289062, 204.06350708007812, -0.9423828125, 0.004638671875, 0.14599609375, 0, 
328, 1052678719, 0.5028337240219116, -0.4358559846878052, -0.5206143856048584, -0.5349313020706177, 15.611014366149902, 0.9868751168251038, -6.694042682647705, -145.0568084716797, -143.8855438232422, 157.92283630371094, -0.939697265625, 0.022705078125, 0.159423828125, 0, 
329, 1052687052, 0.5025399327278137, -0.437514990568161, -0.5329378247261047, -0.5215501189231873, 29.036226272583008, 10.449097633361816, 4.119447708129883, 173.98207092285156, -180.02520751953125, 28.86345100402832, -0.935302734375, 0.0341796875, 0.183837890625, 0, 
330, 1052695385, 0.508418619632721, -0.427934467792511, -0.5478428602218628, -0.5081868171691895, 32.768646240234375, 11.240408897399902, 25.472274780273438, 307.6174621582031, -71.75972747802734, -25.086612701416016, -0.928955078125, 0.039794921875, 0.201904296875, 0, 
331, 1052703718, 0.5045586824417114, -0.43731772899627686, -0.5350877642631531, -0.5175498127937317, 13.020520210266113, 0.3211156725883484, 15.008247375488281, -246.82920837402344, 49.40823745727539, 53.84403610229492, -0.93017578125, 0.04443359375, 0.19873046875, 0, 
332, 1052712051, 0.4961085915565491, -0.4573154151439667, -0.5120440721511841, -0.5315568447113037, 10.087663650512695, 2.8142833709716797, -7.919436931610107, -455.5550537109375, 39.48307418823242, 128.7182159423828, -0.92822265625, 0.046142578125, 0.1875, 0, 
333, 1052720384, 0.49794530868530273, -0.4702608585357666, -0.4977002441883087, -0.5321680307388306, 11.934266090393066, -5.616682052612305, -8.014533996582031, -184.74124145507812, 19.670656204223633, 191.15139770507812, -0.9296875, 0.06103515625, 0.18603515625, 0, 
334, 1052728717, 0.4975167214870453, -0.4842485785484314, -0.48699918389320374, -0.5299204587936401, 9.851685523986816, -11.503602027893066, -4.0098419189453125, -160.31210327148438, -46.703304290771484, 177.49024963378906, -0.92919921875, 0.08203125, 0.187744140625, 0, 
335, 1052737050, 0.4954026937484741, -0.4975895285606384, -0.47881829738616943, -0.526988685131073, 8.62453556060791, -11.755825996398926, -11.520683288574219, -144.60305786132812, -75.24703216552734, 148.9622802734375, -0.92578125, 0.096923828125, 0.193359375, 0, 
336, 1052745383, 0.4942737817764282, -0.5083842277526855, -0.47467485070228577, -0.5214652419090271, 5.268865585327148, -13.041731834411621, -15.363513946533203, -73.7445297241211, -95.37803649902344, 129.1727294921875, -0.922119140625, 0.115966796875, 0.20361328125, 0, 
337, 1052753716, 0.4936816692352295, -0.5169609785079956, -0.4738582968711853, -0.5142869353294373, 4.628364562988281, -10.939159393310547, -8.194190979003906, -20.259828567504883, -110.26937866210938, 106.68193817138672, -0.92041015625, 0.127197265625, 0.22021484375, 0, 
338, 1052762049, 0.4937264323234558, -0.5247169733047485, -0.4738031327724457, -0.5063793659210205, 6.940169334411621, -6.499073028564453, -4.967864990234375, -0.02021004445850849, -110.54991912841797, 105.22639465332031, -0.914794921875, 0.14013671875, 0.23095703125, 0, 
339, 1052770382, 0.49521249532699585, -0.5310795903205872, -0.4737360179424286, -0.4982932209968567, 7.520371437072754, -6.6723504066467285, -3.557088613510132, 20.91933250427246, -92.71928405761719, 107.5738525390625, -0.910400390625, 0.156982421875, 0.245849609375, 0, 
340, 1052778715, 0.49675244092941284, -0.5368741154670715, -0.47385111451148987, -0.4903787076473236, 8.019862174987793, -8.700498580932617, -3.3494250774383545, 25.312339782714844, -88.40415954589844, 101.65109252929688, -0.90380859375, 0.169189453125, 0.255126953125, 0, 
341, 1052787048, 0.49899211525917053, -0.5413363575935364, -0.4745319187641144, -0.48247718811035156, 9.474322319030762, -9.68028450012207, -2.0464091300964355, 43.302490234375, -78.66624450683594, 93.48143005371094, -0.8974609375, 0.18310546875, 0.2626953125, 0, 
342, 1052795381, 0.5018119812011719, -0.5446510314941406, -0.47543081641197205, -0.4748772978782654, 9.174949645996094, -9.774435997009277, -0.7294625639915466, 54.981563568115234, -66.48126220703125, 86.09059143066406, -0.89453125, 0.198974609375, 0.27001953125, 0, 
343, 1052803714, 0.5043084025382996, -0.5479623079299927, -0.4758339524269104, -0.46796953678131104, 8.222439765930176, -9.82587718963623, -2.375527858734131, 44.81831741333008, -59.99106979370117, 82.90877532958984, -0.889404296875, 0.21044921875, 0.279296875, 0, 
344, 1052812047, 0.5073201060295105, -0.5506849884986877, -0.4770314395427704, -0.4602351486682892, 8.611858367919922, -8.423709869384766, -4.665853500366211, 63.3061637878418, -64.54553985595703, 82.10417175292969, -0.888671875, 0.22314453125, 0.285888671875, 0, 
345, 1052820380, 0.5115305781364441, -0.5519545674324036, -0.48008251190185547, -0.4507840573787689, 9.268794059753418, -6.8507819175720215, -4.269040107727051, 105.5116958618164, -73.43745422363281, 78.07102966308594, -0.882080078125, 0.235595703125, 0.291015625, 0, 
346, 1052828713, 0.516014814376831, -0.5523694753646851, -0.4830065369606018, -0.4419548809528351, 9.632796287536621, -5.507385730743408, -1.4094421863555908, 108.7116470336914, -60.69905090332031, 70.74324798583984, -0.876708984375, 0.25048828125, 0.296630859375, 0, 
347, 1052837046, 0.5190267562866211, -0.5535670518875122, -0.4841652512550354, -0.4356163740158081, 9.525424003601074, -3.218413829803467, -1.1309900283813477, 64.69527435302734, -43.78635787963867, 62.668243408203125, -0.872802734375, 0.26171875, 0.302001953125, 0, 
348, 1052845379, 0.5210274457931519, -0.5553100109100342, -0.4843471944332123, -0.43078047037124634, 10.431435585021973, -0.461588978767395, -2.7031500339508057, 37.25562286376953, -35.37822723388672, 57.012264251708984, -0.87109375, 0.27001953125, 0.303466796875, 0, 
349, 1052853712, 0.5228591561317444, -0.5571321845054626, -0.4837879538536072, -0.4268184006214142, 10.893219947814941, 0.6151766180992126, -2.175081729888916, 25.175107955932617, -24.987470626831055, 55.86268997192383, -0.867919921875, 0.276611328125, 0.303466796875, 0, 
350, 1052862045, 0.5230194330215454, -0.5605490207672119, -0.48158755898475647, -0.42463117837905884, 10.453737258911133, -0.39747154712677, -1.8700625896453857, -20.52581024169922, -20.070796966552734, 56.5482177734375, -0.863037109375, 0.28857421875, 0.30712890625, 0, 
351, 1052870378, 0.521468997001648, -0.5653558373451233, -0.4780876338481903, -0.4241204857826233, 9.731982231140137, -1.4447516202926636, -2.5162317752838135, -62.404788970947266, -17.237565994262695, 53.65884017944336, -0.859619140625, 0.291259765625, 0.309326171875, 0, 
352, 1052878711, 0.5198484659194946, -0.5699219703674316, -0.4750896096229553, -0.423366904258728, 9.59520149230957, -3.5936899185180664, -3.0967483520507812, -56.697628021240234, -21.79086685180664, 49.57324981689453, -0.85791015625, 0.293212890625, 0.314208984375, 0, 
353, 1052887044, 0.5191522240638733, -0.5734078288078308, -0.4730561375617981, -0.42178812623023987, 9.477031707763672, -6.4565653800964355, -3.682849168777466, -30.72842025756836, -22.809444427490234, 46.17340087890625, -0.857421875, 0.294189453125, 0.3193359375, 0, 
354, 1052895377, 0.5195868611335754, -0.5755206346511841, -0.4723375737667084, -0.4191725254058838, 8.920811653137207, -8.295419692993164, -3.421076536178589, 2.36976957321167, -25.068185806274414, 40.895729064941406, -0.85595703125, 0.29931640625, 0.322021484375, 0, 
355, 1052903710, 0.5214163064956665, -0.5763210654258728, -0.4729219973087311, -0.4151228368282318, 8.794894218444824, -7.766401767730713, -3.1337733268737793, 39.60434341430664, -29.074485778808594, 40.27108383178711, -0.8515625, 0.306640625, 0.323486328125, 0, 
356, 1052912043, 0.524498462677002, -0.5762842297554016, -0.47400006651878357, -0.4100303649902344, 9.26717758178711, -5.660691261291504, -2.842972993850708, 65.14178466796875, -27.98001480102539, 45.6185417175293, -0.84765625, 0.314208984375, 0.32373046875, 0, 
357, 1052920376, 0.5282670259475708, -0.5757203102111816, -0.4752100110054016, -0.40454718470573425, 9.383147239685059, -3.273301362991333, -2.482757329940796, 77.66693115234375, -24.542037963867188, 47.71907043457031, -0.84619140625, 0.324462890625, 0.3271484375, 0, 
358, 1052928709, 0.5318072438240051, -0.5751250982284546, -0.4762955904006958, -0.3994466960430145, 9.177104949951172, -0.9004701972007751, -1.1925283670425415, 72.90067291259766, -21.967788696289062, 44.55517578125, -0.84375, 0.329345703125, 0.32666015625, 0, 
359, 1052937042, 0.5343219637870789, -0.5753363966941833, -0.47673678398132324, -0.39523768424987793, 9.370246887207031, 0.9654118418693542, -0.3509874939918518, 49.50507736206055, -21.30951690673828, 42.66120529174805, -0.83837890625, 0.340087890625, 0.327880859375, 0, 
360, 1052945375, 0.5359833240509033, -0.5764293670654297, -0.47643861174583435, -0.39174002408981323, 10.029729843139648, 1.4881917238235474, -0.9984586834907532, 27.600915908813477, -20.67402458190918, 44.546390533447266, -0.83740234375, 0.34716796875, 0.327392578125, 0, 
361, 1052953708, 0.5373020172119141, -0.5779262185096741, -0.4754781723022461, -0.3888845443725586, 10.316323280334473, 0.7351961731910706, -1.7372338771820068, 14.124836921691895, -15.084822654724121, 45.75413513183594, -0.837646484375, 0.349853515625, 0.326904296875, 0, 
362, 1052962041, 0.5382071137428284, -0.5797035694122314, -0.47418320178985596, -0.3865619897842407, 9.861242294311523, -1.0394301414489746, -1.5815447568893433, 3.4986417293548584, -12.623613357543945, 44.205142974853516, -0.8310546875, 0.356201171875, 0.326416015625, 0, 
363, 1052970374, 0.5386219620704651, -0.5818526744842529, -0.47277095913887024, -0.3844790458679199, 9.323600769042969, -2.4700851440429688, -0.7746467590332031, -5.350311279296875, -14.977618217468262, 43.09517288208008, -0.826904296875, 0.3623046875, 0.328857421875, 0, 
364, 1052978707, 0.5389227867126465, -0.5841077566146851, -0.47140347957611084, -0.38231128454208374, 9.082913398742676, -3.0120229721069336, -0.6853449940681458, -6.255314826965332, -17.328086853027344, 43.54206466674805, -0.826171875, 0.370361328125, 0.333984375, 0, 
365, 1052987040, 0.5396614670753479, -0.5860344767570496, -0.47022679448127747, -0.37976163625717163, 9.124956130981445, -3.0884063243865967, -1.3267353773117065, 3.177823781967163, -17.205322265625, 44.92683410644531, -0.82568359375, 0.3720703125, 0.334716796875, 0, 
366, 1052995373, 0.5406909584999084, -0.5877466201782227, -0.4691040813922882, -0.37702977657318115, 9.113523483276367, -3.069688320159912, -1.4922622442245483, 8.568914413452148, -16.114641189575195, 46.06013870239258, -0.822021484375, 0.3740234375, 0.337158203125, 0, 
367, 1053003706, 0.5417799353599548, -0.5894359946250916, -0.4680180251598358, -0.37416791915893555, 9.130971908569336, -2.7027885913848877, -0.993832528591156, 10.246421813964844, -16.895931243896484, 46.80496597290039, -0.814453125, 0.38232421875, 0.338623046875, 0, 
368, 1053012039, 0.5429304838180542, -0.591150164604187, -0.4669623374938965, -0.3711022734642029, 9.197051048278809, -2.3134682178497314, -1.1901499032974243, 12.0324068069458, -18.545520782470703, 48.64085006713867, -0.8134765625, 0.385986328125, 0.34033203125, 0, 
369, 1053020372, 0.5441290140151978, -0.592927873134613, -0.46584877371788025, -0.36789658665657043, 9.458866119384766, -2.1199774742126465, -1.419751763343811, 12.554198265075684, -19.229633331298828, 50.72286605834961, -0.810302734375, 0.396728515625, 0.34033203125, 0, 
370, 1053028705, 0.545538067817688, -0.594556987285614, -0.46478450298309326, -0.364511102437973, 9.555402755737305, -1.8574224710464478, -0.8443244099617004, 16.779077529907227, -19.001211166381836, 51.866947174072266, -0.80712890625, 0.4013671875, 0.3408203125, 0, 
371, 1053037038, 0.546705961227417, -0.5964372754096985, -0.46348837018013, -0.3613262474536896, 9.33242416381836, -1.5449378490447998, -0.38949134945869446, 10.476390838623047, -18.385025024414062, 52.56924819946289, -0.80419921875, 0.405029296875, 0.3388671875, 0, 
372, 1053045371, 0.5476931929588318, -0.5985214114189148, -0.462077260017395, -0.3581783175468445, 9.187700271606445, -1.4245611429214478, -0.6244750022888184, 6.659246921539307, -19.420616149902344, 53.72077560424805, -0.80126953125, 0.414794921875, 0.343017578125, 0, 
373, 1053053704, 0.5489232540130615, -0.6004626154899597, -0.460875540971756, -0.3545762300491333, 9.155220985412598, -1.8027634620666504, -0.5101507902145386, 13.649140357971191, -22.45166778564453, 55.628990173339844, -0.796630859375, 0.41748046875, 0.345947265625, 0, 
374, 1053062037, 0.5501706600189209, -0.6025044918060303, -0.4596521258354187, -0.3507467210292816, 9.20564079284668, -2.3900187015533447, 0.19975139200687408, 14.367781639099121, -24.583580017089844, 58.32470703125, -0.791748046875, 0.42578125, 0.34814453125, 0, 
375, 1053070370, 0.5515486598014832, -0.6045456528663635, -0.4584030508995056, -0.34668171405792236, 9.36646842956543, -2.142336845397949, 0.3564637005329132, 16.44618797302246, -25.342880249023438, 60.933074951171875, -0.790283203125, 0.430419921875, 0.34814453125, 0, 
376, 1053078703, 0.5531153082847595, -0.6065093874931335, -0.45718932151794434, -0.34233129024505615, 9.479905128479004, -1.5915889739990234, 0.0909080058336258, 20.94455909729004, -26.595327377319336, 63.225215911865234, -0.783203125, 0.440185546875, 0.353271484375, 0, 
377, 1053087036, 0.5548672676086426, -0.6084184050559998, -0.455966591835022, -0.3377084732055664, 9.70054817199707, -1.0191538333892822, -0.03713959455490112, 24.21877670288086, -27.212186813354492, 65.89793395996094, -0.7783203125, 0.447509765625, 0.352783203125, 0, 
378, 1053095369, 0.5566852688789368, -0.610482394695282, -0.4544987082481384, -0.33293673396110535, 10.022504806518555, -0.8760327100753784, 0.208682581782341, 23.74251365661621, -27.056615829467773, 70.36661529541016, -0.77294921875, 0.457763671875, 0.35595703125, 0, 
379, 1053103702, 0.558369517326355, -0.6128294467926025, -0.4528367221355438, -0.3280326724052429, 10.037751197814941, -0.858443558216095, -0.13291257619857788, 20.072166442871094, -28.666648864746094, 74.16720581054688, -0.763916015625, 0.467529296875, 0.358154296875, 0, 
380, 1053112035, 0.560124933719635, -0.6152507066726685, -0.4511326551437378, -0.32281407713890076, 10.079926490783691, -0.6552219986915588, 0.05278434604406357, 22.188974380493164, -31.032384872436523, 77.7203369140625, -0.760986328125, 0.47314453125, 0.35595703125, 0, 
381, 1053120368, 0.5619259476661682, -0.6177678108215332, -0.4495035707950592, -0.31709882616996765, 10.112582206726074, 0.014739379286766052, -0.2643204629421234, 24.91603660583496, -35.80115509033203, 81.72993469238281, -0.756103515625, 0.486083984375, 0.360107421875, 0, 
382, 1053128701, 0.5642576813697815, -0.6199754476547241, -0.4481472373008728, -0.31050077080726624, 10.638031959533691, 0.8052014708518982, -0.49052152037620544, 38.79856491088867, -40.93226623535156, 86.61376953125, -0.74951171875, 0.491455078125, 0.3603515625, 0, 
383, 1053137034, 0.5668392181396484, -0.6221926212310791, -0.4466473460197449, -0.3034452199935913, 11.198454856872559, 1.0861228704452515, 0.02324514463543892, 42.71645736694336, -42.05923080444336, 92.55926513671875, -0.738037109375, 0.502685546875, 0.36279296875, 0, 
384, 1053145367, 0.5698415040969849, -0.6242563128471375, -0.4450059235095978, -0.2959015965461731, 11.740938186645508, 1.9702497720718384, -0.6592079997062683, 50.26295471191406, -42.066593170166016, 98.34187316894531, -0.733154296875, 0.51611328125, 0.364501953125, 0, 
385, 1053153700, 0.5728075504302979, -0.6265527009963989, -0.44301098585128784, -0.28821417689323425, 12.048888206481934, 1.7636064291000366, 0.4174400568008423, 47.173160552978516, -41.50756072998047, 103.86956787109375, -0.719970703125, 0.527099609375, 0.364013671875, 0, 
386, 1053162033, 0.5752435326576233, -0.6295573711395264, -0.4403238892555237, -0.28083863854408264, 11.98880386352539, 1.3735816478729248, 0.7354956269264221, 32.78116989135742, -39.59637451171875, 109.50049591064453, -0.7177734375, 0.5400390625, 0.364501953125, 0, 
387, 1053170366, 0.5772855281829834, -0.6331314444541931, -0.4371824860572815, -0.273423433303833, 11.809326171875, 0.9451783895492554, 0.7893949747085571, 22.962514877319336, -40.73600387573242, 115.80123138427734, -0.7041015625, 0.55029296875, 0.36474609375, 0, 
388, 1053178699, 0.5791091918945312, -0.6371374130249023, -0.43362778425216675, -0.2658166289329529, 11.912681579589844, 0.4638800024986267, 1.292708396911621, 17.61802864074707, -42.25577163696289, 122.57024383544922, -0.6904296875, 0.562744140625, 0.369384765625, 0, 
389, 1053187032, 0.580935537815094, -0.6413805484771729, -0.4297724664211273, -0.2577664852142334, 12.23128604888916, 0.3006729185581207, 1.6676123142242432, 17.299211502075195, -44.631561279296875, 130.23753356933594, -0.679931640625, 0.5751953125, 0.371826171875, 0, 
390, 1053195365, 0.5827964544296265, -0.6458038091659546, -0.4257047474384308, -0.24912694096565247, 12.707930564880371, 0.31056705117225647, 2.27795672416687, 18.895658493041992, -48.531982421875, 137.9271697998047, -0.66650390625, 0.59130859375, 0.3740234375, 0, 
391, 1053203698, 0.5848385691642761, -0.6501856446266174, -0.4216461479663849, -0.2396661788225174, 13.384018898010254, 0.5467250347137451, 3.157304286956787, 25.666187286376953, -54.74979782104492, 144.92112731933594, -0.65576171875, 0.60107421875, 0.378662109375, 0, 
392, 1053212031, 0.5869965553283691, -0.6545895338058472, -0.41756170988082886, -0.22933101654052734, 14.691230773925781, 0.8235045671463013, 3.2228946685791016, 31.51972198486328, -61.704498291015625, 152.58152770996094, -0.641845703125, 0.619140625, 0.377197265625, 0, 
393, 1053220364, 0.5891482830047607, -0.6591558456420898, -0.413228303194046, -0.21831881999969482, 17.105224609375, 1.6020632982254028, 2.693851947784424, 33.239559173583984, -66.41671752929688, 161.35043334960938, -0.626708984375, 0.631591796875, 0.38037109375, 0, 
394, 1053228697, 0.5913440585136414, -0.6639209389686584, -0.40839383006095886, -0.20673377811908722, 20.36185646057129, 2.7880172729492188, 2.5894904136657715, 33.79604721069336, -67.81875610351562, 171.64675903320312, -0.60498046875, 0.646728515625, 0.385498046875, 0, 
395, 1053237030, 0.5935070514678955, -0.6688467264175415, -0.40309956669807434, -0.1946970373392105, 22.54262924194336, 3.215088367462158, 3.6485042572021484, 33.39487838745117, -68.94631958007812, 180.53062438964844, -0.58642578125, 0.6640625, 0.384765625, 0, 
396, 1053245363, 0.5954304337501526, -0.6737730503082275, -0.3978120684623718, -0.1823199987411499, 22.89724349975586, 2.9072959423065186, 4.455975532531738, 33.1129264831543, -73.36189270019531, 182.40533447265625, -0.566650390625, 0.677978515625, 0.387939453125, 0, 
397, 1053253696, 0.596920907497406, -0.6786724328994751, -0.3927869498729706, -0.16973644495010376, 22.525941848754883, 2.2598648071289062, 4.026280879974365, 31.0804386138916, -79.85626983642578, 180.7149658203125, -0.5458984375, 0.690673828125, 0.388916015625, 0, 
398, 1053262029, 0.5977076888084412, -0.6835988163948059, -0.3884057402610779, -0.15678653120994568, 21.972944259643555, 3.026616334915161, 4.732924461364746, 27.802871704101562, -92.2949447631836, 175.9332275390625, -0.523193359375, 0.705078125, 0.39111328125, 0, 
399, 1053270362, 0.5986602306365967, -0.6880537867546082, -0.3842676281929016, -0.1432805210351944, 20.70710563659668, 3.5237083435058594, 3.902973175048828, 36.69588851928711, -97.7872314453125, 176.42706298828125, -0.501220703125, 0.715087890625, 0.388671875, 0, 
400, 1053278695, 0.5992270708084106, -0.6929300427436829, -0.37943828105926514, -0.12963204085826874, 18.0281982421875, 1.7700871229171753, -0.5372509956359863, 29.00542640686035, -96.14311981201172, 185.2384033203125, -0.476318359375, 0.727294921875, 0.394775390625, 0, 
401, 1053287028, 0.5983150601387024, -0.6989789009094238, -0.3739441931247711, -0.116688571870327, 15.57486629486084, -2.053699254989624, -3.886927843093872, 0.3394916355609894, -93.96073913574219, 189.70297241210938, -0.45263671875, 0.7412109375, 0.3955078125, 0, 
402, 1053295361, 0.5966891646385193, -0.7051215767860413, -0.3687668740749359, -0.103825144469738, 13.689682960510254, -6.21458625793457, -5.311709403991699, -7.15174674987793, -99.41271209716797, 184.87860107421875, -0.42431640625, 0.746826171875, 0.402099609375, 0, 
403, 1053303694, 0.5945095419883728, -0.7110967636108398, -0.3642582297325134, -0.09065639972686768, 12.488789558410645, -9.242833137512207, -6.109951972961426, -8.680671691894531, -110.6495590209961, 179.78018188476562, -0.397705078125, 0.753662109375, 0.40380859375, 0, 
404, 1053312027, 0.5910635590553284, -0.7173289060592651, -0.36069735884666443, -0.07735297828912735, 11.740605354309082, -11.069406509399414, -5.0083160400390625, -21.27252769470215, -126.1575698852539, 170.80197143554688, -0.373291015625, 0.760986328125, 0.408447265625, 0, 
405, 1053320360, 0.5848903059959412, -0.7248281240463257, -0.3581928014755249, -0.06502498686313629, 11.414374351501465, -11.007540702819824, -4.512253284454346, -62.19919204711914, -140.2213134765625, 156.3810272216797, -0.3505859375, 0.766845703125, 0.418701171875, 0, 
406, 1053328693, 0.5763111710548401, -0.7336350679397583, -0.35577183961868286, -0.05544561892747879, 11.664122581481934, -9.866353034973145, -6.384968280792236, -110.15653228759766, -126.29379272460938, 137.18540954589844, -0.324951171875, 0.759765625, 0.43408203125, 0, 
407, 1053337026, 0.5723327994346619, -0.7382140755653381, -0.35405439138412476, -0.046084966510534286, 11.259788513183594, -8.664139747619629, -7.375416278839111, -30.75994873046875, -104.16802215576172, 111.72654724121094, -0.300048828125, 0.759521484375, 0.44091796875, 0, 
408, 1053345359, 0.5733178853988647, -0.7388391494750977, -0.3521992564201355, -0.03717886283993721, 9.710917472839355, -10.900375366210938, -5.137135028839111, 48.44573974609375, -71.55716705322266, 92.88809967041016, -0.28076171875, 0.764892578125, 0.43896484375, 0, 
409, 1053353692, 0.5716361403465271, -0.7416886687278748, -0.3493436574935913, -0.03304775059223175, 5.8399658203125, -13.07386589050293, -5.57808256149292, -19.81173324584961, -29.43979835510254, 75.39645385742188, -0.265869140625, 0.767578125, 0.44140625, 0, 
410, 1053362025, 0.5688767433166504, -0.7447549104690552, -0.34760579466819763, -0.029876545071601868, 2.002169370651245, -11.639497756958008, -9.809854507446289, -36.625125885009766, -33.4784049987793, 56.42217254638672, -0.25244140625, 0.766845703125, 0.444580078125, 0, 
411, 1053370358, 0.5696854591369629, -0.7439912557601929, -0.34834814071655273, -0.024329863488674164, 0.3043137192726135, -9.550324440002441, -10.4403715133667, 42.27848815917969, -58.82050323486328, 33.34040451049805, -0.243896484375, 0.766845703125, 0.444091796875, 0, 
412, 1053378691, 0.5730386972427368, -0.7401005625724792, -0.351548433303833, -0.017165593802928925, 0.30733710527420044, -8.119916915893555, -8.009477615356445, 101.35391998291016, -81.15132141113281, 6.1590986251831055, -0.23486328125, 0.775146484375, 0.4365234375, 0, 
413, 1053387024, 0.5782414674758911, -0.7338812351226807, -0.3563022017478943, -0.010343469679355621, 1.5235885381698608, -6.978720188140869, -4.730461120605469, 137.30258178710938, -80.6227035522461, -22.60633087158203, -0.2275390625, 0.779541015625, 0.4248046875, 0, 
414, 1053395357, 0.5857042074203491, -0.7253623604774475, -0.36163464188575745, -0.004854701459407806, 2.4859793186187744, -5.961094856262207, -1.9137701988220215, 171.88763427734375, -60.16504669189453, -50.557613372802734, -0.225830078125, 0.789306640625, 0.41455078125, 0, 
415, 1053403690, 0.5944388508796692, -0.7155181169509888, -0.36698269844055176, -0.0017013251781463623, 2.397667169570923, -4.554905414581299, -0.2042173445224762, 183.72201538085938, -30.744762420654297, -75.47826385498047, -0.2265625, 0.796142578125, 0.3935546875, 0, 
416, 1053412023, 0.6022822856903076, -0.7063537240028381, -0.37191343307495117, -0.0020246878266334534, 1.0519717931747437, -2.42588210105896, -0.1477857232093811, 151.75381469726562, 2.5256996154785156, -96.9345932006836, -0.235107421875, 0.806396484375, 0.378662109375, 0, 
417, 1053420356, 0.6087040901184082, -0.6983414888381958, -0.3765155076980591, -0.006104908883571625, -0.6122410297393799, -1.1654956340789795, -0.27466920018196106, 109.26195526123047, 34.304874420166016, -118.4459457397461, -0.244384765625, 0.810546875, 0.361328125, 0, 
418, 1053428689, 0.613587498664856, -0.6913042068481445, -0.3813744783401489, -0.012848101556301117, -1.5657588243484497, -0.9249138832092285, 0.3382786214351654, 72.47531127929688, 49.81503677368164, -138.84410095214844, -0.258056640625, 0.8125, 0.3515625, 0, 
419, 1053437022, 0.6163308024406433, -0.6854803562164307, -0.3870293200016022, -0.021543487906455994, -1.7145037651062012, -1.769688606262207, 0.9183448553085327, 31.874122619628906, 50.10111999511719, -156.34051513671875, -0.277587890625, 0.811767578125, 0.345458984375, 0, 
420, 1053445355, 0.6159235835075378, -0.6817666888237, -0.39342382550239563, -0.03244679421186447, -1.5055959224700928, -2.7966434955596924, -0.0522271990776062, -27.321645736694336, 47.37031555175781, -172.2869873046875, -0.294921875, 0.806396484375, 0.344482421875, 0, 
421, 1053453688, 0.6124456524848938, -0.6801024675369263, -0.4003358781337738, -0.04587966203689575, -0.6850427389144897, -3.0978260040283203, -2.043840169906616, -86.85303497314453, 49.05469512939453, -188.30406188964844, -0.316162109375, 0.799072265625, 0.350341796875, 0, 
422, 1053462021, 0.6077283620834351, -0.6788675785064697, -0.4075391888618469, -0.0609915666282177, 0.11142603307962418, -3.257495880126953, -3.1860268115997314, -111.19512939453125, 55.33197021484375, -204.13412475585938, -0.342041015625, 0.78857421875, 0.358642578125, 0, 
423, 1053470354, 0.602893054485321, -0.6769400835037231, -0.4150901436805725, -0.07729989290237427, 0.5115303993225098, -4.02714204788208, -2.8563883304595947, -112.85374450683594, 63.38763427734375, -220.83511352539062, -0.364501953125, 0.7744140625, 0.36669921875, 0, 
424, 1053478687, 0.5976186990737915, -0.6745790839195251, -0.42286619544029236, -0.09477429836988449, 1.0210338830947876, -4.720887660980225, -2.1000566482543945, -119.83612060546875, 70.46077728271484, -236.06893920898438, -0.3896484375, 0.758056640625, 0.378173828125, 0, 
425, 1053487020, 0.5916441082954407, -0.6720658540725708, -0.4305831491947174, -0.11351580917835236, 1.7188804149627686, -5.1205644607543945, -1.752012848854065, -132.45013427734375, 78.6973876953125, -247.21951293945312, -0.41845703125, 0.745849609375, 0.386962890625, 0, 
426, 1053495353, 0.585296094417572, -0.6692608594894409, -0.4378381371498108, -0.13348805904388428, 2.4623265266418457, -5.3333210945129395, -1.5695581436157227, -141.61517333984375, 92.20755004882812, -255.7923126220703, -0.445556640625, 0.724365234375, 0.394287109375, 0, 
427, 1053503686, 0.5791300535202026, -0.6657259464263916, -0.44442683458328247, -0.1546124815940857, 3.0578997135162354, -5.270232200622559, -1.611383318901062, -142.15391540527344, 110.47005462646484, -262.4985046386719, -0.47607421875, 0.70263671875, 0.4013671875, 0, 
428, 1053512019, 0.5734652876853943, -0.6612563729286194, -0.4501909017562866, -0.1766594648361206, 3.4835665225982666, -5.699092388153076, -2.0988917350769043, -137.58660888671875, 130.67965698242188, -267.4412536621094, -0.504638671875, 0.67919921875, 0.406982421875, 0, 
429, 1053520352, 0.5685193538665771, -0.6555771231651306, -0.4552692770957947, -0.19934123754501343, 3.804337739944458, -6.605393886566162, -3.402719259262085, -127.03614807128906, 149.0946807861328, -271.4749450683594, -0.5390625, 0.653076171875, 0.408203125, 0, 
430, 1053528685, 0.5647470355033875, -0.6482097506523132, -0.46002820134162903, -0.221949964761734, 4.1358442306518555, -7.8584489822387695, -4.13730001449585, -103.74344635009766, 163.0656280517578, -275.85955810546875, -0.571044921875, 0.62744140625, 0.40869140625, 0, 
431, 1053537018, 0.562348484992981, -0.6388183236122131, -0.4649590253829956, -0.24390831589698792, 4.370091438293457, -9.293209075927734, -3.2982335090637207, -71.08214569091797, 170.6466064453125, -280.4834289550781, -0.6025390625, 0.603515625, 0.40087890625, 0, 
432, 1053545351, 0.5600582361221313, -0.628566563129425, -0.469492107629776, -0.2661181688308716, 4.853911876678467, -10.4185152053833, -3.406703472137451, -66.47447204589844, 179.6653289794922, -284.54095458984375, -0.6318359375, 0.580078125, 0.39208984375, 0, 
433, 1053553684, 0.5581619143486023, -0.617225170135498, -0.47361594438552856, -0.28840795159339905, 5.196872711181641, -10.278904914855957, -4.461475849151611, -56.64579391479492, 189.8909149169922, -286.77325439453125, -0.665283203125, 0.549560546875, 0.380126953125, 0, 
434, 1053562017, 0.5576462745666504, -0.6037131547927856, -0.4785822629928589, -0.3090680241584778, 4.376423358917236, -9.617838859558105, -3.9750990867614746, -14.347840309143066, 187.34278869628906, -290.5185241699219, -0.69677734375, 0.52587890625, 0.365478515625, 0, 
435, 1053570350, 0.5576584339141846, -0.5883687734603882, -0.4849615693092346, -0.32810723781585693, 3.4354398250579834, -8.80224895477295, -3.016535997390747, 20.786863327026367, 174.1744842529297, -299.2298889160156, -0.725830078125, 0.497802734375, 0.349609375, 0, 
436, 1053578683, 0.5577157735824585, -0.5716484189033508, -0.4924086630344391, -0.3459881544113159, 3.526737689971924, -7.6571364402771, -2.669919967651367, 44.22270965576172, 163.25999450683594, -308.3666076660156, -0.746826171875, 0.467529296875, 0.330078125, 0, 
437, 1053587016, 0.5579237341880798, -0.5535080432891846, -0.500607430934906, -0.36296695470809937, 4.415974140167236, -7.084403038024902, -2.291497230529785, 66.00695037841797, 158.06239318847656, -315.88623046875, -0.77587890625, 0.443603515625, 0.31298828125, 0, 
438, 1053595349, 0.5580639839172363, -0.5341504216194153, -0.5092976093292236, -0.37929767370224, 5.457327842712402, -6.752575874328613, -1.937831163406372, 81.72640991210938, 155.08644104003906, -323.7471618652344, -0.796630859375, 0.41015625, 0.291259765625, 0, 
439, 1053603682, 0.5576962232589722, -0.5138985514640808, -0.5183859467506409, -0.3951736390590668, 6.8119330406188965, -6.265995025634766, -1.4068964719772339, 90.13104248046875, 149.6999053955078, -331.75140380859375, -0.81884765625, 0.381103515625, 0.271728515625, 0, 
440, 1053612015, 0.5564634203910828, -0.49318331480026245, -0.5277230143547058, -0.4106460511684418, 8.6485595703125, -5.482485294342041, -0.6410911679267883, 91.7879867553711, 141.38804626464844, -338.76470947265625, -0.83837890625, 0.3466796875, 0.251220703125, 0, 
441, 1053620348, 0.5538681745529175, -0.4727402627468109, -0.536669909954071, -0.42630380392074585, 10.67508316040039, -3.838146209716797, -0.30550339818000793, 76.92356872558594, 134.12310791015625, -342.9366455078125, -0.8603515625, 0.30859375, 0.22900390625, 0, 
442, 1053628681, 0.5499283671379089, -0.45315054059028625, -0.5445405840873718, -0.4423932731151581, 12.662942886352539, -1.460477352142334, -0.15500864386558533, 52.17539596557617, 130.28619384765625, -341.12969970703125, -0.8720703125, 0.27001953125, 0.217529296875, 0, 
443, 1053637014, 0.5450106859207153, -0.4346020221710205, -0.5509845614433289, -0.45880669355392456, 13.97533893585205, 0.6299196481704712, 0.49899059534072876, 27.10114860534668, 129.3533172607422, -332.5375671386719, -0.885986328125, 0.23193359375, 0.199462890625, 0, 
