PacketCounter,SampleTimeFine,Quat_W,Quat_X,Quat_Y,Quat_Z,Acc_X,Acc_Y,Acc_Z,Gyr_X,Gyr_Y,Gyr_Z,Mag_X,Mag_Y,Mag_Z,Status,
0, 1031104582, 0.5126557350158691, -0.5827454924583435, -0.489553838968277, -0.39740651845932007, 0, 0, 0, 0, 0, 0, -0.912841796875, 0.48779296875, 0.4921875, 0, 
1, 1031112915, 0.5127570033073425, -0.5827891230583191, -0.48958343267440796, -0.39717546105384827, 9.630168914794922, -1.6803120374679565, -1.379387378692627, 3.3981001377105713, -1.7613886594772339, 2.53052020072937, -0.912109375, 0.48779296875, 0.494140625, 0, 
2, 1031121248, 0.5127911567687988, -0.5828993916511536, -0.4895402789115906, -0.39702266454696655, 9.636180877685547, -1.5239671468734741, -1.4561947584152222, 1.4351271390914917, -1.4312465190887451, 2.6466548442840576, -0.91064453125, 0.48974609375, 0.494384765625, 0, 
3, 1031129581, 0.5127554535865784, -0.5830727815628052, -0.4894413352012634, -0.39693623781204224, 9.626972198486328, -1.6164344549179077, -1.5536370277404785, -0.2888261675834656, -1.326715111732483, 2.665558099746704, -0.906982421875, 0.48828125, 0.4921875, 0, 
4, 1031137914, 0.512749969959259, -0.5832193493843079, -0.48936909437179565, -0.3968169689178467, 9.542549133300781, -1.8491462469100952, -1.6194279193878174, 0.6296619176864624, -1.4583208560943604, 2.646296501159668, -0.907958984375, 0.48779296875, 0.496826171875, 0, 
5, 1031146247, 0.5128546357154846, -0.5832652449607849, -0.4894082844257355, -0.3965660333633423, 9.418692588806152, -2.1210832595825195, -1.67967689037323, 3.5948941707611084, -1.9795962572097778, 2.6262147426605225, -0.91162109375, 0.486572265625, 0.497314453125, 0, 
6, 1031154580, 0.5129940509796143, -0.5832955837249756, -0.4894970953464508, -0.39623093605041504, 9.401191711425781, -2.3180084228515625, -1.5207078456878662, 4.809751987457275, -2.6855504512786865, 2.9065628051757812, -0.907470703125, 0.48828125, 0.494873046875, 0, 
7, 1031162913, 0.5131352543830872, -0.5833340883255005, -0.48956209421157837, -0.3959108591079712, 9.454172134399414, -2.2476489543914795, -1.4741523265838623, 4.548230171203613, -2.430201768875122, 3.0556118488311768, -0.90869140625, 0.492431640625, 0.496826171875, 0, 
8, 1031171246, 0.5133553147315979, -0.5832996368408203, -0.48968273401260376, -0.3955270051956177, 9.469280242919922, -2.146615743637085, -1.564089059829712, 6.403853416442871, -2.4037678241729736, 3.0005156993865967, -0.90966796875, 0.493408203125, 0.493896484375, 0, 
9, 1031179579, 0.5135794878005981, -0.583284318447113, -0.48976293206214905, -0.39515921473503113, 9.539783477783203, -2.0775740146636963, -1.4576631784439087, 5.996280193328857, -2.0681190490722656, 3.3608312606811523, -0.90869140625, 0.491943359375, 0.4931640625, 0, 
10, 1031187912, 0.5137438178062439, -0.5833116173744202, -0.48977118730545044, -0.3948952257633209, 9.548138618469238, -1.999703049659729, -1.5187404155731201, 4.066989898681641, -1.348307728767395, 3.175614595413208, -0.90625, 0.493896484375, 0.493896484375, 0, 
11, 1031196245, 0.5138635635375977, -0.5833656191825867, -0.4897603392601013, -0.3946729600429535, 9.50440788269043, -1.9728615283966064, -1.6265627145767212, 3.19403076171875, -1.3381900787353516, 2.9628114700317383, -0.908203125, 0.494873046875, 0.497314453125, 0, 
12, 1031204578, 0.5139764547348022, -0.583426833152771, -0.48978230357170105, -0.3944079279899597, 9.497149467468262, -2.050611734390259, -1.7413067817687988, 3.524787425994873, -1.9930434226989746, 3.015141010284424, -0.9072265625, 0.493408203125, 0.494384765625, 0, 
13, 1031212911, 0.5141285061836243, -0.5834442973136902, -0.4898605942726135, -0.39408671855926514, 9.471155166625977, -2.14731764793396, -1.6449916362762451, 4.862081527709961, -2.34562349319458, 2.8761587142944336, -0.908203125, 0.4912109375, 0.496337890625, 0, 
14, 1031221244, 0.5142955183982849, -0.5834371447563171, -0.4899824261665344, -0.39372754096984863, 9.417655944824219, -2.143962860107422, -1.5706051588058472, 5.695030212402344, -2.736419916152954, 2.700854539871216, -0.90478515625, 0.4951171875, 0.49169921875, 0, 
15, 1031229577, 0.5144945383071899, -0.5834034085273743, -0.49011483788490295, -0.3933525085449219, 9.394540786743164, -2.1287689208984375, -1.614723563194275, 6.257007598876953, -2.566521167755127, 2.730285406112671, -0.90771484375, 0.498046875, 0.493896484375, 0, 
16, 1031237910, 0.5146530866622925, -0.5834028124809265, -0.4902111887931824, -0.39302587509155273, 9.369351387023926, -2.1192381381988525, -1.571144461631775, 5.18192720413208, -2.376898765563965, 2.6814136505126953, -0.904052734375, 0.491455078125, 0.493896484375, 0, 
17, 1031246243, 0.5147988796234131, -0.5834139585494995, -0.4902878403663635, -0.392722487449646, 9.403495788574219, -2.1175503730773926, -1.6265263557434082, 4.727786064147949, -2.19985294342041, 2.685716390609741, -0.90771484375, 0.498046875, 0.494873046875, 0, 
18, 1031254576, 0.514930009841919, -0.5834492444992065, -0.490337073802948, -0.39243680238723755, 9.412734985351562, -2.2443058490753174, -1.687519907951355, 4.0254950523376465, -2.0584113597869873, 2.888401985168457, -0.90869140625, 0.4970703125, 0.495361328125, 0, 
19, 1031262909, 0.5150405168533325, -0.5835004448890686, -0.49036848545074463, -0.39217638969421387, 9.428788185119629, -2.361154317855835, -1.7409812211990356, 3.6259899139404297, -1.9871268272399902, 2.8241357803344727, -0.90771484375, 0.4970703125, 0.493896484375, 0, 
20, 1031271242, 0.5151325464248657, -0.5835420489311218, -0.4904181659221649, -0.39193135499954224, 9.438682556152344, -2.3900833129882812, -1.7026447057724, 3.4311935901641846, -2.043503761291504, 2.4218902587890625, -0.90869140625, 0.4970703125, 0.4990234375, 0, 
21, 1031279575, 0.5152398347854614, -0.5835701823234558, -0.4904605746269226, -0.3916953206062317, 9.456597328186035, -2.396914482116699, -1.6292800903320312, 3.6598775386810303, -1.766281008720398, 2.390820264816284, -0.9052734375, 0.49853515625, 0.493896484375, 0, 
22, 1031287908, 0.5153260827064514, -0.5836118459701538, -0.49048367142677307, -0.391490638256073, 9.43063735961914, -2.344196319580078, -1.6227511167526245, 3.116676092147827, -1.6064738035202026, 2.293306589126587, -0.903076171875, 0.498046875, 0.496337890625, 0, 
23, 1031296241, 0.5154184103012085, -0.5836387872695923, -0.4905208349227905, -0.3912825584411621, 9.436779975891113, -2.273834228515625, -1.6755019426345825, 3.3301196098327637, -1.5979697704315186, 2.1467418670654297, -0.90478515625, 0.500732421875, 0.494873046875, 0, 
24, 1031304574, 0.5154808759689331, -0.5836902856826782, -0.49053215980529785, -0.3911091685295105, 9.457959175109863, -2.2336230278015137, -1.566109299659729, 2.4701476097106934, -1.4548630714416504, 2.12384295463562, -0.900146484375, 0.500244140625, 0.495361328125, 0, 
25, 1031312907, 0.5155377984046936, -0.5837464928627014, -0.49053242802619934, -0.3909498453140259, 9.451194763183594, -2.187673568725586, -1.617928147315979, 2.3127224445343018, -1.3449524641036987, 2.1037869453430176, -0.90673828125, 0.50048828125, 0.494384765625, 0, 
26, 1031321240, 0.5155768990516663, -0.5838106274604797, -0.4905085563659668, -0.3908325433731079, 9.482392311096191, -2.218874931335449, -1.6319246292114258, 1.5869938135147095, -0.974032461643219, 1.9724113941192627, -0.90283203125, 0.501220703125, 0.495361328125, 0, 
27, 1031329573, 0.5155887603759766, -0.5838996171951294, -0.4904364347457886, -0.39077436923980713, 9.43222713470459, -2.253120183944702, -1.6086080074310303, 0.6462855935096741, -0.49837613105773926, 1.947078824043274, -0.903564453125, 0.5, 0.497802734375, 0, 
28, 1031337906, 0.5156148076057434, -0.5839729309082031, -0.4903801679611206, -0.39070093631744385, 9.427617073059082, -2.2327167987823486, -1.6489123106002808, 0.9763506054878235, -0.5340055227279663, 1.9110395908355713, -0.903076171875, 0.4990234375, 0.495361328125, 0, 
29, 1031346239, 0.5156195759773254, -0.5840559601783752, -0.49029844999313354, -0.3906729817390442, 9.426794052124023, -2.2537689208984375, -1.6284421682357788, 0.37501806020736694, -0.2052340805530548, 1.7304209470748901, -0.904296875, 0.4970703125, 0.494384765625, 0, 
30, 1031354572, 0.5156186819076538, -0.5841519236564636, -0.49021148681640625, -0.39063993096351624, 9.41351318359375, -2.228069543838501, -1.692477822303772, 0.23867346346378326, -0.31314682960510254, 1.864562749862671, -0.90380859375, 0.501220703125, 0.498291015625, 0, 
31, 1031362905, 0.515644907951355, -0.5842124223709106, -0.4901888370513916, -0.3905431628227234, 9.419623374938965, -2.1666791439056396, -1.754809021949768, 1.4906076192855835, -0.9097920656204224, 1.7083030939102173, -0.900634765625, 0.500244140625, 0.494873046875, 0, 
32, 1031371238, 0.5156983733177185, -0.5842384696006775, -0.49021247029304504, -0.3904039263725281, 9.423816680908203, -2.153599262237549, -1.6977567672729492, 2.4832875728607178, -1.2095298767089844, 1.5495973825454712, -0.902099609375, 0.49853515625, 0.49853515625, 0, 
33, 1031379571, 0.5157831907272339, -0.5842362642288208, -0.49027180671691895, -0.39022064208984375, 9.459202766418457, -2.1417441368103027, -1.5908986330032349, 3.429323196411133, -1.455989956855774, 1.5538746118545532, -0.9033203125, 0.503173828125, 0.498046875, 0, 
34, 1031387904, 0.5158886313438416, -0.5842303037643433, -0.49033284187316895, -0.39001333713531494, 9.482041358947754, -2.1116998195648193, -1.5259960889816284, 3.933206796646118, -1.5329351425170898, 1.7703408002853394, -0.902099609375, 0.501220703125, 0.495849609375, 0, 
35, 1031396237, 0.5160359740257263, -0.5842135548591614, -0.4903872311115265, -0.3897751569747925, 9.528913497924805, -1.9793404340744019, -1.5330091714859009, 4.376742362976074, -1.3618319034576416, 2.2206645011901855, -0.9033203125, 0.502197265625, 0.498046875, 0, 
36, 1031404570, 0.5161890387535095, -0.5841849446296692, -0.4904543161392212, -0.38953059911727905, 9.533251762390137, -2.024742603302002, -1.4282467365264893, 4.605528831481934, -1.396641731262207, 2.114928722381592, -0.90185546875, 0.503662109375, 0.496337890625, 0, 
37, 1031412903, 0.5163347125053406, -0.5841643214225769, -0.49050426483154297, -0.3893055319786072, 9.513343811035156, -2.055906057357788, -1.4908097982406616, 4.279229640960693, -1.2140123844146729, 2.1297082901000977, -0.9052734375, 0.504150390625, 0.496337890625, 0, 
38, 1031421236, 0.5164449214935303, -0.584192156791687, -0.49048587679862976, -0.3891410827636719, 9.49215030670166, -2.1425437927246094, -1.5653176307678223, 2.95361590385437, -0.7619466781616211, 2.3672547340393066, -0.903076171875, 0.501708984375, 0.497314453125, 0, 
39, 1031429569, 0.5164920687675476, -0.5842720866203308, -0.490420937538147, -0.38904041051864624, 9.432815551757812, -2.183444023132324, -1.6724374294281006, 1.3196709156036377, -0.601639986038208, 2.3195741176605225, -0.900146484375, 0.503662109375, 0.495849609375, 0, 
40, 1031437902, 0.516511857509613, -0.5843690633773804, -0.4903542995452881, -0.38895225524902344, 9.41427993774414, -2.2262227535247803, -1.679004430770874, 0.9525294303894043, -0.7837187647819519, 2.1984827518463135, -0.90234375, 0.504638671875, 0.494384765625, 0, 
41, 1031446235, 0.5165608525276184, -0.5844364762306213, -0.4902975559234619, -0.38885748386383057, 9.42567253112793, -2.337104082107544, -1.7056461572647095, 1.427955150604248, -0.5334933400154114, 2.1365983486175537, -0.90576171875, 0.50048828125, 0.4990234375, 0, 
42, 1031454568, 0.5166538953781128, -0.5844464898109436, -0.49031156301498413, -0.3887011706829071, 9.423575401306152, -2.2846076488494873, -1.8536964654922485, 2.904872179031372, -0.9070770144462585, 1.8656771183013916, -0.900146484375, 0.504150390625, 0.494873046875, 0, 
43, 1031462901, 0.5168213248252869, -0.584351658821106, -0.49048927426338196, -0.3883969187736511, 9.398931503295898, -2.183114528656006, -1.9100494384765625, 6.196864128112793, -2.217475414276123, 1.2803915739059448, -0.900390625, 0.505859375, 0.493896484375, 0, 
44, 1031471234, 0.5170551538467407, -0.5841415524482727, -0.4908754229545593, -0.38791322708129883, 9.4028959274292, -1.9320720434188843, -1.9150141477584839, 9.79669189453125, -4.058140754699707, 0.46772879362106323, -0.901123046875, 0.5048828125, 0.49853515625, 0, 
45, 1031479567, 0.5173160433769226, -0.5838905572891235, -0.4913829565048218, -0.3873003125190735, 9.455575942993164, -1.9005433320999146, -1.76924467086792, 11.903332710266113, -5.575758457183838, 0.2709345817565918, -0.899169921875, 0.5048828125, 0.4990234375, 0, 
46, 1031487900, 0.517581045627594, -0.5836086869239807, -0.49195602536201477, -0.3866432011127472, 9.455348014831543, -1.809934139251709, -1.721838355064392, 12.589848518371582, -6.1558709144592285, -0.09505446255207062, -0.9013671875, 0.50830078125, 0.49755859375, 0, 
47, 1031496233, 0.5179266929626465, -0.5832646489143372, -0.49252620339393616, -0.3859729766845703, 9.45764446258545, -1.896438717842102, -1.5799543857574463, 13.965180397033691, -5.415081024169922, -0.004943549167364836, -0.9013671875, 0.50732421875, 0.497314453125, 0, 
48, 1031504566, 0.5182174444198608, -0.5829725861549377, -0.49303311109542847, -0.38537630438804626, 9.424081802368164, -2.085177421569824, -1.4833165407180786, 12.309932708740234, -5.017291069030762, 0.04096997156739235, -0.9033203125, 0.50537109375, 0.495361328125, 0, 
49, 1031512899, 0.5185196399688721, -0.5826929211616516, -0.49352872371673584, -0.38475775718688965, 9.483831405639648, -2.1046009063720703, -1.3885436058044434, 12.413311004638672, -5.104302883148193, 0.4319969117641449, -0.90283203125, 0.5078125, 0.492919921875, 0, 
50, 1031521232, 0.5188394784927368, -0.5824635624885559, -0.49391549825668335, -0.3841773271560669, 9.535357475280762, -2.2084693908691406, -1.2756476402282715, 11.227398872375488, -4.137544631958008, 1.4878157377243042, -0.900390625, 0.511474609375, 0.495361328125, 0, 
51, 1031529565, 0.5191580653190613, -0.5822535753250122, -0.4942447245121002, -0.38364124298095703, 9.520102500915527, -1.972054123878479, -1.5187307596206665, 10.608892440795898, -3.5161943435668945, 1.7358641624450684, -0.89892578125, 0.510986328125, 0.496826171875, 0, 
52, 1031537898, 0.5196173787117004, -0.5819177627563477, -0.49465563893318176, -0.38299891352653503, 9.518950462341309, -1.6633933782577515, -1.6543911695480347, 13.814423561096191, -3.334346294403076, 1.7212255001068115, -0.90087890625, 0.511474609375, 0.494384765625, 0, 
53, 1031546231, 0.5201269388198853, -0.5815220475196838, -0.49520343542099, -0.3821997344493866, 9.520309448242188, -1.5565283298492432, -1.9514997005462646, 16.40460205078125, -4.90407657623291, 1.6096628904342651, -0.89892578125, 0.512451171875, 0.493896484375, 0, 
54, 1031554564, 0.5206366777420044, -0.5811175107955933, -0.4957708716392517, -0.38138431310653687, 9.507007598876953, -1.5970549583435059, -1.824347972869873, 16.80389976501465, -5.156914710998535, 1.4880720376968384, -0.8974609375, 0.512451171875, 0.4912109375, 0, 
55, 1031562897, 0.5210977792739868, -0.5807561278343201, -0.49631786346435547, -0.38059279322624207, 9.472891807556152, -1.7824269533157349, -1.6133750677108765, 15.713708877563477, -5.347742080688477, 1.5407094955444336, -0.8974609375, 0.51708984375, 0.491943359375, 0, 
56, 1031571230, 0.5214371085166931, -0.5804658532142639, -0.49690672755241394, -0.37980151176452637, 9.40843391418457, -1.779252529144287, -1.9872195720672607, 14.483431816101074, -6.857572555541992, 1.0475584268569946, -0.89892578125, 0.511962890625, 0.494873046875, 0, 
57, 1031579563, 0.5218841433525085, -0.5800743699073792, -0.49757492542266846, -0.3789098262786865, 9.485795974731445, -1.5934985876083374, -1.925204873085022, 17.135478973388672, -6.955060958862305, 1.009649395942688, -0.89697265625, 0.51708984375, 0.493896484375, 0, 
58, 1031587896, 0.5222575068473816, -0.5797697901725769, -0.49809980392456055, -0.37817147374153137, 9.536863327026367, -1.6339528560638428, -1.4017424583435059, 14.018660545349121, -5.630982875823975, 1.28743577003479, -0.89990234375, 0.5166015625, 0.494873046875, 0, 
59, 1031596229, 0.5224201679229736, -0.5796968936920166, -0.4984208345413208, -0.37763524055480957, 9.42833423614502, -1.5341159105300903, -1.676265001296997, 8.340826988220215, -5.232911109924316, 1.9289438724517822, -0.896484375, 0.519287109375, 0.492919921875, 0, 
60, 1031604562, 0.5225895643234253, -0.579675555229187, -0.49865955114364624, -0.37711817026138306, 9.545098304748535, -1.5893502235412598, -1.6563693284988403, 7.373404502868652, -4.686304092407227, 2.8549246788024902, -0.89453125, 0.518798828125, 0.491943359375, 0, 
61, 1031612895, 0.5227700471878052, -0.5796821713447571, -0.4987766146659851, -0.3767029047012329, 9.57222843170166, -1.7649284601211548, -1.2166281938552856, 6.024557590484619, -3.093456983566284, 3.3242027759552, -0.89794921875, 0.522216796875, 0.495849609375, 0, 
62, 1031621228, 0.5228714942932129, -0.5798067450523376, -0.49875134229660034, -0.3764037489891052, 9.414651870727539, -1.7661750316619873, -1.3858587741851807, 3.039987325668335, -2.3045129776000977, 4.020961284637451, -0.89453125, 0.519775390625, 0.496337890625, 0, 
63, 1031629561, 0.5229105353355408, -0.5800240635871887, -0.49861061573028564, -0.37620094418525696, 9.412568092346191, -1.6431920528411865, -1.4669387340545654, 0.587628960609436, -1.607805609703064, 4.563368320465088, -0.8955078125, 0.517578125, 0.494384765625, 0, 
64, 1031637894, 0.5228098630905151, -0.5804111957550049, -0.4982926845550537, -0.3761647939682007, 9.479825973510742, -1.6184195280075073, -1.3969905376434326, -3.7367324829101562, -0.8568217158317566, 5.212944984436035, -0.89501953125, 0.522216796875, 0.495361328125, 0, 
65, 1031646227, 0.5226317644119263, -0.5809047222137451, -0.4978269934654236, -0.37626710534095764, 9.539491653442383, -1.6295009851455688, -1.7149683237075806, -6.902434349060059, 0.24681876599788666, 5.732978343963623, -0.891845703125, 0.5224609375, 0.49609375, 0, 
66, 1031654560, 0.5224604606628418, -0.5814259648323059, -0.49723154306411743, -0.3764871060848236, 9.474207878112793, -1.821856141090393, -1.629514455795288, -8.488533020019531, 2.012728214263916, 6.1472249031066895, -0.892822265625, 0.522216796875, 0.49609375, 0, 
67, 1031662893, 0.5222571492195129, -0.5819907188415527, -0.4965517520904541, -0.37679359316825867, 9.335230827331543, -2.0920920372009277, -1.7772289514541626, -10.121285438537598, 2.8752105236053467, 6.3335418701171875, -0.892578125, 0.52392578125, 0.493408203125, 0, 
68, 1031671226, 0.522093653678894, -0.5825329422950745, -0.49581024050712585, -0.377159059047699, 9.270649909973145, -2.512688159942627, -1.6834444999694824, -10.482818603515625, 4.210084438323975, 6.484218597412109, -0.891845703125, 0.52392578125, 0.49609375, 0, 
69, 1031679559, 0.5216736793518066, -0.5833117365837097, -0.4948256015777588, -0.37782904505729675, 9.101200103759766, -2.836548328399658, -1.2945737838745117, -17.454315185546875, 5.389634132385254, 6.500600814819336, -0.89501953125, 0.521728515625, 0.49755859375, 0, 
70, 1031687892, 0.5210573077201843, -0.5842344164848328, -0.4938817024230957, -0.37848809361457825, 9.08142375946045, -2.733982563018799, -1.6902823448181152, -19.601682662963867, 2.8794121742248535, 6.18533992767334, -0.8935546875, 0.5224609375, 0.495361328125, 0, 
71, 1031696225, 0.520397424697876, -0.5851530432701111, -0.49313604831695557, -0.37894874811172485, 9.051309585571289, -2.7690861225128174, -1.6289879083633423, -17.716297149658203, -0.3628769814968109, 5.786168098449707, -0.89453125, 0.522216796875, 0.5, 0, 
72, 1031704558, 0.519717812538147, -0.5860444903373718, -0.49250099062919617, -0.3793293535709381, 9.059154510498047, -2.9823684692382812, -1.5035992860794067, -16.223369598388672, -1.8801366090774536, 5.125166416168213, -0.891845703125, 0.519775390625, 0.50048828125, 0, 
73, 1031712891, 0.5192931294441223, -0.5866783857345581, -0.4920944571495056, -0.37945881485939026, 9.104633331298828, -3.3717517852783203, -1.5022066831588745, -9.772908210754395, -2.376616954803467, 4.71992301940918, -0.890869140625, 0.519287109375, 0.49951171875, 0, 
74, 1031721224, 0.5190951228141785, -0.5871102809906006, -0.49197107553482056, -0.3792216181755066, 9.271292686462402, -3.5566089153289795, -1.5476051568984985, -2.4913177490234375, -4.7865071296691895, 4.863593101501465, -0.8916015625, 0.517822265625, 0.50048828125, 0, 
75, 1031729557, 0.5192318558692932, -0.5872572064399719, -0.49209707975387573, -0.3786430358886719, 9.45976734161377, -3.207803964614868, -1.4959131479263306, 5.803199768066406, -5.555881977081299, 5.111334323883057, -0.894287109375, 0.5185546875, 0.502685546875, 0, 
76, 1031737890, 0.5195982456207275, -0.5872300863265991, -0.49231210350990295, -0.3779023587703705, 9.605846405029297, -2.404934883117676, -1.904994249343872, 10.257747650146484, -4.990960121154785, 5.606406211853027, -0.890625, 0.5166015625, 0.502685546875, 0, 
77, 1031746223, 0.5199982523918152, -0.5871436595916748, -0.4925081133842468, -0.37723058462142944, 9.690407752990723, -1.8692642450332642, -1.6633946895599365, 10.592574119567871, -3.813037157058716, 5.002267837524414, -0.88916015625, 0.519775390625, 0.50146484375, 0, 
78, 1031754556, 0.5202133059501648, -0.5871955752372742, -0.4925045073032379, -0.37685757875442505, 9.695276260375977, -2.053483009338379, -1.4348478317260742, 5.4630937576293945, -2.05098295211792, 4.3795599937438965, -0.8857421875, 0.52294921875, 0.502197265625, 0, 
79, 1031762889, 0.5202702283859253, -0.5873314142227173, -0.49248701333999634, -0.376590371131897, 9.422776222229004, -2.5814855098724365, -1.6512200832366943, 2.3829309940338135, -2.496671199798584, 3.559187889099121, -0.88671875, 0.52294921875, 0.501708984375, 0, 
80, 1031771222, 0.5202548503875732, -0.5874882936477661, -0.4924789071083069, -0.3763773441314697, 9.202169418334961, -2.8922035694122314, -1.7503198385238647, 1.3775461912155151, -2.7354979515075684, 2.8567426204681396, -0.88916015625, 0.52490234375, 0.502685546875, 0, 
81, 1031779555, 0.5203214883804321, -0.5875800848007202, -0.4925130605697632, -0.3760968744754791, 9.113162994384766, -3.0053915977478027, -1.492580771446228, 3.1352975368499756, -2.6790695190429688, 2.9883744716644287, -0.88671875, 0.52392578125, 0.502197265625, 0, 
82, 1031787888, 0.5204171538352966, -0.5876095294952393, -0.49256211519241333, -0.37585437297821045, 8.733194351196289, -3.2705938816070557, -1.3876317739486694, 3.6782686710357666, -1.9713996648788452, 2.318408489227295, -0.888671875, 0.5244140625, 0.504150390625, 0, 
83, 1031796221, 0.5205233097076416, -0.5875861048698425, -0.4926743507385254, -0.3755967915058136, 8.605660438537598, -3.519925594329834, -1.6053831577301025, 4.526508808135986, -2.1890435218811035, 1.618320107460022, -0.88818359375, 0.522705078125, 0.506591796875, 0, 
84, 1031804554, 0.520685076713562, -0.5875172019004822, -0.4928800165653229, -0.37521031498908997, 8.853968620300293, -3.533810615539551, -1.5569508075714111, 6.7155022621154785, -3.3065671920776367, 1.7521802186965942, -0.88623046875, 0.52685546875, 0.504150390625, 0, 
85, 1031812887, 0.5208829045295715, -0.5873742699623108, -0.49318429827690125, -0.3747592866420746, 8.88673210144043, -3.494542360305786, -1.4134658575057983, 8.425201416015625, -3.889829397201538, 1.1143345832824707, -0.8857421875, 0.528076171875, 0.504638671875, 0, 
86, 1031821220, 0.5210469961166382, -0.587188720703125, -0.49360454082489014, -0.37426862120628357, 8.945568084716797, -3.5099358558654785, -1.412298560142517, 9.357379913330078, -5.058965682983398, -0.00952849630266428, -0.8876953125, 0.5244140625, 0.504150390625, 0, 
87, 1031829553, 0.5212083458900452, -0.5869545936584473, -0.4941543638706207, -0.373685359954834, 9.042774200439453, -3.5047149658203125, -1.2541464567184448, 10.945234298706055, -6.494746685028076, -0.7275469303131104, -0.88330078125, 0.530029296875, 0.502685546875, 0, 
88, 1031837886, 0.5214240550994873, -0.5866281390190125, -0.4948279559612274, -0.3730044960975647, 9.08757495880127, -3.3326797485351562, -1.3199509382247925, 13.174798965454102, -7.282716751098633, -1.346745491027832, -0.8857421875, 0.527587890625, 0.503173828125, 0, 
89, 1031846219, 0.521605908870697, -0.5862749814987183, -0.4956526756286621, -0.37220972776412964, 9.118366241455078, -3.1981916427612305, -1.1295711994171143, 14.814750671386719, -9.42127513885498, -2.134101390838623, -0.883056640625, 0.528076171875, 0.50634765625, 0, 
90, 1031854552, 0.5216802358627319, -0.585908830165863, -0.49679359793663025, -0.37115994095802307, 9.229207992553711, -3.254621982574463, -1.3111340999603271, 17.415315628051758, -14.415976524353027, -3.501210927963257, -0.884765625, 0.52685546875, 0.505615234375, 0, 
91, 1031862885, 0.521587073802948, -0.5857632756233215, -0.4978071451187134, -0.3701612949371338, 9.717954635620117, -3.680222511291504, -1.4459482431411743, 13.466830253601074, -15.353973388671875, -2.180720090866089, -0.8837890625, 0.5263671875, 0.503173828125, 0, 
92, 1031871218, 0.5213927626609802, -0.5857716202735901, -0.4985344707965851, -0.36944207549095154, 9.96629810333252, -3.1567189693450928, -2.716508150100708, 8.2325439453125, -12.547711372375488, -1.357849359512329, -0.881591796875, 0.531005859375, 0.50634765625, 0, 
93, 1031879551, 0.521468997001648, -0.5855300426483154, -0.4992920756340027, -0.36869341135025024, 9.877251625061035, -2.3875012397766113, -2.1382699012756348, 12.505486488342285, -9.856756210327148, -1.7121195793151855, -0.883544921875, 0.528564453125, 0.5068359375, 0, 
94, 1031887884, 0.5213258266448975, -0.5856010317802429, -0.4996141791343689, -0.3683467507362366, 9.786972045898438, -2.5439975261688232, -1.5397833585739136, 3.5048601627349854, -6.5863938331604, -0.059501875191926956, -0.878662109375, 0.531005859375, 0.5068359375, 0, 
95, 1031896217, 0.5202758312225342, -0.5867685079574585, -0.4991360902786255, -0.3686215877532959, 9.549396514892578, -3.2658462524414062, -1.4487358331680298, -19.95705795288086, -7.632277011871338, 4.873532772064209, -0.879638671875, 0.530517578125, 0.5107421875, 0, 
96, 1031904550, 0.519075334072113, -0.5881838202476501, -0.49863022565841675, -0.3687431216239929, 9.302937507629395, -3.4480061531066895, -2.5769500732421875, -22.176074981689453, -10.926039695739746, 7.151972770690918, -0.87939453125, 0.53173828125, 0.512451171875, 0, 
97, 1031912883, 0.5183348655700684, -0.5892069339752197, -0.49839213490486145, -0.3684732913970947, 9.736244201660156, -2.5268430709838867, -1.1488932371139526, -11.471415519714355, -10.894762992858887, 7.402759552001953, -0.88134765625, 0.528076171875, 0.51806640625, 0, 
98, 1031921216, 0.5182802677154541, -0.5895350575447083, -0.4984274208545685, -0.36797723174095154, 9.813431739807129, -0.7961638569831848, -2.7977309226989746, 2.0191829204559326, -6.465212345123291, 5.495573043823242, -0.87841796875, 0.529541015625, 0.516357421875, 0, 
99, 1031929549, 0.5194807648658752, -0.5885176658630371, -0.49970775842666626, -0.36617225408554077, 10.031460762023926, 1.2591720819473267, -4.44585657119751, 37.01057815551758, -10.526311874389648, 1.8762578964233398, -0.877685546875, 0.528564453125, 0.51708984375, 0, 
100, 1031937882, 0.5202974677085876, -0.5878461599349976, -0.5004804134368896, -0.36503392457962036, 10.287651062011719, 0.10998395085334778, -1.4422361850738525, 24.341642379760742, -5.900370121002197, 1.6505180597305298, -0.8740234375, 0.533203125, 0.512451171875, 0, 
101, 1031946215, 0.5204313397407532, -0.5877771377563477, -0.5006887316703796, -0.3646685481071472, 9.339957237243652, -0.7147684693336487, -4.595404148101807, 6.313946723937988, -3.3196558952331543, 1.4180935621261597, -0.87548828125, 0.53564453125, 0.513427734375, 0, 
102, 1031954548, 0.520854115486145, -0.5873756408691406, -0.5013598203659058, -0.3637886941432953, 9.066906929016113, -2.2693896293640137, -2.831470251083374, 16.856998443603516, -7.127161979675293, 0.5238239765167236, -0.8779296875, 0.53564453125, 0.512451171875, 0, 
103, 1031962881, 0.5211827158927917, -0.587165355682373, -0.5016826391220093, -0.3632119596004486, 9.507840156555176, -3.18209171295166, -1.6364811658859253, 10.928095817565918, -3.7979254722595215, 2.009552001953125, -0.872802734375, 0.537841796875, 0.515380859375, 0, 
104, 1031971214, 0.5214940309524536, -0.5869941711425781, -0.5018128752708435, -0.36286166310310364, 9.235798835754395, -2.7022836208343506, -2.3754422664642334, 8.127306938171387, -0.9420657753944397, 2.0925419330596924, -0.87646484375, 0.537841796875, 0.514892578125, 0, 
105, 1031979547, 0.5218966603279114, -0.586653470993042, -0.5020281672477722, -0.3625360131263733, 9.25534439086914, -2.7291252613067627, -1.912462830543518, 10.191404342651367, 0.16130565106868744, 0.5469023585319519, -0.87646484375, 0.536865234375, 0.512451171875, 0, 
106, 1031987880, 0.5221567749977112, -0.586462140083313, -0.5020972490310669, -0.36237508058547974, 9.445572853088379, -3.1064932346343994, -1.9757053852081299, 6.169804096221924, 0.7959624528884888, 0.8508793711662292, -0.873046875, 0.536376953125, 0.511474609375, 0, 
107, 1031996213, 0.5223214030265808, -0.5863614678382874, -0.5020705461502075, -0.3623378574848175, 9.255622863769531, -3.229072093963623, -2.0276083946228027, 3.351942300796509, 1.3857682943344116, 0.8991747498512268, -0.87548828125, 0.538818359375, 0.511474609375, 0, 
108, 1032004546, 0.5224530100822449, -0.5862500071525574, -0.5020322799682617, -0.36238157749176025, 9.116606712341309, -3.1301231384277344, -2.014148473739624, 2.6157641410827637, 1.9265364408493042, 0.15380068123340607, -0.8740234375, 0.536376953125, 0.512451171875, 0, 
109, 1032012879, 0.5225458145141602, -0.5861150026321411, -0.5019789338111877, -0.362540066242218, 8.964923858642578, -3.0145795345306396, -1.807093858718872, 1.535919189453125, 2.831512689590454, -0.8869953155517578, -0.876708984375, 0.537841796875, 0.512451171875, 0, 
110, 1032021212, 0.5225885510444641, -0.5860030055046082, -0.5018711090087891, -0.36280858516693115, 8.897481918334961, -3.0365102291107178, -1.7458771467208862, -0.14851132035255432, 3.6716339588165283, -1.3162386417388916, -0.875, 0.537841796875, 0.509765625, 0, 
111, 1032029545, 0.522440493106842, -0.5860697627067566, -0.5016233921051025, -0.36325615644454956, 9.090986251831055, -2.8498244285583496, -1.7486871480941772, -4.820394992828369, 3.8866405487060547, -1.206763744354248, -0.8740234375, 0.536865234375, 0.50927734375, 0, 
112, 1032037878, 0.5222863554954529, -0.586128830909729, -0.5014083981513977, -0.36367887258529663, 9.216484069824219, -2.7739927768707275, -1.550516128540039, -4.4421234130859375, 3.438493251800537, -1.389418601989746, -0.876708984375, 0.538818359375, 0.509765625, 0, 
113, 1032046211, 0.5220624804496765, -0.5861746668815613, -0.5012185573577881, -0.36418765783309937, 9.007281303405762, -3.052882432937622, -1.755043625831604, -5.411544322967529, 3.5477375984191895, -2.635679006576538, -0.8759765625, 0.537353515625, 0.51025390625, 0, 
114, 1032054544, 0.5218858122825623, -0.5861597061157227, -0.5011104345321655, -0.36461392045021057, 9.165958404541016, -3.232137680053711, -1.9393893480300903, -3.5885796546936035, 2.9166033267974854, -2.8990447521209717, -0.878662109375, 0.538330078125, 0.509765625, 0, 
115, 1032062877, 0.5217731595039368, -0.586118757724762, -0.5010194778442383, -0.3649654984474182, 9.360527992248535, -3.1172261238098145, -1.7286959886550903, -2.3161160945892334, 2.7711400985717773, -2.3452394008636475, -0.878662109375, 0.53369140625, 0.5107421875, 0, 
116, 1032071210, 0.5217723846435547, -0.5859621167182922, -0.5009742975234985, -0.3652801811695099, 9.281096458435059, -2.670469045639038, -2.326063632965088, 0.2799636125564575, 3.396498918533325, -2.768322706222534, -0.878662109375, 0.5322265625, 0.5087890625, 0, 
117, 1032079543, 0.52191561460495, -0.5855774879455566, -0.5012715458869934, -0.3652845323085785, 9.298079490661621, -2.1638948917388916, -2.3171257972717285, 6.55515718460083, 0.6759982109069824, -4.065594673156738, -0.879638671875, 0.53466796875, 0.51025390625, 0, 
118, 1032087876, 0.5219957828521729, -0.5852518081665039, -0.5014545321464539, -0.3654406666755676, 9.479580879211426, -2.084684371948242, -1.8488959074020386, 4.245546817779541, 1.9243334531784058, -4.202322959899902, -0.879150390625, 0.536376953125, 0.50927734375, 0, 
119, 1032096209, 0.5218387842178345, -0.5851202011108398, -0.5014239549636841, -0.36591729521751404, 9.385971069335938, -1.7832365036010742, -2.2835423946380615, -2.5807883739471436, 3.4893124103546143, -4.580773830413818, -0.879638671875, 0.536376953125, 0.50927734375, 0, 
120, 1032104542, 0.5216607451438904, -0.5849756002426147, -0.5014174580574036, -0.3664112389087677, 9.458147048950195, -1.904350757598877, -2.1301300525665283, -2.6113197803497314, 3.366132974624634, -5.109348297119141, -0.879638671875, 0.53369140625, 0.5087890625, 0, 
121, 1032112875, 0.5215180516242981, -0.5848128795623779, -0.5014114379882812, -0.36688193678855896, 9.597055435180664, -2.530602216720581, -1.7412430047988892, -2.0785181522369385, 3.520458936691284, -4.878205299377441, -0.882080078125, 0.530517578125, 0.51025390625, 0, 
122, 1032121208, 0.5213501453399658, -0.584668755531311, -0.5014740228652954, -0.3672645688056946, 9.236146926879883, -2.895787239074707, -1.4343398809432983, -1.3877793550491333, 2.0374717712402344, -4.817115783691406, -0.880126953125, 0.531005859375, 0.509765625, 0, 
123, 1032129541, 0.521238386631012, -0.5844557285308838, -0.5017279386520386, -0.36741527915000916, 9.128278732299805, -3.0439350605010986, -1.3900843858718872, 2.049612522125244, -0.4494785964488983, -4.864629745483398, -0.8828125, 0.530029296875, 0.505615234375, 0, 
124, 1032137874, 0.5213921070098877, -0.5840867757797241, -0.502120852470398, -0.3672473430633545, 9.637369155883789, -2.7056851387023926, -1.3743809461593628, 8.289446830749512, -1.407092571258545, -3.4561550617218018, -0.882568359375, 0.531494140625, 0.50927734375, 0, 
125, 1032146207, 0.5215883255004883, -0.5837622880935669, -0.5024185180664062, -0.3670775294303894, 9.718530654907227, -2.055406093597412, -1.2323801517486572, 7.7535200119018555, -0.6500638127326965, -2.131514549255371, -0.878662109375, 0.531005859375, 0.5068359375, 0, 
126, 1032154540, 0.5216058492660522, -0.5836256146430969, -0.5024502277374268, -0.3672263026237488, 9.48360538482666, -1.9451676607131958, -1.6225277185440063, 1.4059780836105347, 1.6404765844345093, -1.8893827199935913, -0.88427734375, 0.531982421875, 0.50927734375, 0, 
127, 1032162873, 0.5216357707977295, -0.583497941493988, -0.5025047063827515, -0.3673124313354492, 9.323701858520508, -2.318020820617676, -1.9841248989105225, 2.012113571166992, 1.0073693990707397, -1.4957689046859741, -0.881103515625, 0.53271484375, 0.51025390625, 0, 
128, 1032171206, 0.5217025876045227, -0.5833683609962463, -0.5025362968444824, -0.36737993359565735, 9.245197296142578, -2.9659476280212402, -1.6941757202148438, 2.380932569503784, 1.2735011577606201, -1.0198050737380981, -0.880126953125, 0.528076171875, 0.5087890625, 0, 
129, 1032179539, 0.5216866731643677, -0.5833531022071838, -0.5022609233856201, -0.3678031265735626, 9.22541618347168, -3.4339191913604736, -1.3020333051681519, -3.1577999591827393, 5.192453861236572, -0.7224751114845276, -0.88134765625, 0.53271484375, 0.504638671875, 0, 
130, 1032187872, 0.5213488340377808, -0.5837265253067017, -0.5016289949417114, -0.3685513734817505, 9.318532943725586, -3.5147652626037598, -1.9939618110656738, -12.29442310333252, 6.096713542938232, 0.8013285994529724, -0.884033203125, 0.529541015625, 0.5078125, 0, 
131, 1032196205, 0.5215169191360474, -0.5836330652236938, -0.5015759468078613, -0.3685339093208313, 9.34913444519043, -3.0745487213134766, -1.5649299621582031, 3.047722339630127, 1.7273852825164795, 1.048736333847046, -0.8837890625, 0.530517578125, 0.504638671875, 0, 
132, 1032204538, 0.5218416452407837, -0.5833528637886047, -0.5017688274383545, -0.3682551085948944, 9.385183334350586, -2.535449981689453, -1.1462461948394775, 8.636569023132324, -0.08982912451028824, 0.45779043436050415, -0.882080078125, 0.530517578125, 0.5068359375, 0, 
133, 1032212871, 0.5225194096565247, -0.5826045274734497, -0.5024142861366272, -0.36759841442108154, 9.223304748535156, -1.3744423389434814, -2.7809901237487793, 19.784250259399414, -1.5781446695327759, -1.905853271484375, -0.8837890625, 0.53173828125, 0.503173828125, 0, 
134, 1032221204, 0.5235198140144348, -0.5813727974891663, -0.5035489201545715, -0.36657068133354187, 9.577754974365234, -0.23310086131095886, -2.5361053943634033, 30.776365280151367, -3.3675835132598877, -4.8582048416137695, -0.88232421875, 0.533203125, 0.502685546875, 0, 
135, 1032229537, 0.5241405963897705, -0.5804634094238281, -0.5042586326599121, -0.3661488890647888, 9.489806175231934, -0.717272937297821, -2.5885257720947266, 19.18569564819336, 0.25666752457618713, -5.51356840133667, -0.887939453125, 0.5341796875, 0.501708984375, 0, 
136, 1032237870, 0.5249096155166626, -0.579326868057251, -0.5051878690719604, -0.3655660152435303, 9.015852928161621, -1.3854327201843262, -3.7326555252075195, 24.164621353149414, -0.4236084520816803, -6.929473400115967, -0.8837890625, 0.5341796875, 0.503662109375, 0, 
137, 1032246203, 0.5258322954177856, -0.578005313873291, -0.5062515735626221, -0.3648598790168762, 8.965076446533203, -2.9363889694213867, -2.16685152053833, 28.320899963378906, -0.3953816294670105, -7.62920618057251, -0.88427734375, 0.53271484375, 0.49951171875, 0, 
138, 1032254536, 0.5264948606491089, -0.5769238471984863, -0.5070940256118774, -0.3644455075263977, 9.149380683898926, -2.6525306701660156, -1.8726956844329834, 21.164499282836914, 0.5664461851119995, -7.578333377838135, -0.886474609375, 0.53515625, 0.500732421875, 0, 
139, 1032262869, 0.5272909998893738, -0.5757197737693787, -0.5079727172851562, -0.36397451162338257, 9.30188274383545, -2.088113784790039, -1.7265961170196533, 23.900001525878906, 1.3432496786117554, -7.6759748458862305, -0.883544921875, 0.536865234375, 0.493896484375, 0, 
140, 1032271202, 0.5279953479766846, -0.574630856513977, -0.5087548494338989, -0.3635818660259247, 9.440167427062988, -2.085397481918335, -1.5846095085144043, 21.657520294189453, 1.3588484525680542, -7.206490993499756, -0.885009765625, 0.536865234375, 0.492919921875, 0, 
141, 1032279535, 0.5286238193511963, -0.5736225843429565, -0.5094559192657471, -0.3632793426513672, 9.584593772888184, -2.0562400817871094, -1.8784281015396118, 19.085159301757812, 1.8118617534637451, -6.964179515838623, -0.8876953125, 0.537841796875, 0.489990234375, 0, 
142, 1032287868, 0.5295093059539795, -0.5723358392715454, -0.5102611184120178, -0.3628884255886078, 9.509577751159668, -2.1304140090942383, -2.0088186264038086, 24.566486358642578, 3.478633165359497, -7.869056701660156, -0.88671875, 0.538330078125, 0.490966796875, 0, 
143, 1032296201, 0.5304089784622192, -0.570953369140625, -0.5110852718353271, -0.3625926077365875, 9.433653831481934, -2.431344985961914, -1.8484196662902832, 24.513654708862305, 4.738840579986572, -9.25220012664795, -0.888916015625, 0.539306640625, 0.489501953125, 0, 
144, 1032304534, 0.5312234163284302, -0.5696195363998413, -0.5118023157119751, -0.36248698830604553, 9.352143287658691, -2.4438767433166504, -2.3774938583374023, 21.251258850097656, 6.26369571685791, -9.821425437927246, -0.886962890625, 0.537353515625, 0.484375, 0, 
145, 1032312867, 0.5320497155189514, -0.5682668089866638, -0.5125455856323242, -0.36234819889068604, 9.281919479370117, -2.2073476314544678, -2.3033254146575928, 22.213712692260742, 5.897974967956543, -9.918580055236816, -0.889892578125, 0.536376953125, 0.48486328125, 0, 
146, 1032321200, 0.5325160622596741, -0.5672717690467834, -0.512959361076355, -0.3626360297203064, 9.081135749816895, -1.898429036140442, -1.923438310623169, 12.052562713623047, 7.346484184265137, -9.729108810424805, -0.892578125, 0.54150390625, 0.482666015625, 0, 
147, 1032329533, 0.5325927734375, -0.5666594505310059, -0.5129565000534058, -0.36348414421081543, 8.815197944641113, -1.6261332035064697, -2.3892760276794434, 0.26222583651542664, 10.086824417114258, -9.83389663696289, -0.89111328125, 0.538330078125, 0.481689453125, 0, 
148, 1032337866, 0.5324972867965698, -0.5662142634391785, -0.5128060579299927, -0.36452874541282654, 8.793392181396484, -1.875900149345398, -1.524327039718628, -4.02796745300293, 10.553208351135254, -9.879977226257324, -0.89111328125, 0.534912109375, 0.479736328125, 0, 
149, 1032346199, 0.5322142243385315, -0.5659498572349548, -0.5125134587287903, -0.36576229333877563, 8.908658981323242, -2.5066821575164795, -1.0554890632629395, -9.255064964294434, 10.931325912475586, -9.747628211975098, -0.89501953125, 0.53466796875, 0.484130859375, 0, 
150, 1032354532, 0.5317875146865845, -0.5658652782440186, -0.5118938684463501, -0.3673774302005768, 9.046525001525879, -2.631580114364624, -1.2113018035888672, -16.142637252807617, 14.411639213562012, -9.433034896850586, -0.896728515625, 0.53271484375, 0.4775390625, 0, 
151, 1032362865, 0.5315611958503723, -0.5656133890151978, -0.5117506384849548, -0.3682912290096283, 9.46362590789795, -2.38960862159729, -1.1525784730911255, -5.897755146026611, 7.693889617919922, -8.192791938781738, -0.899658203125, 0.529052734375, 0.47802734375, 0, 
152, 1032371198, 0.5313999652862549, -0.5653768181800842, -0.5114519000053406, -0.369300901889801, 9.741106986999512, -2.2077865600585938, -0.605342447757721, -6.7888503074646, 9.917104721069336, -7.28317928314209, -0.898193359375, 0.529541015625, 0.47802734375, 0, 
153, 1032379531, 0.5311143398284912, -0.5652323365211487, -0.5111034512519836, -0.37041381001472473, 9.747315406799316, -2.065216302871704, -1.1436970233917236, -9.583723068237305, 9.779708862304688, -7.59867000579834, -0.901611328125, 0.530517578125, 0.4775390625, 0, 
154, 1032387864, 0.5308188796043396, -0.5650861263275146, -0.5108290314674377, -0.3714372217655182, 9.59796142578125, -2.2972254753112793, -1.051416277885437, -8.232353210449219, 8.387615203857422, -7.6576972007751465, -0.90673828125, 0.52490234375, 0.474609375, 0, 
155, 1032396197, 0.5305683016777039, -0.5649163126945496, -0.5107036828994751, -0.372225284576416, 9.309368133544922, -2.8148186206817627, -0.6522169709205627, -5.705443382263184, 6.001351356506348, -6.960335731506348, -0.901123046875, 0.52490234375, 0.47607421875, 0, 
156, 1032404530, 0.530434787273407, -0.5646396279335022, -0.5107836127281189, -0.37272554636001587, 9.079130172729492, -2.8876938819885254, -0.9204898476600647, -0.9340231418609619, 3.6369271278381348, -6.613339900970459, -0.903076171875, 0.5244140625, 0.47509765625, 0, 
157, 1032412863, 0.5304737687110901, -0.5641971230506897, -0.5110635161399841, -0.37295618653297424, 9.350041389465332, -2.5989437103271484, -0.7418085932731628, 4.523281574249268, 2.1453585624694824, -6.472665786743164, -0.904296875, 0.52685546875, 0.4755859375, 0, 
158, 1032421196, 0.5305328965187073, -0.5637865662574768, -0.5112731456756592, -0.3732052743434906, 9.5387544631958, -2.085753917694092, -0.7835813164710999, 3.4840357303619385, 2.8903486728668213, -5.663563251495361, -0.90576171875, 0.522216796875, 0.47607421875, 0, 
159, 1032429529, 0.530479371547699, -0.5635038018226624, -0.5113371014595032, -0.37362053990364075, 9.397077560424805, -1.47215735912323, -1.379214882850647, 0.23551009595394135, 3.682494878768921, -5.49650764465332, -0.90478515625, 0.5244140625, 0.474609375, 0, 
160, 1032437862, 0.530332088470459, -0.563316285610199, -0.5113992094993591, -0.3740272521972656, 9.374054908752441, -1.5988569259643555, -1.7049081325531006, -0.8229597210884094, 2.409595012664795, -5.290312767028809, -0.9072265625, 0.521240234375, 0.473388671875, 0, 
161, 1032446195, 0.5300548672676086, -0.5632809996604919, -0.5114229917526245, -0.37444061040878296, 9.539164543151855, -2.0592432022094727, -1.6495583057403564, -3.497213840484619, 1.1162042617797852, -4.581873893737793, -0.90771484375, 0.522705078125, 0.47705078125, 0, 
162, 1032454528, 0.5297539830207825, -0.5632836818695068, -0.5114600658416748, -0.37481164932250977, 9.483384132385254, -2.33665132522583, -1.7051736116409302, -3.8668274879455566, 0.39226922392845154, -4.192231178283691, -0.904052734375, 0.520263671875, 0.474853515625, 0, 
163, 1032462861, 0.5295250415802002, -0.5632373690605164, -0.5116270780563354, -0.37497708201408386, 9.347243309020996, -2.320096254348755, -1.1907539367675781, -0.561310350894928, -1.4535309076309204, -3.7134487628936768, -0.906005859375, 0.518310546875, 0.478515625, 0, 
164, 1032471194, 0.5293165445327759, -0.5631875395774841, -0.5117379426956177, -0.37519457936286926, 9.381784439086914, -2.326470136642456, -0.7986493110656738, -0.9342535734176636, -0.49899089336395264, -3.599696397781372, -0.9091796875, 0.517578125, 0.473876953125, 0, 
165, 1032479527, 0.5290799140930176, -0.5631780028343201, -0.5118476748466492, -0.37539294362068176, 9.544629096984863, -2.2709012031555176, -0.7194986343383789, -1.4156728982925415, -1.0233910083770752, -3.2906606197357178, -0.905517578125, 0.519287109375, 0.4755859375, 0, 
166, 1032487860, 0.5286966562271118, -0.5633411407470703, -0.5119277238845825, -0.3755791187286377, 9.695188522338867, -1.7508848905563354, -0.5995538830757141, -3.93808650970459, -2.810060977935791, -2.5089914798736572, -0.906494140625, 0.518310546875, 0.4765625, 0, 
167, 1032496193, 0.528164803981781, -0.5636144876480103, -0.5120559930801392, -0.37574249505996704, 9.573235511779785, -1.682074785232544, -0.5537721514701843, -5.417641639709473, -4.968470573425293, -2.7134957313537598, -0.9111328125, 0.51416015625, 0.4765625, 0, 
168, 1032504526, 0.5274893045425415, -0.5640056729316711, -0.5121951103210449, -0.37591445446014404, 9.882214546203613, -1.8345911502838135, -0.839873731136322, -7.548823356628418, -6.565876483917236, -2.752070665359497, -0.906982421875, 0.51611328125, 0.47705078125, 0, 
169, 1032512859, 0.5268123745918274, -0.5644404888153076, -0.5124050974845886, -0.3759250044822693, 10.166747093200684, -1.9625861644744873, -0.8040103316307068, -6.215013027191162, -8.60269546508789, -1.8506032228469849, -0.906982421875, 0.51708984375, 0.47998046875, 0, 
170, 1032521192, 0.5261286497116089, -0.5649184584617615, -0.5126566886901855, -0.3758217394351959, 9.92987060546875, -1.685576319694519, -0.5606733560562134, -5.292592525482178, -10.12159252166748, -1.1318674087524414, -0.90478515625, 0.5146484375, 0.481201171875, 0, 
171, 1032529525, 0.5256548523902893, -0.5653396844863892, -0.5127905607223511, -0.37566864490509033, 9.562670707702637, -1.832329273223877, -1.2214268445968628, -3.779329299926758, -7.820051670074463, 0.8786579370498657, -0.907958984375, 0.5146484375, 0.482666015625, 0, 
172, 1032537858, 0.5252894163131714, -0.5657914876937866, -0.5129275918006897, -0.37531232833862305, 9.431286811828613, -1.1564362049102783, -1.5191072225570679, -1.6022731065750122, -8.844468116760254, 3.076000928878784, -0.90771484375, 0.512451171875, 0.483642578125, 0, 
173, 1032546191, 0.524884819984436, -0.5663952827453613, -0.5130048990249634, -0.37486183643341064, 9.567657470703125, 0.02952253445982933, -1.3564516305923462, -2.7555792331695557, -10.179020881652832, 5.114842414855957, -0.906982421875, 0.5166015625, 0.482666015625, 0, 
174, 1032554524, 0.524543285369873, -0.567030131816864, -0.5128971338272095, -0.3745271861553192, 9.56764030456543, 0.5743620991706848, -1.9187047481536865, -4.287631511688232, -7.654289245605469, 6.264755725860596, -0.903076171875, 0.515625, 0.48828125, 0, 
175, 1032562857, 0.5240154266357422, -0.5679367184638977, -0.5125575065612793, -0.3743571639060974, 10.003421783447266, 0.7011620402336121, -1.9815447330474854, -10.028921127319336, -7.413195610046387, 7.841606140136719, -0.902587890625, 0.51513671875, 0.485595703125, 0, 
176, 1032571190, 0.5232750177383423, -0.5692231059074402, -0.5118049383163452, -0.37446892261505127, 10.249073028564453, 0.8521822690963745, -1.6947416067123413, -18.44735336303711, -5.717790603637695, 10.601466178894043, -0.901611328125, 0.51806640625, 0.491455078125, 0, 
177, 1032579523, 0.5223928093910217, -0.5707722306251526, -0.5106546878814697, -0.37491291761398315, 9.978882789611816, 0.4488697350025177, -1.9519425630569458, -25.923288345336914, -2.5796115398406982, 12.45996379852295, -0.8994140625, 0.51416015625, 0.492431640625, 0, 
178, 1032587856, 0.52129727602005, -0.5726456046104431, -0.5091291666030884, -0.375654935836792, 9.791716575622559, -0.6163901686668396, -2.104727029800415, -33.61429214477539, -0.7968342900276184, 14.38319206237793, -0.901611328125, 0.512451171875, 0.4912109375, 0, 
179, 1032596189, 0.5199620127677917, -0.5748056173324585, -0.507326066493988, -0.3766447901725769, 9.591597557067871, -1.5095784664154053, -1.8581149578094482, -41.066001892089844, 0.06887678802013397, 15.620637893676758, -0.89794921875, 0.513427734375, 0.4970703125, 0, 
180, 1032604522, 0.5185535550117493, -0.5769849419593811, -0.5054743885993958, -0.37774211168289185, 9.027100563049316, -2.5356738567352295, -1.5820375680923462, -42.951229095458984, 0.6903433203697205, 15.026324272155762, -0.897216796875, 0.510986328125, 0.4990234375, 0, 
181, 1032612855, 0.5172064304351807, -0.5790079236030579, -0.5038978457450867, -0.3785989582538605, 8.492704391479492, -3.2585389614105225, -1.4716702699661255, -38.08229446411133, -1.9767043590545654, 13.754030227661133, -0.896728515625, 0.5087890625, 0.50048828125, 0, 
182, 1032621188, 0.5159204006195068, -0.5809314846992493, -0.5026034116744995, -0.3791272044181824, 8.883115768432617, -3.190809965133667, -1.3997676372528076, -33.24562454223633, -5.638211727142334, 13.500905990600586, -0.892578125, 0.509521484375, 0.501953125, 0, 
183, 1032629521, 0.5149013996124268, -0.5826348066329956, -0.5015296936035156, -0.37932077050209045, 9.446545600891113, -2.717935085296631, -1.1992841958999634, -25.984277725219727, -6.903323650360107, 13.9559907913208, -0.89453125, 0.50732421875, 0.504150390625, 0, 
184, 1032637854, 0.5139358043670654, -0.5843048691749573, -0.5003600120544434, -0.3796057105064392, 9.579398155212402, -2.091175079345703, -1.3999223709106445, -26.84770965576172, -4.860689163208008, 14.208086967468262, -0.892822265625, 0.504638671875, 0.51171875, 0, 
185, 1032646187, 0.5129203200340271, -0.5860563516616821, -0.4990401566028595, -0.380016565322876, 9.557052612304688, -2.1415328979492188, -1.7334086894989014, -29.076000213623047, -3.646625280380249, 14.742247581481934, -0.894775390625, 0.50732421875, 0.515380859375, 0, 
186, 1032654520, 0.5117142796516418, -0.5879449844360352, -0.49751392006874084, -0.38072577118873596, 9.221632957458496, -2.8897736072540283, -2.1471102237701416, -34.83049392700195, -1.7852890491485596, 14.276049613952637, -0.8916015625, 0.50634765625, 0.515380859375, 0, 
187, 1032662853, 0.5103222727775574, -0.5899270176887512, -0.49587374925613403, -0.38166671991348267, 9.11906623840332, -3.4814770221710205, -2.7709169387817383, -39.04934310913086, -0.896781325340271, 13.20378589630127, -0.8916015625, 0.504638671875, 0.515869140625, 0, 
188, 1032671186, 0.5088587999343872, -0.5918132066726685, -0.4942173361778259, -0.3828471899032593, 9.112191200256348, -3.737441301345825, -3.138773202896118, -40.57308578491211, 1.1458673477172852, 10.608216285705566, -0.89111328125, 0.503173828125, 0.513916015625, 0, 
189, 1032679519, 0.5072924494743347, -0.5936262607574463, -0.4926377236843109, -0.38415250182151794, 9.223989486694336, -3.6132524013519287, -3.267198085784912, -41.445125579833984, 1.3400236368179321, 8.088872909545898, -0.88720703125, 0.5, 0.52197265625, 0, 
190, 1032687852, 0.5057598352432251, -0.5953121781349182, -0.491118848323822, -0.3855070471763611, 9.38066577911377, -3.5413241386413574, -3.023145914077759, -40.219295501708984, 2.1973586082458496, 6.5511956214904785, -0.8896484375, 0.49755859375, 0.526123046875, 0, 
191, 1032696185, 0.504304826259613, -0.5968095064163208, -0.4897201955318451, -0.38687488436698914, 9.226539611816406, -3.6046981811523438, -2.608948230743408, -37.79902648925781, 3.014735460281372, 4.6258978843688965, -0.88818359375, 0.495849609375, 0.525634765625, 0, 
192, 1032704518, 0.5028887391090393, -0.598135232925415, -0.48845356702804565, -0.38826972246170044, 9.062721252441406, -3.9430830478668213, -2.244096040725708, -35.95074462890625, 3.5404675006866455, 2.4438695907592773, -0.887451171875, 0.494873046875, 0.528564453125, 0, 
193, 1032712851, 0.5015008449554443, -0.5993869304656982, -0.487246572971344, -0.38964876532554626, 9.368523597717285, -3.767421007156372, -2.079441785812378, -34.60371780395508, 3.5387253761291504, 1.679002046585083, -0.888916015625, 0.4912109375, 0.53466796875, 0, 
194, 1032721184, 0.5001711249351501, -0.6005160808563232, -0.4861553907394409, -0.3909796476364136, 9.384811401367188, -3.646639823913574, -1.7168309688568115, -32.755126953125, 3.491978883743286, 0.6314297914505005, -0.888916015625, 0.48876953125, 0.53515625, 0, 
195, 1032729517, 0.49885979294776917, -0.6015462875366211, -0.48513558506965637, -0.3923358917236328, 9.141083717346191, -3.800614833831787, -1.7314002513885498, -31.28717803955078, 3.7629270553588867, -0.7792114019393921, -0.8896484375, 0.484130859375, 0.533203125, 0, 
196, 1032737850, 0.49769580364227295, -0.6024169921875, -0.48430678248405457, -0.393500417470932, 9.368644714355469, -3.459963321685791, -2.0406486988067627, -26.717077255249023, 2.721860408782959, -1.3065062761306763, -0.88916015625, 0.482666015625, 0.53466796875, 0, 
197, 1032746183, 0.49680450558662415, -0.6030422449111938, -0.4837719202041626, -0.3943260610103607, 9.500117301940918, -3.4557137489318848, -1.6759223937988281, -18.877695083618164, 1.0369027853012085, -1.5872888565063477, -0.89013671875, 0.4794921875, 0.539306640625, 0, 
198, 1032754516, 0.4960216283798218, -0.603519082069397, -0.4834481477737427, -0.3949788212776184, 9.40009880065918, -3.0543129444122314, -1.5018113851547241, -14.71693229675293, -0.3028756082057953, -2.555417776107788, -0.893310546875, 0.47998046875, 0.5361328125, 0, 
199, 1032762849, 0.4953990578651428, -0.603863537311554, -0.4832749664783478, -0.3954452872276306, 9.679088592529297, -2.440998077392578, -1.4759572744369507, -10.381423950195312, -1.1022062301635742, -2.5450048446655273, -0.89208984375, 0.47998046875, 0.53759765625, 0, 
200, 1032771182, 0.49485522508621216, -0.6041176319122314, -0.48315900564193726, -0.395879328250885, 9.750540733337402, -1.7096076011657715, -1.3788830041885376, -8.936165809631348, -0.6662774682044983, -2.909111499786377, -0.892578125, 0.477783203125, 0.539306640625, 0, 
201, 1032779515, 0.49432098865509033, -0.6043553948402405, -0.48293474316596985, -0.3964572846889496, 9.43596363067627, -1.2331452369689941, -1.430870532989502, -9.938682556152344, 1.339663028717041, -3.1074681282043457, -0.889404296875, 0.475830078125, 0.541748046875, 0, 
202, 1032787848, 0.49378839135169983, -0.6046305298805237, -0.48272567987442017, -0.39695581793785095, 9.40141487121582, -0.8185432553291321, -2.4804441928863525, -9.448861122131348, 0.35164502263069153, -2.471466302871704, -0.889404296875, 0.47314453125, 0.543212890625, 0, 
203, 1032796181, 0.49324169754981995, -0.6049875020980835, -0.48239636421203613, -0.39749133586883545, 9.524958610534668, -1.047341227531433, -2.264573812484741, -11.144050598144531, 0.9660921692848206, -1.220146894454956, -0.891845703125, 0.47314453125, 0.542724609375, 0, 
204, 1032804514, 0.492858350276947, -0.6052488684654236, -0.4821734130382538, -0.39783942699432373, 9.395042419433594, -1.5541436672210693, -2.8460569381713867, -7.21455717086792, 0.2655043601989746, -0.6059560179710388, -0.890380859375, 0.47265625, 0.540771484375, 0, 
205, 1032812847, 0.49268457293510437, -0.6053522229194641, -0.4821338653564453, -0.39794549345970154, 9.424627304077148, -2.331984281539917, -2.7680389881134033, -1.8888448476791382, -0.7131770849227905, -0.3652333617210388, -0.89501953125, 0.470703125, 0.540771484375, 0, 
206, 1032821180, 0.49263566732406616, -0.605337381362915, -0.48227885365486145, -0.3978528678417206, 9.313109397888184, -2.580260753631592, -2.44746994972229, 2.358802080154419, -2.1601507663726807, -0.6775733232498169, -0.891845703125, 0.4736328125, 0.540283203125, 0, 
207, 1032829513, 0.49269726872444153, -0.6051878333091736, -0.48258084058761597, -0.3976376950740814, 9.097111701965332, -2.416261911392212, -1.8348917961120605, 5.78339958190918, -2.7571675777435303, -1.4200787544250488, -0.888671875, 0.468017578125, 0.541748046875, 0, 
208, 1032837846, 0.49276062846183777, -0.6050570011138916, -0.4828466773033142, -0.3974355459213257, 9.22130012512207, -2.0865304470062256, -1.3782610893249512, 5.511837005615234, -2.5217981338500977, -1.106124997138977, -0.890380859375, 0.470703125, 0.539306640625, 0, 
209, 1032846179, 0.4927780032157898, -0.604978621006012, -0.4830315411090851, -0.3973086476325989, 9.324634552001953, -2.10536527633667, -0.9328113198280334, 3.705880641937256, -1.909285306930542, -0.81276535987854, -0.891357421875, 0.47119140625, 0.54443359375, 0, 
210, 1032854512, 0.4928126633167267, -0.6049010753631592, -0.48315975069999695, -0.3972283601760864, 9.439703941345215, -2.164965867996216, -1.3369040489196777, 3.2461819648742676, -1.0342003107070923, -0.5691739320755005, -0.890380859375, 0.47021484375, 0.542724609375, 0, 
211, 1032862845, 0.49303123354911804, -0.6047325134277344, -0.4833833575248718, -0.39694148302078247, 9.739418983459473, -2.5122318267822266, -2.284475088119507, 7.266195297241211, -1.6739543676376343, 0.4499908983707428, -0.891357421875, 0.473876953125, 0.541259765625, 0, 
212, 1032871178, 0.4933621287345886, -0.6044328808784485, -0.48375174403190613, -0.3965376317501068, 9.76720142364502, -2.8904945850372314, -2.1051077842712402, 10.768096923828125, -2.1947686672210693, -0.2512372136116028, -0.890869140625, 0.473876953125, 0.541748046875, 0, 
213, 1032879511, 0.4936662018299103, -0.6040691137313843, -0.4842246472835541, -0.39613619446754456, 9.23967170715332, -3.282196283340454, -2.4467124938964844, 11.423283576965332, -2.682873487472534, -1.6774635314941406, -0.892333984375, 0.47314453125, 0.540283203125, 0, 
214, 1032887844, 0.49418139457702637, -0.6034829616546631, -0.484998494386673, -0.39543968439102173, 9.06612491607666, -3.1796834468841553, -3.2157113552093506, 18.300260543823242, -4.564124584197998, -2.5152926445007324, -0.891845703125, 0.47216796875, 0.539306640625, 0, 
215, 1032896177, 0.49492427706718445, -0.6026472449302673, -0.485980361700058, -0.3945786654949188, 9.072615623474121, -2.613358974456787, -2.5112080574035645, 24.1030216217041, -4.463411808013916, -3.5404787063598633, -0.89453125, 0.476806640625, 0.538330078125, 0, 
216, 1032904510, 0.49556413292884827, -0.6018484830856323, -0.4868350327014923, -0.3939405381679535, 9.131773948669434, -1.571791648864746, -2.945679187774658, 20.6810302734375, -2.6085031032562256, -4.295713424682617, -0.892578125, 0.473876953125, 0.538818359375, 0, 
217, 1032912843, 0.49607837200164795, -0.6011316776275635, -0.4875369966030121, -0.39351922273635864, 9.311553955078125, -1.0189484357833862, -3.057823657989502, 16.941116333007812, -1.089015007019043, -4.65974235534668, -0.893798828125, 0.47900390625, 0.537841796875, 0, 
218, 1032921176, 0.49632740020751953, -0.6006422638893127, -0.4879564046859741, -0.3934327960014343, 9.551021575927734, -1.170393466949463, -2.9357755184173584, 9.506583213806152, 0.5764356851577759, -4.548013210296631, -0.8916015625, 0.48046875, 0.53564453125, 0, 
219, 1032929509, 0.4964698255062103, -0.6002469658851624, -0.4881645441055298, -0.39359819889068604, 9.552419662475586, -1.1409698724746704, -2.8411569595336914, 5.068480968475342, 2.8952410221099854, -4.437922954559326, -0.887939453125, 0.477783203125, 0.537841796875, 0, 
220, 1032937842, 0.4966345429420471, -0.5998597145080566, -0.4883202910423279, -0.39378756284713745, 9.599479675292969, -1.219543218612671, -2.8119819164276123, 4.655733108520508, 3.5809853076934814, -3.9833974838256836, -0.892333984375, 0.48046875, 0.53369140625, 0, 
221, 1032946175, 0.49680250883102417, -0.5995014905929565, -0.4884318709373474, -0.3939828872680664, 9.695747375488281, -1.4800771474838257, -2.227599859237671, 4.301974773406982, 3.7724769115448, -3.458818197250366, -0.895263671875, 0.47900390625, 0.53466796875, 0, 
222, 1032954508, 0.4969370663166046, -0.5991805791854858, -0.4884878396987915, -0.394231915473938, 9.4739408493042, -1.7567131519317627, -1.9182997941970825, 3.0549206733703613, 4.186070919036865, -3.29386305809021, -0.892822265625, 0.4794921875, 0.53515625, 0, 
223, 1032962841, 0.49706703424453735, -0.5988920331001282, -0.48851218819618225, -0.3944762051105499, 9.428990364074707, -1.7410461902618408, -1.5844532251358032, 2.7105112075805664, 4.13909387588501, -2.813570022583008, -0.895263671875, 0.475341796875, 0.53564453125, 0, 
224, 1032971174, 0.4971601366996765, -0.5986703634262085, -0.4884822368621826, -0.39473241567611694, 9.399285316467285, -1.4999490976333618, -1.0086778402328491, 1.626286268234253, 3.987816572189331, -2.2130701541900635, -0.8935546875, 0.478271484375, 0.537109375, 0, 
225, 1032979507, 0.4971834421157837, -0.5985250473022461, -0.4883822798728943, -0.39504697918891907, 9.240476608276367, -1.1208754777908325, -1.2929227352142334, -0.2921047806739807, 4.074904918670654, -1.8855407238006592, -0.8916015625, 0.47802734375, 0.533203125, 0, 
226, 1032987840, 0.4971247911453247, -0.598503589630127, -0.48816850781440735, -0.39541730284690857, 9.43846321105957, -1.1314054727554321, -1.1059004068374634, -2.6841413974761963, 4.060996055603027, -0.976850152015686, -0.894775390625, 0.477783203125, 0.532470703125, 0, 
227, 1032996173, 0.4969274401664734, -0.5986694693565369, -0.4877637028694153, -0.3959135413169861, 9.570328712463379, -1.402829885482788, -1.298859715461731, -7.111484527587891, 4.480532169342041, 0.2720872461795807, -0.894287109375, 0.477294921875, 0.53369140625, 0, 
228, 1033004506, 0.4966847598552704, -0.5988483428955078, -0.4873928427696228, -0.3964039087295532, 9.266602516174316, -2.094968795776367, -1.6035934686660767, -7.335763454437256, 3.821528434753418, -0.13511508703231812, -0.896728515625, 0.476318359375, 0.53466796875, 0, 
229, 1033012839, 0.4965173900127411, -0.598965585231781, -0.48719602823257446, -0.3966781795024872, 9.283605575561523, -3.071033477783203, -1.673341155052185, -3.914034843444824, 1.697826862335205, -0.08793367445468903, -0.896240234375, 0.476806640625, 0.531005859375, 0, 
230, 1033021172, 0.49647051095962524, -0.5989490151405334, -0.48716413974761963, -0.39680105447769165, 9.321091651916504, -3.5319807529449463, -1.5761289596557617, -0.08944490551948547, 0.8596009016036987, -0.6560317277908325, -0.897705078125, 0.4736328125, 0.530517578125, 0, 
231, 1033029505, 0.49656832218170166, -0.598694920539856, -0.48746347427368164, -0.39669448137283325, 9.296634674072266, -3.4349021911621094, -1.3558132648468018, 6.066641807556152, -1.024185299873352, -2.6164684295654297, -0.8984375, 0.474853515625, 0.531494140625, 0, 
232, 1033037838, 0.49673032760620117, -0.5983163118362427, -0.48796236515045166, -0.3964495360851288, 9.236344337463379, -3.3015501499176025, -1.3724615573883057, 9.439704895019531, -2.4113245010375977, -3.798591375350952, -0.897705078125, 0.476318359375, 0.531982421875, 0, 
233, 1033046171, 0.4968773126602173, -0.5978955626487732, -0.48858433961868286, -0.3961337208747864, 9.22688102722168, -2.769961357116699, -1.4410828351974487, 10.770773887634277, -3.712963104248047, -4.690427780151367, -0.897705078125, 0.477294921875, 0.53271484375, 0, 
234, 1033054504, 0.4969567358493805, -0.5974836945533752, -0.48920294642448425, -0.39589226245880127, 9.28211498260498, -2.3143346309661865, -1.316685438156128, 9.719308853149414, -3.596904754638672, -5.504371643066406, -0.896728515625, 0.4736328125, 0.53369140625, 0, 
235, 1033062837, 0.4970064163208008, -0.5970867872238159, -0.48982080817222595, -0.39566460251808167, 9.471383094787598, -2.518420696258545, -1.6698334217071533, 9.191939353942871, -3.7428293228149414, -5.6292924880981445, -0.893310546875, 0.476318359375, 0.529052734375, 0, 
236, 1033071170, 0.49718615412712097, -0.5965380072593689, -0.49062302708625793, -0.39527207612991333, 9.12748908996582, -3.6805777549743652, -1.9168884754180908, 13.589404106140137, -4.694615840911865, -6.375678539276123, -0.895263671875, 0.473876953125, 0.532470703125, 0, 
237, 1033079503, 0.49754685163497925, -0.595766007900238, -0.491827130317688, -0.3944852948188782, 8.933329582214355, -4.060154914855957, -2.1879963874816895, 21.266956329345703, -8.202142715454102, -7.455307960510254, -0.895263671875, 0.47216796875, 0.531982421875, 0, 
238, 1033087836, 0.4981791377067566, -0.5946701765060425, -0.49343112111091614, -0.39333653450012207, 9.100728988647461, -3.7362475395202637, -2.0371410846710205, 30.22430419921875, -10.28783893585205, -8.959997177124023, -0.894775390625, 0.474853515625, 0.53271484375, 0, 
239, 1033096169, 0.49881428480148315, -0.5934996604919434, -0.49516189098358154, -0.3921228349208832, 9.176386833190918, -3.1522648334503174, -1.8449201583862305, 31.987125396728516, -11.286617279052734, -10.056031227111816, -0.8974609375, 0.477294921875, 0.531982421875, 0, 
240, 1033104502, 0.4991360008716583, -0.5925571918487549, -0.4967077374458313, -0.3911822438240051, 9.246521949768066, -2.8181560039520264, -1.48899507522583, 24.977548599243164, -11.145554542541504, -10.561524391174316, -0.896240234375, 0.474853515625, 0.530517578125, 0, 
241, 1033112835, 0.49901607632637024, -0.5921646952629089, -0.4975653886795044, -0.390839546918869, 9.263404846191406, -3.2678163051605225, -0.9474347233772278, 9.848200798034668, -7.533249855041504, -7.67243766784668, -0.896240234375, 0.47998046875, 0.5322265625, 0, 
242, 1033121168, 0.4982379972934723, -0.5926963090896606, -0.4974116086959839, -0.39122170209884644, 9.295401573181152, -4.350257396697998, 0.00228617200627923, -12.3717041015625, -4.130578517913818, -1.6115455627441406, -0.896728515625, 0.475341796875, 0.53369140625, 0, 
243, 1033129501, 0.4967487156391144, -0.5939016342163086, -0.49658316373825073, -0.3923386037349701, 9.017961502075195, -4.097509384155273, -1.440231204032898, -31.31629753112793, -2.036410331726074, -0.37670886516571045, -0.896240234375, 0.474365234375, 0.533203125, 0, 
244, 1033137834, 0.4959953725337982, -0.5944640040397644, -0.496366024017334, -0.39271482825279236, 9.683465003967285, -2.5595850944519043, -2.018115997314453, -12.531614303588867, -3.7766664028167725, -0.7529818415641785, -0.896240234375, 0.475341796875, 0.5361328125, 0, 
245, 1033146167, 0.4952467679977417, -0.5950793623924255, -0.4958207607269287, -0.3934159278869629, 10.223090171813965, -1.5984388589859009, -1.308220386505127, -16.870920181274414, 0.8702822327613831, 0.1229611486196518, -0.89453125, 0.4736328125, 0.53662109375, 0, 
246, 1033154500, 0.4941111207008362, -0.5961108207702637, -0.49477458000183105, -0.39459726214408875, 10.230731964111328, -1.069647192955017, -2.9034483432769775, -28.94123649597168, 3.339522361755371, 1.6957788467407227, -0.8935546875, 0.47216796875, 0.5361328125, 0, 
247, 1033162833, 0.4932566285133362, -0.5969656705856323, -0.4938719868659973, -0.3955039381980896, 10.035112380981445, -1.717076063156128, -2.940551519393921, -22.701547622680664, 2.9695749282836914, 2.708130359649658, -0.89697265625, 0.47119140625, 0.540771484375, 0, 
248, 1033171166, 0.4928884506225586, -0.5973942279815674, -0.49329283833503723, -0.39603787660598755, 9.643275260925293, -2.264092206954956, -2.101097583770752, -11.640620231628418, 3.3555290699005127, 2.336594820022583, -0.89501953125, 0.468994140625, 0.537109375, 0, 
249, 1033179499, 0.4928247332572937, -0.597518265247345, -0.49295753240585327, -0.3963475227355957, 9.500616073608398, -2.0872881412506104, -2.378563165664673, -4.1138505935668945, 3.563183307647705, 1.4419916868209839, -0.89453125, 0.467529296875, 0.537109375, 0, 
250, 1033187832, 0.4932764768600464, -0.5971929430961609, -0.4929291903972626, -0.3963114023208618, 9.669073104858398, -1.233288288116455, -2.8972935676574707, 7.03598690032959, 4.613623142242432, 1.0365697145462036, -0.8955078125, 0.467041015625, 0.53662109375, 0, 
251, 1033196165, 0.49410146474838257, -0.5965683460235596, -0.493125319480896, -0.3959803879261017, 9.83307933807373, -0.691513180732727, -2.952552318572998, 15.502262115478516, 4.8025803565979, 1.1881036758422852, -0.89501953125, 0.467041015625, 0.53466796875, 0, 
252, 1033204498, 0.4952012002468109, -0.5957579016685486, -0.49354100227355957, -0.39530807733535767, 9.826395034790039, -0.7064061760902405, -2.9184951782226562, 22.621416091918945, 3.3630356788635254, 1.904176115989685, -0.89501953125, 0.4697265625, 0.532958984375, 0, 
253, 1033212831, 0.49661266803741455, -0.5947096347808838, -0.4942837953567505, -0.3941861391067505, 9.758560180664062, -1.5190492868423462, -2.8006999492645264, 31.531827926635742, 0.8856513500213623, 2.4052939414978027, -0.898193359375, 0.47314453125, 0.531982421875, 0, 
254, 1033221164, 0.4982261061668396, -0.5933866500854492, -0.49546951055526733, -0.3926524817943573, 9.50403118133545, -2.3172996044158936, -2.2726285457611084, 40.268157958984375, -2.6522810459136963, 0.8030458688735962, -0.892333984375, 0.477294921875, 0.531005859375, 0, 
255, 1033229497, 0.5001107454299927, -0.5917812585830688, -0.4969262480735779, -0.3908344507217407, 9.55257511138916, -2.239581823348999, -1.7670087814331055, 47.80693435668945, -3.450270175933838, 0.09780815988779068, -0.8955078125, 0.4794921875, 0.528076171875, 0, 
256, 1033237830, 0.501985490322113, -0.5902198553085327, -0.49836111068725586, -0.38896042108535767, 9.787886619567871, -1.444132924079895, -1.7570515871047974, 47.93728256225586, -4.115088939666748, 0.8448488712310791, -0.898193359375, 0.4833984375, 0.527587890625, 0, 
257, 1033246163, 0.5039829015731812, -0.5886054635047913, -0.4998209476470947, -0.38694557547569275, 9.99194049835205, -0.34920981526374817, -1.657230257987976, 50.1494255065918, -4.2519731521606445, 1.9702131748199463, -0.89404296875, 0.4873046875, 0.52587890625, 0, 
258, 1033254496, 0.5058376789093018, -0.5871723294258118, -0.5010396838188171, -0.3851222097873688, 9.880194664001465, 0.10267260670661926, -1.633298397064209, 45.382476806640625, -3.0313735008239746, 3.0188097953796387, -0.8916015625, 0.4912109375, 0.5234375, 0, 
259, 1033262829, 0.5074018239974976, -0.5860089063644409, -0.5019863843917847, -0.3836013078689575, 9.780187606811523, 0.16945327818393707, -2.164339542388916, 37.391571044921875, -2.071528196334839, 3.494208812713623, -0.893798828125, 0.491455078125, 0.519775390625, 0, 
260, 1033271162, 0.5090720057487488, -0.5847789645195007, -0.5029765367507935, -0.3819642961025238, 9.629505157470703, -0.3795563876628876, -2.2869977951049805, 39.81412124633789, -2.2448606491088867, 4.027677536010742, -0.893310546875, 0.495361328125, 0.517822265625, 0, 
261, 1033279495, 0.5106725096702576, -0.5835233926773071, -0.5041173696517944, -0.38024020195007324, 9.168928146362305, -1.540483832359314, -2.076107978820801, 40.7542839050293, -4.331193923950195, 2.9095633029937744, -0.8916015625, 0.500732421875, 0.516357421875, 0, 
262, 1033287828, 0.5123435854911804, -0.5821524858474731, -0.5055267810821533, -0.37821710109710693, 8.95138931274414, -2.2406468391418457, -2.1636579036712646, 45.18266296386719, -7.4233527183532715, 2.497610330581665, -0.89111328125, 0.503662109375, 0.514404296875, 0, 
263, 1033296161, 0.5143368244171143, -0.580431342124939, -0.5073038935661316, -0.37576964497566223, 8.778255462646484, -2.6596839427948, -1.431399941444397, 55.516414642333984, -9.450604438781738, 1.7100751399993896, -0.88818359375, 0.510009765625, 0.51025390625, 0, 
264, 1033304494, 0.5161764621734619, -0.5788180232048035, -0.5089070796966553, -0.37356138229370117, 8.453018188476562, -2.3076064586639404, -1.4382367134094238, 51.127193450927734, -7.980286598205566, 1.3241181373596191, -0.892333984375, 0.511474609375, 0.509765625, 0, 
265, 1033312827, 0.5177333950996399, -0.5773611664772034, -0.5104900598526001, -0.3714957535266876, 8.572416305541992, -1.1736992597579956, -2.3203275203704834, 46.49774932861328, -9.44232177734375, 0.1553122103214264, -0.887451171875, 0.5166015625, 0.506591796875, 0, 
266, 1033321160, 0.5192049741744995, -0.5758526921272278, -0.5124232769012451, -0.369113951921463, 8.995770454406738, -0.20461542904376984, -2.8249082565307617, 50.027042388916016, -14.742795944213867, -1.1469569206237793, -0.885986328125, 0.519287109375, 0.505615234375, 0, 
267, 1033329493, 0.520319402217865, -0.5746629238128662, -0.5140469670295715, -0.3671361207962036, 9.609210014343262, -0.34727054834365845, -1.96426260471344, 40.67601776123047, -13.508150100708008, -1.172365427017212, -0.8876953125, 0.5234375, 0.505615234375, 0, 
268, 1033337826, 0.5211024880409241, -0.5737124681472778, -0.5152904987335205, -0.36576616764068604, 9.39559555053711, -0.5136703848838806, -2.8583297729492188, 29.837190628051758, -9.463059425354004, -2.4473655223846436, -0.88720703125, 0.52490234375, 0.504150390625, 0, 
269, 1033346159, 0.5222047567367554, -0.5724086761474609, -0.5168910622596741, -0.3639739155769348, 9.286203384399414, -1.4327733516693115, -3.3445022106170654, 39.96678924560547, -11.385469436645508, -3.187389373779297, -0.88671875, 0.52392578125, 0.505126953125, 0, 
270, 1033354492, 0.5233693718910217, -0.5709666013717651, -0.5187317132949829, -0.3619421124458313, 9.344847679138184, -1.8850688934326172, -2.5405654907226562, 44.32324981689453, -13.849797248840332, -4.026898384094238, -0.886474609375, 0.529541015625, 0.501220703125, 0, 
271, 1033362825, 0.5247194170951843, -0.5693732500076294, -0.5206374526023865, -0.35975444316864014, 9.368627548217773, -1.478967308998108, -1.650768518447876, 48.33584213256836, -13.47634506225586, -3.573885202407837, -0.887451171875, 0.528076171875, 0.501220703125, 0, 
272, 1033371158, 0.5259223580360413, -0.5680164098739624, -0.5221333503723145, -0.3579705059528351, 9.257719039916992, -1.586580514907837, -1.429443120956421, 40.488189697265625, -9.562065124511719, -2.3020317554473877, -0.8837890625, 0.53369140625, 0.5, 0, 
273, 1033379491, 0.5269420742988586, -0.5667029619216919, -0.523653507232666, -0.35632842779159546, 9.154157638549805, -1.2649449110031128, -1.8980822563171387, 37.91445541381836, -10.176959037780762, -4.116545677185059, -0.883056640625, 0.53515625, 0.49853515625, 0, 
274, 1033387824, 0.527887225151062, -0.5653713345527649, -0.5252144932746887, -0.35474348068237305, 9.529759407043457, -1.5264525413513184, -1.4782543182373047, 37.42268753051758, -10.514988899230957, -5.383069038391113, -0.88427734375, 0.540283203125, 0.49462890625, 0, 
275, 1033396157, 0.5281164646148682, -0.5648375749588013, -0.525959312915802, -0.3541487455368042, 9.584014892578125, -2.7267870903015137, -0.9548574090003967, 14.76283073425293, -5.9164533615112305, -3.920207977294922, -0.883544921875, 0.539794921875, 0.4951171875, 0, 
276, 1033404490, 0.5283398628234863, -0.5643617510795593, -0.5266433954238892, -0.3535569906234741, 9.311279296875, -2.960134744644165, -1.2675340175628662, 13.967432022094727, -5.76840353012085, -3.0757579803466797, -0.883544921875, 0.538818359375, 0.49658203125, 0, 
277, 1033412823, 0.5287259817123413, -0.5638577938079834, -0.5272934436798096, -0.35281410813331604, 9.286137580871582, -3.6026062965393066, -0.49488863348960876, 16.37737464904785, -5.387263774871826, -1.129844307899475, -0.8837890625, 0.541015625, 0.493896484375, 0, 
278, 1033421156, 0.5289046764373779, -0.5635565519332886, -0.5276421904563904, -0.35250601172447205, 9.162318229675293, -3.2321221828460693, -0.7233017086982727, 8.088630676269531, -2.166503429412842, -1.373589038848877, -0.883544921875, 0.54248046875, 0.49609375, 0, 
279, 1033429489, 0.5291661620140076, -0.56318598985672, -0.5279601216316223, -0.35222965478897095, 9.088638305664062, -2.6597797870635986, -1.6337147951126099, 9.445391654968262, -0.9063085913658142, -1.584445595741272, -0.881591796875, 0.54248046875, 0.49755859375, 0, 
280, 1033437822, 0.5294148921966553, -0.5628273487091064, -0.5283322334289551, -0.3518710434436798, 9.174290657043457, -2.8199872970581055, -1.4126582145690918, 9.970433235168457, -2.0515213012695312, -1.3553518056869507, -0.881591796875, 0.5400390625, 0.493408203125, 0, 
281, 1033446155, 0.5295425653457642, -0.562553882598877, -0.5287215113639832, -0.3515312671661377, 9.263891220092773, -3.001901626586914, -1.6251851320266724, 8.509242057800293, -3.356797456741333, -1.6170783042907715, -0.882568359375, 0.539306640625, 0.490966796875, 0, 
282, 1033454488, 0.5296043753623962, -0.5623220801353455, -0.5290952324867249, -0.35124671459198, 9.351922035217285, -2.7892162799835205, -1.693354606628418, 7.23121976852417, -3.501901149749756, -1.923372745513916, -0.880126953125, 0.54150390625, 0.490966796875, 0, 
283, 1033462821, 0.5296016335487366, -0.5621275305747986, -0.5294480919837952, -0.3510304093360901, 9.31637191772461, -2.451702833175659, -1.329238772392273, 5.852328300476074, -3.4668357372283936, -2.2904763221740723, -0.88427734375, 0.54345703125, 0.4951171875, 0, 
284, 1033471154, 0.5294135212898254, -0.5621432065963745, -0.5296146273612976, -0.35103824734687805, 9.132450103759766, -2.492465019226074, -1.3375242948532104, 0.35062044858932495, -2.744514226913452, -1.8531641960144043, -0.883056640625, 0.541015625, 0.493896484375, 0, 
285, 1033479487, 0.5291876196861267, -0.5622856020927429, -0.5297829508781433, -0.35089659690856934, 9.729324340820312, -2.4306275844573975, -1.6597661972045898, 0.23942908644676208, -4.797341346740723, -0.03227393701672554, -0.879150390625, 0.5439453125, 0.4970703125, 0, 
286, 1033487820, 0.5291432738304138, -0.5624030828475952, -0.5299016237258911, -0.35059571266174316, 10.242948532104492, -2.317859411239624, -1.180271863937378, 2.7539658546447754, -4.230639457702637, 2.1951143741607666, -0.880615234375, 0.5419921875, 0.49560546875, 0, 
287, 1033496153, 0.5291358232498169, -0.5625470876693726, -0.5298953652381897, -0.350385457277298, 9.939952850341797, -1.9822942018508911, -1.0913333892822266, 1.5727009773254395, -2.4745144844055176, 2.883227825164795, -0.882568359375, 0.54248046875, 0.494140625, 0, 
288, 1033504486, 0.5289556980133057, -0.5629537105560303, -0.5296626687049866, -0.35035625100135803, 9.695220947265625, -1.9894702434539795, -1.366713285446167, -4.2403340339660645, -1.9155094623565674, 4.423130035400391, -0.880126953125, 0.545166015625, 0.49609375, 0, 
289, 1033512819, 0.5285890102386475, -0.5636883974075317, -0.529184103012085, -0.350451797246933, 9.804856300354004, -1.8131033182144165, -1.3336844444274902, -10.006970405578613, -2.1343319416046143, 6.885324478149414, -0.880126953125, 0.54150390625, 0.4990234375, 0, 
290, 1033521152, 0.5281782746315002, -0.5645436644554138, -0.5286293625831604, -0.3505309522151947, 9.549226760864258, -1.4397685527801514, -0.8073587417602539, -11.263810157775879, -2.664905548095703, 8.21060562133789, -0.880615234375, 0.54345703125, 0.499755859375, 0, 
291, 1033529485, 0.5276575684547424, -0.5655443072319031, -0.5278777480125427, -0.35083478689193726, 9.201556205749512, -0.9364821314811707, -1.0269767045974731, -15.965126991271973, -0.9357138276100159, 8.683292388916016, -0.880615234375, 0.54150390625, 0.49658203125, 0, 
292, 1033537818, 0.5271626710891724, -0.5666020512580872, -0.52701336145401, -0.3511713743209839, 9.434673309326172, -0.2993321716785431, -2.3011722564697266, -17.00224494934082, 0.05454552546143532, 9.864773750305176, -0.87744140625, 0.5419921875, 0.503173828125, 0, 
293, 1033546151, 0.5272945761680603, -0.5670415163040161, -0.5267217755317688, -0.35070112347602844, 9.547574043273926, 0.3316818177700043, -2.873365640640259, 1.0196642875671387, -2.863210916519165, 9.793617248535156, -0.880126953125, 0.5419921875, 0.499755859375, 0, 
294, 1033554484, 0.527969241142273, -0.5669106245040894, -0.5269873738288879, -0.34949690103530884, 9.485732078552246, 0.3754795789718628, -2.8276970386505127, 17.440446853637695, -5.96127986907959, 9.243988990783691, -0.87890625, 0.544921875, 0.501708984375, 0, 
295, 1033562817, 0.5282590389251709, -0.5671725273132324, -0.5269274711608887, -0.34872370958328247, 9.385704040527344, -0.41411009430885315, -2.728928327560425, 6.849362850189209, -4.895649433135986, 9.662703514099121, -0.876953125, 0.546142578125, 0.49853515625, 0, 
296, 1033571150, 0.5282596945762634, -0.5677375197410583, -0.5266726613044739, -0.34818780422210693, 9.519320487976074, -0.8616707921028137, -3.202327251434326, -0.2383916974067688, -5.188880443572998, 10.265097618103027, -0.87646484375, 0.5498046875, 0.501220703125, 0, 
297, 1033579483, 0.5284197330474854, -0.5682384371757507, -0.5264973044395447, -0.3473920226097107, 9.809947967529297, -1.5750432014465332, -2.20766019821167, 3.711183786392212, -6.323464870452881, 11.836174011230469, -0.877685546875, 0.5498046875, 0.501708984375, 0, 
298, 1033587816, 0.5282178521156311, -0.5691652894020081, -0.5259191393852234, -0.34705767035484314, 9.580038070678711, -1.2204071283340454, -1.2544082403182983, -7.485428810119629, -4.447733402252197, 12.988662719726562, -0.87451171875, 0.548583984375, 0.504150390625, 0, 
299, 1033596149, 0.5279211401939392, -0.570266604423523, -0.5249677896499634, -0.34714171290397644, 9.428193092346191, -0.44874152541160583, -1.914908766746521, -14.293925285339355, 0.02227158285677433, 13.675175666809082, -0.87255859375, 0.55078125, 0.499267578125, 0, 
300, 1033604482, 0.5275338888168335, -0.5714517831802368, -0.5238138437271118, -0.34752362966537476, 9.521430969238281, -0.20450612902641296, -3.1762003898620605, -19.10312843322754, 2.8677327632904053, 13.35927677154541, -0.870849609375, 0.55078125, 0.5048828125, 0, 
301, 1033612815, 0.527190625667572, -0.572533369064331, -0.5227969884872437, -0.34779566526412964, 9.725602149963379, -0.03832489624619484, -3.1482155323028564, -16.18528175354004, 1.728794813156128, 12.460061073303223, -0.87353515625, 0.55224609375, 0.5068359375, 0, 
302, 1033621148, 0.5266903042793274, -0.5737361907958984, -0.5216321349143982, -0.3483201265335083, 9.209049224853516, -1.5674086809158325, -2.3110158443450928, -20.770389556884766, 3.061530113220215, 11.910432815551758, -0.867919921875, 0.553466796875, 0.50830078125, 0, 
303, 1033629481, 0.5258700251579285, -0.5750249624252319, -0.5204504132270813, -0.34920087456703186, 8.320760726928711, -3.216535806655884, -3.1734700202941895, -26.606342315673828, 3.3065309524536133, 8.550844192504883, -0.872314453125, 0.548583984375, 0.50830078125, 0, 
304, 1033637814, 0.5252228379249573, -0.5760650038719177, -0.5197264552116394, -0.34953850507736206, 9.039809226989746, -4.460324764251709, -2.185131549835205, -17.45981788635254, -1.8405368328094482, 7.942091941833496, -0.871337890625, 0.5498046875, 0.513427734375, 0, 
305, 1033646147, 0.5247339010238647, -0.5771201252937317, -0.5187938213348389, -0.3499178886413574, 10.097800254821777, -4.068868160247803, -1.3731147050857544, -17.510513305664062, 1.0288344621658325, 10.129677772521973, -0.869140625, 0.548583984375, 0.510009765625, 0, 
306, 1033654480, 0.5247633457183838, -0.5777520537376404, -0.5178177952766418, -0.3502763509750366, 9.614428520202637, -2.115088939666748, -1.8527268171310425, -10.295027732849121, 6.884608268737793, 10.084953308105469, -0.86669921875, 0.5498046875, 0.511962890625, 0, 
307, 1033662813, 0.5244789123535156, -0.5786417126655579, -0.5165538191795349, -0.3510989546775818, 9.115647315979004, -0.926555871963501, -2.162454843521118, -19.448869705200195, 9.201213836669922, 9.361685752868652, -0.86865234375, 0.548095703125, 0.511962890625, 0, 
308, 1033671146, 0.5234273076057434, -0.5802915096282959, -0.5143641233444214, -0.3531545400619507, 9.184732437133789, -0.053851183503866196, -4.241967678070068, -44.29429626464844, 16.577245712280273, 9.545639038085938, -0.8681640625, 0.547119140625, 0.512451171875, 0, 
309, 1033679479, 0.5224445462226868, -0.5817952156066895, -0.5119532942771912, -0.3556302487850189, 8.933332443237305, 0.04650668799877167, -5.344082355499268, -46.70749282836914, 22.709495544433594, 7.573288917541504, -0.87109375, 0.54296875, 0.512939453125, 0, 
310, 1033687812, 0.5207672715187073, -0.5838180184364319, -0.5092596411705017, -0.3586299419403076, 8.94411563873291, -1.2489625215530396, -4.378042221069336, -61.095279693603516, 21.513948440551758, 6.345143795013428, -0.875, 0.538330078125, 0.5166015625, 0, 
311, 1033696145, 0.5181417465209961, -0.5866005420684814, -0.5058735013008118, -0.3626621961593628, 8.746725082397461, -1.829941749572754, -3.497551202774048, -84.76567840576172, 24.36807632446289, 5.138288497924805, -0.875244140625, 0.5341796875, 0.517578125, 0, 
312, 1033704478, 0.515181303024292, -0.5895757675170898, -0.502264142036438, -0.3670453429222107, 8.431082725524902, -2.8696529865264893, -3.160027265548706, -92.85303497314453, 25.62360191345215, 4.218711853027344, -0.875, 0.52490234375, 0.524658203125, 0, 
313, 1033712811, 0.5119658708572388, -0.5926903486251831, -0.4986661970615387, -0.3714083731174469, 8.590462684631348, -4.128420352935791, -2.2922654151916504, -95.25485229492188, 22.789173126220703, 3.8338680267333984, -0.879150390625, 0.522705078125, 0.52197265625, 0, 
314, 1033721144, 0.5090977549552917, -0.5953456163406372, -0.4956459403038025, -0.37512820959091187, 9.07423210144043, -5.581363201141357, -0.7036062479019165, -82.01578521728516, 18.261362075805664, 2.3299496173858643, -0.874755859375, 0.51318359375, 0.528564453125, 0, 
315, 1033729477, 0.5066554546356201, -0.5977166295051575, -0.4931316077709198, -0.37796735763549805, 9.746273040771484, -7.318904876708984, 1.9644278287887573, -67.73831939697266, 11.822951316833496, 4.560466766357422, -0.880126953125, 0.510986328125, 0.53125, 0, 
316, 1033737810, 0.5042082667350769, -0.6000561714172363, -0.4906105101108551, -0.3808026909828186, 9.562374114990234, -6.356696605682373, 1.3621652126312256, -67.19778442382812, 11.884272575378418, 4.335675239562988, -0.87890625, 0.505126953125, 0.536376953125, 0, 
317, 1033746143, 0.502698540687561, -0.6015670299530029, -0.4887865483760834, -0.3827553689479828, 9.372549057006836, -5.000699996948242, -0.40707430243492126, -44.479557037353516, 10.517339706420898, 4.089819431304932, -0.87939453125, 0.500244140625, 0.53515625, 0, 
318, 1033754476, 0.5016239285469055, -0.6027899384498596, -0.48733964562416077, -0.3840840458869934, 9.20570182800293, -4.2475810050964355, -0.8789929747581482, -32.67222213745117, 7.176053047180176, 5.631615161895752, -0.8798828125, 0.498046875, 0.538330078125, 0, 
319, 1033762809, 0.5006002187728882, -0.6039087772369385, -0.4861604571342468, -0.38515517115592957, 8.800707817077637, -3.4726722240448, -1.9733434915542603, -28.43317985534668, 4.0976786613464355, 4.766901969909668, -0.880615234375, 0.495361328125, 0.538818359375, 0, 
320, 1033771142, 0.4998530447483063, -0.6047126054763794, -0.4854240417480469, -0.3857927918434143, 8.522005081176758, -3.4637949466705322, -2.771667003631592, -18.337799072265625, 0.8681051135063171, 3.3504836559295654, -0.879638671875, 0.5009765625, 0.54150390625, 0, 
321, 1033779475, 0.49923840165138245, -0.605344295501709, -0.48507463932037354, -0.3860374391078949, 8.784944534301758, -3.2301712036132812, -2.6151139736175537, -11.762392044067383, -3.162846326828003, 2.470813751220703, -0.884765625, 0.496337890625, 0.54150390625, 0, 
322, 1033787808, 0.4988875091075897, -0.6057903170585632, -0.48491808772087097, -0.3859879970550537, 9.34426498413086, -2.4528589248657227, -2.762296438217163, -5.041240215301514, -4.256650924682617, 2.9869656562805176, -0.878173828125, 0.493408203125, 0.541259765625, 0, 
323, 1033796141, 0.4988213777542114, -0.6060143709182739, -0.48507943749427795, -0.3855188488960266, 9.554221153259277, -1.547146201133728, -2.432565689086914, 3.073618173599243, -6.790282249450684, 3.3085010051727295, -0.881103515625, 0.495849609375, 0.54296875, 0, 
324, 1033804474, 0.4987492561340332, -0.6062865257263184, -0.48519065976142883, -0.3850441575050354, 9.776391983032227, -1.166033387184143, -2.1231980323791504, 2.783998489379883, -6.868277549743652, 3.9804136753082275, -0.877685546875, 0.495849609375, 0.5419921875, 0, 
325, 1033812807, 0.49870729446411133, -0.6065729856491089, -0.48513156175613403, -0.38472187519073486, 9.773187637329102, -1.0250078439712524, -2.6697208881378174, 0.6990508437156677, -4.221942901611328, 4.683422088623047, -0.87548828125, 0.494873046875, 0.5419921875, 0, 
326, 1033821140, 0.49881672859191895, -0.6068017482757568, -0.4849785566329956, -0.3844115734100342, 9.867171287536621, -1.121382236480713, -2.4709815979003906, 1.6016708612442017, -2.1183998584747314, 5.836907863616943, -0.878662109375, 0.49755859375, 0.5458984375, 0, 
327, 1033829473, 0.49877917766571045, -0.6071707010269165, -0.4847419857978821, -0.384176105260849, 9.822409629821777, -1.046600103378296, -2.2598378658294678, -1.3464890718460083, -2.6889824867248535, 6.14248514175415, -0.876953125, 0.4970703125, 0.54296875, 0, 
328, 1033837806, 0.49867430329322815, -0.6076093316078186, -0.4844180643558502, -0.3840271234512329, 9.545557975769043, -1.3577522039413452, -2.08807635307312, -3.8400096893310547, -2.076930284500122, 6.476726055145264, -0.878662109375, 0.498046875, 0.5439453125, 0, 
329, 1033846139, 0.49866098165512085, -0.6080119609832764, -0.4839777946472168, -0.3839622735977173, 9.286711692810059, -1.6664013862609863, -2.617013454437256, -3.5883755683898926, 0.11678812652826309, 7.02643346786499, -0.8759765625, 0.498046875, 0.54443359375, 0, 
330, 1033854472, 0.49879807233810425, -0.608300507068634, -0.48362183570861816, -0.3837755620479584, 9.034582138061523, -2.015275478363037, -2.033106803894043, -0.2918741703033447, 0.12559939920902252, 7.192028999328613, -0.876953125, 0.496337890625, 0.548095703125, 0, 
331, 1033862805, 0.4989376664161682, -0.6085898280143738, -0.4831802546977997, -0.3836916387081146, 8.792304039001465, -2.5085232257843018, -2.119994878768921, -1.4107040166854858, 1.5838688611984253, 7.222150802612305, -0.87744140625, 0.49755859375, 0.5458984375, 0, 
332, 1033871138, 0.4989897906780243, -0.6089293360710144, -0.48267897963523865, -0.38371628522872925, 8.933995246887207, -2.587414264678955, -2.6764094829559326, -3.52449369430542, 2.055427312850952, 6.849132537841797, -0.871337890625, 0.500732421875, 0.547119140625, 0, 
333, 1033879471, 0.49900227785110474, -0.609318196773529, -0.4820970892906189, -0.38381463289260864, 9.411788940429688, -2.895986795425415, -2.655359983444214, -5.110245704650879, 2.703697919845581, 7.135601043701172, -0.877685546875, 0.50146484375, 0.546630859375, 0, 
334, 1033887804, 0.49881795048713684, -0.6097776293754578, -0.4813382029533386, -0.3842763304710388, 9.094615936279297, -3.4323151111602783, -2.563234329223633, -10.586315155029297, 5.285998344421387, 5.555408477783203, -0.8759765625, 0.5, 0.54541015625, 0, 
335, 1033896137, 0.4984423816204071, -0.610268235206604, -0.48057103157043457, -0.38494443893432617, 8.720158576965332, -3.724871873855591, -2.782794952392578, -13.814628601074219, 5.641241550445557, 3.4043760299682617, -0.876953125, 0.4990234375, 0.544921875, 0, 
336, 1033904470, 0.4979977607727051, -0.6108149290084839, -0.4797329008579254, -0.38569751381874084, 9.397512435913086, -3.577482223510742, -2.7897205352783203, -15.711673736572266, 6.091847896575928, 3.4206926822662354, -0.87255859375, 0.49658203125, 0.54345703125, 0, 
337, 1033912803, 0.49762997031211853, -0.6111915111541748, -0.47897589206695557, -0.38651561737060547, 9.562037467956543, -3.5591628551483154, -2.3989555835723877, -13.903484344482422, 7.487081050872803, 1.5810004472732544, -0.87548828125, 0.495361328125, 0.5458984375, 0, 
338, 1033921136, 0.49734339118003845, -0.6113306283950806, -0.4784940481185913, -0.3872608244419098, 9.082161903381348, -4.134154796600342, -2.026477336883545, -9.738533973693848, 6.814399719238281, -1.3500752449035645, -0.876953125, 0.49755859375, 0.5439453125, 0, 
339, 1033929469, 0.4971313178539276, -0.6113558411598206, -0.47821104526519775, -0.38784247636795044, 9.128849029541016, -4.046660900115967, -1.9874767065048218, -6.113067626953125, 5.151265621185303, -2.2707016468048096, -0.879150390625, 0.49658203125, 0.54541015625, 0, 
340, 1033937802, 0.4971715807914734, -0.6111795902252197, -0.47816258668899536, -0.3881281912326813, 9.57374095916748, -3.5984017848968506, -1.5430536270141602, 0.8425417542457581, 3.730341672897339, -2.258740186691284, -0.87744140625, 0.492919921875, 0.54541015625, 0, 
341, 1033946135, 0.497316837310791, -0.6108173131942749, -0.47826024889945984, -0.38839197158813477, 9.339951515197754, -3.038630247116089, -1.366580605506897, 3.6611320972442627, 4.292062282562256, -3.939981460571289, -0.879638671875, 0.492919921875, 0.5419921875, 0, 
342, 1033954468, 0.49753332138061523, -0.610357940196991, -0.47844916582107544, -0.38860422372817993, 9.144307136535645, -2.7761218547821045, -1.6838313341140747, 5.623284816741943, 4.262425899505615, -4.591992378234863, -0.8798828125, 0.490234375, 0.54443359375, 0, 
343, 1033962801, 0.49770957231521606, -0.6099643707275391, -0.4785817563533783, -0.38883304595947266, 9.28715991973877, -2.6222546100616455, -1.8471214771270752, 4.552968502044678, 4.129872798919678, -4.035317420959473, -0.8779296875, 0.493896484375, 0.5439453125, 0, 
344, 1033971134, 0.49795255064964294, -0.609495997428894, -0.4787164628505707, -0.389090359210968, 9.348661422729492, -2.2587976455688477, -2.0057671070098877, 5.497608661651611, 5.1850128173828125, -4.402306079864502, -0.882568359375, 0.49169921875, 0.541748046875, 0, 
345, 1033979467, 0.4981950521469116, -0.6089532375335693, -0.47891080379486084, -0.3893905282020569, 9.38664436340332, -2.014216899871826, -2.1298344135284424, 5.991234302520752, 5.5425238609313965, -5.6685333251953125, -0.880126953125, 0.49072265625, 0.5419921875, 0, 
346, 1033987800, 0.49837544560432434, -0.6084903478622437, -0.47904640436172485, -0.3897162675857544, 9.544930458068848, -2.200394868850708, -2.1201066970825195, 4.4999470710754395, 5.307307720184326, -5.179915428161621, -0.88427734375, 0.496826171875, 0.54150390625, 0, 
347, 1033996133, 0.4985254108905792, -0.608044445514679, -0.4791724681854248, -0.3900653123855591, 9.444390296936035, -2.5969948768615723, -1.9822083711624146, 3.8652775287628174, 5.288301944732666, -5.290184497833252, -0.881103515625, 0.492919921875, 0.538818359375, 0, 
348, 1034004466, 0.498704195022583, -0.6075202822685242, -0.4794013500213623, -0.39037245512008667, 9.247547149658203, -3.145561456680298, -1.929390549659729, 5.106031894683838, 4.938360691070557, -6.156766414642334, -0.88427734375, 0.492431640625, 0.538818359375, 0, 
349, 1034012799, 0.49894317984580994, -0.6068848371505737, -0.47974827885627747, -0.3906291127204895, 9.148096084594727, -3.4876461029052734, -1.74146568775177, 7.7012152671813965, 4.605733871459961, -7.273291110992432, -0.8857421875, 0.490234375, 0.537841796875, 0, 
350, 1034021132, 0.4992218613624573, -0.6061758399009705, -0.48022547364234924, -0.3907875418663025, 9.136412620544434, -3.4750595092773438, -1.8280737400054932, 9.925965309143066, 3.5426411628723145, -7.976632118225098, -0.88427734375, 0.492431640625, 0.53515625, 0, 
351, 1034029465, 0.4994027018547058, -0.6054973006248474, -0.48069536685943604, -0.39103060960769653, 9.438035011291504, -2.5869555473327637, -1.7916982173919678, 8.262859344482422, 3.497483491897583, -8.802820205688477, -0.885009765625, 0.494873046875, 0.53271484375, 0, 
352, 1034037798, 0.49957993626594543, -0.6048330664634705, -0.481095552444458, -0.39133965969085693, 9.953237533569336, -1.9147530794143677, -1.9168132543563843, 7.037319660186768, 4.496310710906982, -8.554388046264648, -0.88525390625, 0.490234375, 0.53466796875, 0, 
353, 1034046131, 0.49961239099502563, -0.6042147874832153, -0.4813837707042694, -0.391898512840271, 9.935417175292969, -1.7376298904418945, -1.9883836507797241, 3.5489933490753174, 6.064413547515869, -9.861404418945312, -0.88623046875, 0.48974609375, 0.53125, 0, 
354, 1034054464, 0.49969062209129333, -0.603544294834137, -0.48167121410369873, -0.39247846603393555, 9.806838035583496, -2.0414810180664062, -1.9448022842407227, 4.197904586791992, 6.8208794593811035, -10.120518684387207, -0.88916015625, 0.485107421875, 0.53369140625, 0, 
355, 1034062797, 0.4999019205570221, -0.6027884483337402, -0.4820680022239685, -0.39288365840911865, 9.603700637817383, -2.548011064529419, -2.077907085418701, 7.582211971282959, 5.968898773193359, -9.652419090270996, -0.889892578125, 0.48828125, 0.5322265625, 0, 
356, 1034071130, 0.5002221465110779, -0.6019316911697388, -0.4826003611087799, -0.3931361436843872, 9.43282413482666, -2.9156653881073, -1.7091172933578491, 11.079890251159668, 5.005804538726807, -9.847884178161621, -0.887451171875, 0.48681640625, 0.528564453125, 0, 
357, 1034079463, 0.5005993843078613, -0.6009837985038757, -0.48327016830444336, -0.393283486366272, 9.140975952148438, -3.1611475944519043, -1.3644957542419434, 13.463881492614746, 4.097240924835205, -10.517718315124512, -0.8935546875, 0.484619140625, 0.528076171875, 0, 
358, 1034087796, 0.501018762588501, -0.599997341632843, -0.48407137393951416, -0.3932698667049408, 9.134358406066895, -2.7759780883789062, -1.6129064559936523, 15.928815841674805, 2.3316516876220703, -10.548328399658203, -0.892333984375, 0.485595703125, 0.531005859375, 0, 
359, 1034096129, 0.5014488697052002, -0.599048376083374, -0.484932541847229, -0.39310744404792786, 9.495173454284668, -2.2721617221832275, -1.4178295135498047, 17.00303077697754, 0.5765382647514343, -9.686128616333008, -0.89453125, 0.483642578125, 0.528076171875, 0, 
360, 1034104462, 0.5018261075019836, -0.5981265306472778, -0.4857865869998932, -0.3929752707481384, 9.449325561523438, -1.9315773248672485, -1.7010749578475952, 16.106916427612305, 0.3852766752243042, -9.946165084838867, -0.896240234375, 0.487060546875, 0.5244140625, 0, 
361, 1034112795, 0.5022755861282349, -0.5971136689186096, -0.48669466376304626, -0.3928179442882538, 9.267044067382812, -1.9917306900024414, -1.6080132722854614, 17.820688247680664, 0.7707710266113281, -10.428634643554688, -0.896240234375, 0.487548828125, 0.526123046875, 0, 
362, 1034121128, 0.5027436017990112, -0.5961106419563293, -0.4876212775707245, -0.392593115568161, 9.097429275512695, -2.5978124141693115, -1.3592066764831543, 18.738574981689453, 0.09647605568170547, -10.015758514404297, -0.896728515625, 0.486572265625, 0.52587890625, 0, 
363, 1034129461, 0.5032705068588257, -0.594989538192749, -0.4888318181037903, -0.3921128809452057, 9.017261505126953, -2.7132441997528076, -1.3976848125457764, 23.002363204956055, -2.8665802478790283, -10.985708236694336, -0.895263671875, 0.48779296875, 0.5234375, 0, 
364, 1034137794, 0.503963053226471, -0.5937648415565491, -0.49011385440826416, -0.3914790153503418, 9.27831745147705, -2.7974939346313477, -1.9112443923950195, 26.541927337646484, -2.9532597064971924, -10.333109855651855, -0.894287109375, 0.48779296875, 0.52197265625, 0, 
365, 1034146127, 0.5048107504844666, -0.592456579208374, -0.49149787425994873, -0.390633225440979, 9.237150192260742, -2.9051382541656494, -2.291238307952881, 30.316791534423828, -3.885913133621216, -9.402225494384766, -0.896240234375, 0.48876953125, 0.521484375, 0, 
366, 1034154460, 0.5056000351905823, -0.5911573767662048, -0.4928811490535736, -0.3898368775844574, 8.863100051879883, -2.9332115650177, -2.382087469100952, 29.30848503112793, -3.8909590244293213, -9.978546142578125, -0.89697265625, 0.48876953125, 0.516357421875, 0, 
367, 1034162793, 0.5062684416770935, -0.5898919105529785, -0.494331032037735, -0.3890497386455536, 8.750701904296875, -2.7912216186523438, -2.663414716720581, 28.51897621154785, -5.310270309448242, -11.016613960266113, -0.896240234375, 0.4912109375, 0.520263671875, 0, 
368, 1034171126, 0.5070184469223022, -0.5885147452354431, -0.4957285523414612, -0.38837987184524536, 9.097674369812012, -2.468951463699341, -2.8853256702423096, 28.853605270385742, -2.8350887298583984, -11.741345405578613, -0.896484375, 0.48974609375, 0.516845703125, 0, 
369, 1034179459, 0.5075714588165283, -0.5873139500617981, -0.4969829320907593, -0.3878719210624695, 9.53245735168457, -1.6630041599273682, -2.229995012283325, 24.18634796142578, -2.8184897899627686, -11.552155494689941, -0.8984375, 0.492431640625, 0.516845703125, 0, 
370, 1034187792, 0.5079643726348877, -0.5862184762954712, -0.49799275398254395, -0.38771918416023254, 9.877237319946289, -0.5313141345977783, -1.6194018125534058, 18.216712951660156, 0.15200774371623993, -12.163667678833008, -0.89599609375, 0.49072265625, 0.515380859375, 0, 
371, 1034196125, 0.5081340670585632, -0.5853202939033508, -0.4986642599105835, -0.38799071311950684, 10.126962661743164, 0.551581621170044, -1.683152437210083, 10.540068626403809, 3.3036866188049316, -12.264968872070312, -0.900146484375, 0.49072265625, 0.51318359375, 0, 
372, 1034204458, 0.5082016587257385, -0.5846167802810669, -0.4990132451057434, -0.38851386308670044, 10.090426445007324, 0.12865076959133148, -1.455493450164795, 4.932264804840088, 5.842236518859863, -10.656317710876465, -0.900634765625, 0.48974609375, 0.51171875, 0, 
373, 1034212791, 0.5081971883773804, -0.5840693116188049, -0.49922001361846924, -0.38907724618911743, 9.611672401428223, -0.9624029397964478, -1.591623306274414, 2.2060647010803223, 5.833988189697266, -9.088315963745117, -0.902099609375, 0.486083984375, 0.509521484375, 0, 
374, 1034221124, 0.5082107782363892, -0.5835942625999451, -0.49944597482681274, -0.3894818425178528, 9.537726402282715, -1.6201781034469604, -1.702843427658081, 3.222668170928955, 4.120601177215576, -7.58529806137085, -0.89990234375, 0.486083984375, 0.51123046875, 0, 
375, 1034229457, 0.5084047913551331, -0.5830478668212891, -0.49976015090942383, -0.38964414596557617, 9.592138290405273, -1.7934216260910034, -1.6062208414077759, 7.12076997756958, 3.220874786376953, -6.078385829925537, -0.903564453125, 0.486572265625, 0.51025390625, 0, 
376, 1034237790, 0.5086830258369446, -0.5824863910675049, -0.500128984451294, -0.3896477222442627, 9.3326997756958, -1.8651331663131714, -1.5346640348434448, 9.323890686035156, 2.2197554111480713, -5.074731349945068, -0.90478515625, 0.48974609375, 0.51123046875, 0, 
377, 1034246123, 0.5089902877807617, -0.5819448232650757, -0.500535249710083, -0.38953399658203125, 9.231511116027832, -1.9735629558563232, -1.6649281978607178, 10.385381698608398, 1.1171777248382568, -4.246123790740967, -0.90478515625, 0.487060546875, 0.509033203125, 0, 
378, 1034254456, 0.5094714760780334, -0.5813111066818237, -0.5010834336280823, -0.3891458809375763, 9.275163650512695, -2.35906982421875, -1.1742990016937256, 15.100785255432129, -0.3862627446651459, -3.1770620346069336, -0.902099609375, 0.485595703125, 0.506103515625, 0, 
379, 1034262789, 0.5098603963851929, -0.5807175636291504, -0.5017458200454712, -0.38866904377937317, 8.966118812561035, -2.656700372695923, -1.0357146263122559, 15.276729583740234, -2.741415023803711, -3.6715962886810303, -0.904052734375, 0.486083984375, 0.507568359375, 0, 
380, 1034271122, 0.5101989507675171, -0.5801469683647156, -0.5025927424430847, -0.387982040643692, 9.203316688537598, -2.4842731952667236, -1.6438466310501099, 17.095523834228516, -6.171777725219727, -3.78371000289917, -0.901611328125, 0.486572265625, 0.509033203125, 0, 
381, 1034279455, 0.5108591914176941, -0.579323410987854, -0.5036363005638123, -0.3869895339012146, 9.427159309387207, -2.799038887023926, -1.3999375104904175, 24.64911460876465, -6.427204132080078, -3.2405097484588623, -0.904296875, 0.48876953125, 0.507568359375, 0, 
382, 1034287788, 0.5115776658058167, -0.5784690976142883, -0.504724383354187, -0.3858988583087921, 9.431085586547852, -2.710965394973755, -1.7434252500534058, 26.510940551757812, -7.011388301849365, -2.866208553314209, -0.90234375, 0.491455078125, 0.505615234375, 0, 
383, 1034296121, 0.5123392343521118, -0.5774986147880554, -0.5059425830841064, -0.3847452402114868, 9.315163612365723, -3.085732936859131, -1.7862032651901245, 28.534852981567383, -7.456488609313965, -3.978713274002075, -0.90380859375, 0.491455078125, 0.504638671875, 0, 
384, 1034304454, 0.5132929682731628, -0.5763440132141113, -0.5073121786117554, -0.38339972496032715, 9.455951690673828, -3.5680150985717773, -1.7254412174224854, 33.52552032470703, -7.740911483764648, -4.109090805053711, -0.904541015625, 0.493896484375, 0.501953125, 0, 
385, 1034312787, 0.5141736268997192, -0.5753273367881775, -0.5085210800170898, -0.38214340806007385, 9.41680908203125, -4.104694366455078, -1.1299200057983398, 30.47165298461914, -7.130496978759766, -2.871511936187744, -0.90234375, 0.49609375, 0.50341796875, 0, 
386, 1034321120, 0.5143219232559204, -0.5751866102218628, -0.50893235206604, -0.3816071152687073, 9.406672477722168, -4.549890518188477, -0.10686676949262619, 9.227926254272461, -5.512465000152588, 0.6161889433860779, -0.90185546875, 0.494384765625, 0.505126953125, 0, 
387, 1034329453, 0.5139546394348145, -0.5756340026855469, -0.5088115930557251, -0.3815886080265045, 8.81799030303955, -4.9850945472717285, 0.5795567631721497, -5.397252082824707, -4.35690450668335, 2.5802626609802246, -0.90234375, 0.49658203125, 0.5029296875, 0, 
388, 1034337786, 0.5140288472175598, -0.5755497217178345, -0.5092950463294983, -0.38097015023231506, 8.36373519897461, -3.630258083343506, 0.22187678515911102, 9.22093391418457, -7.496288299560547, 0.6190833449363708, -0.8984375, 0.4990234375, 0.50146484375, 0, 
389, 1034346119, 0.5141583681106567, -0.5754668116569519, -0.5096253752708435, -0.38047853112220764, 9.369465827941895, -1.239506483078003, 0.6565783023834229, 7.962737083435059, -5.029023170471191, 1.249654769897461, -0.90087890625, 0.49853515625, 0.504638671875, 0, 
390, 1034354452, 0.5138935446739197, -0.5758882761001587, -0.5091153979301453, -0.3808811902999878, 10.250898361206055, 1.1185532808303833, 0.023418154567480087, -9.003737449645996, 2.4975290298461914, 2.955101728439331, -0.89892578125, 0.49951171875, 0.505615234375, 0, 
391, 1034362785, 0.5132558941841125, -0.5766959190368652, -0.5082003474235535, -0.3817400336265564, 10.4307222366333, 1.5973073244094849, -1.632421851158142, -20.385967254638672, 4.427563190460205, 3.7828524112701416, -0.902099609375, 0.501220703125, 0.505615234375, 0, 
392, 1034371118, 0.5125024318695068, -0.5776644945144653, -0.5072802305221558, -0.38251104950904846, 10.261842727661133, -0.14043782651424408, -2.666666269302368, -21.88772964477539, 2.1142637729644775, 4.949094295501709, -0.9013671875, 0.49609375, 0.507080078125, 0, 
393, 1034379451, 0.5118505954742432, -0.578536331653595, -0.5067278742790222, -0.3827980160713196, 9.815336227416992, -2.08760666847229, -2.4874963760375977, -15.052770614624023, -3.1046762466430664, 5.309511184692383, -0.89892578125, 0.4970703125, 0.506103515625, 0, 
394, 1034387784, 0.511256992816925, -0.5793181657791138, -0.5063831210136414, -0.38286536931991577, 9.500253677368164, -2.9471094608306885, -1.980005145072937, -11.226029396057129, -5.466513633728027, 4.849274635314941, -0.896728515625, 0.49609375, 0.5107421875, 0, 
395, 1034396117, 0.5109297037124634, -0.5797687768936157, -0.5062891840934753, -0.38274437189102173, 9.316095352172852, -2.2065014839172363, -1.668349027633667, -4.249299049377441, -5.100844383239746, 3.304018259048462, -0.898193359375, 0.496337890625, 0.5126953125, 0, 
396, 1034404450, 0.5109255313873291, -0.5799217224121094, -0.506318211555481, -0.38247954845428467, 9.345123291015625, -0.7522429823875427, -2.03285551071167, 1.9365259408950806, -3.2731921672821045, 2.973902702331543, -0.899658203125, 0.495361328125, 0.509765625, 0, 
397, 1034412783, 0.5110100507736206, -0.5800604224205017, -0.5062226057052612, -0.3822830021381378, 9.393640518188477, 0.0010250282939523458, -2.4104461669921875, 1.7418321371078491, -1.1807137727737427, 3.8450682163238525, -0.896484375, 0.495849609375, 0.5126953125, 0, 
398, 1034421116, 0.5109907388687134, -0.5802916884422302, -0.5060604810714722, -0.3821725845336914, 9.312746047973633, 0.02529696747660637, -2.669173002243042, -0.6959772109985352, -1.2428922653198242, 3.8564276695251465, -0.897216796875, 0.49658203125, 0.509033203125, 0, 
399, 1034429449, 0.5109289288520813, -0.5805314779281616, -0.5059938430786133, -0.3819790780544281, 9.527497291564941, -0.29928356409072876, -2.852818250656128, -0.003009672509506345, -2.910660743713379, 3.526798725128174, -0.89404296875, 0.49755859375, 0.51171875, 0, 
400, 1034437782, 0.5109214782714844, -0.5806666612625122, -0.5061115622520447, -0.38162750005722046, 9.678418159484863, -0.9190186858177185, -2.952739715576172, 3.36641526222229, -4.575650691986084, 2.6862034797668457, -0.894287109375, 0.49658203125, 0.507080078125, 0, 
401, 1034446115, 0.511180579662323, -0.5804106593132019, -0.5067257881164551, -0.38085418939590454, 9.662833213806152, -1.2786707878112793, -2.9089338779449463, 13.650534629821777, -7.490347385406494, 0.3981349468231201, -0.89453125, 0.498046875, 0.51025390625, 0, 
402, 1034454448, 0.5117396116256714, -0.5797361135482788, -0.5079697966575623, -0.37947091460227966, 9.387516021728516, -1.2147948741912842, -2.9276809692382812, 26.637990951538086, -12.52890396118164, -1.7160013914108276, -0.89501953125, 0.498046875, 0.5107421875, 0, 
403, 1034462781, 0.5126710534095764, -0.5786339044570923, -0.5097874999046326, -0.37745338678359985, 9.167211532592773, -1.1632148027420044, -2.522705316543579, 39.93804931640625, -16.761981964111328, -2.8404695987701416, -0.896240234375, 0.501220703125, 0.51025390625, 0, 
404, 1034471114, 0.5132752656936646, -0.5779130458831787, -0.5110554695129395, -0.37601906061172485, 9.061630249023438, -1.5326454639434814, -0.6241778135299683, 27.68110466003418, -12.516789436340332, -1.6045535802841187, -0.892822265625, 0.505859375, 0.513671875, 0, 
405, 1034479447, 0.5131896734237671, -0.5778699517250061, -0.5116478204727173, -0.37539613246917725, 9.053572654724121, -0.9397446513175964, -1.53546142578125, 8.2424955368042, -9.654109001159668, -0.7649179697036743, -0.891845703125, 0.50830078125, 0.51025390625, 0, 
406, 1034487780, 0.5136236548423767, -0.5774017572402954, -0.5126645565032959, -0.3741338849067688, 9.531291961669922, -1.0134450197219849, -1.3741198778152466, 22.011947631835938, -11.872485160827637, 0.06891513615846634, -0.8916015625, 0.504150390625, 0.51318359375, 0, 
407, 1034496113, 0.5137516260147095, -0.577300488948822, -0.5132725238800049, -0.3732796907424927, 9.820850372314453, -1.409033179283142, -0.3975531756877899, 12.059914588928223, -9.797985076904297, 1.4409931898117065, -0.892822265625, 0.50927734375, 0.51123046875, 0, 
408, 1034504446, 0.513869047164917, -0.577336847782135, -0.5137397646903992, -0.3724178075790405, 10.180584907531738, -1.5002610683441162, -0.8875219821929932, 10.271808624267578, -9.63569164276123, 3.5385427474975586, -0.8876953125, 0.509521484375, 0.514892578125, 0, 
409, 1034512779, 0.5140644907951355, -0.5774674415588379, -0.5140935182571411, -0.3714560270309448, 10.070207595825195, -2.1414754390716553, -0.958959698677063, 10.411406517028809, -9.567789077758789, 6.203089714050293, -0.88671875, 0.50830078125, 0.515380859375, 0, 
410, 1034521112, 0.5140488147735596, -0.5779051184654236, -0.5141140818595886, -0.37076854705810547, 9.668530464172363, -2.211451292037964, -0.7054781913757324, 3.0445468425750732, -8.12903881072998, 7.974237442016602, -0.88720703125, 0.509033203125, 0.514404296875, 0, 
411, 1034529445, 0.5138810873031616, -0.578610360622406, -0.5138381719589233, -0.3702833950519562, 9.46336555480957, -1.674881935119629, -1.3433659076690674, -3.117765188217163, -6.831573963165283, 10.044097900390625, -0.88671875, 0.512939453125, 0.515869140625, 0, 
412, 1034537778, 0.5136747360229492, -0.5794075131416321, -0.5134689807891846, -0.36983466148376465, 9.352875709533691, -1.3847020864486694, -1.2438207864761353, -4.870956897735596, -6.616336822509766, 10.992388725280762, -0.888671875, 0.511474609375, 0.517333984375, 0, 
413, 1034546111, 0.5130997896194458, -0.5805732607841492, -0.5127529501914978, -0.36979785561561584, 9.435343742370605, -1.3589235544204712, -1.3620250225067139, -15.018502235412598, -5.36859130859375, 11.56358814239502, -0.8857421875, 0.512939453125, 0.515869140625, 0, 
414, 1034554444, 0.512319803237915, -0.5820162296295166, -0.5117619037628174, -0.3699839115142822, 9.724380493164062, -1.3477920293807983, -2.096461296081543, -21.484846115112305, -4.536949157714844, 13.07485580444336, -0.884521484375, 0.51513671875, 0.5224609375, 0, 
415, 1034562777, 0.5116961002349854, -0.5834016799926758, -0.5107860565185547, -0.3700137138366699, 9.852656364440918, -1.5601210594177246, -2.079594850540161, -18.749605178833008, -4.470762252807617, 14.467375755310059, -0.880859375, 0.512939453125, 0.52197265625, 0, 
416, 1034571110, 0.5110204815864563, -0.5848460793495178, -0.5096599459648132, -0.3702201843261719, 9.754508972167969, -1.2788256406784058, -2.296142816543579, -22.057863235473633, -2.553945541381836, 14.679642677307129, -0.880859375, 0.512939453125, 0.5234375, 0, 
417, 1034579443, 0.5104490518569946, -0.5862332582473755, -0.5084426999092102, -0.37048813700675964, 9.59342098236084, -0.8708542585372925, -2.9239394664764404, -21.24090003967285, -0.5031920075416565, 15.01068115234375, -0.8828125, 0.510498046875, 0.52392578125, 0, 
418, 1034587776, 0.5100449919700623, -0.5874588489532471, -0.507340669631958, -0.37061387300491333, 9.121241569519043, -0.9864046573638916, -2.84224534034729, -17.224891662597656, -0.46228593587875366, 14.813220977783203, -0.879638671875, 0.511474609375, 0.527099609375, 0, 
419, 1034596109, 0.5095198154449463, -0.5887608528137207, -0.5062149167060852, -0.370809406042099, 8.873952865600586, -1.0295251607894897, -3.135436773300171, -19.298376083374023, -0.9689229726791382, 14.422152519226074, -0.879150390625, 0.513916015625, 0.52978515625, 0, 
420, 1034604442, 0.5092348456382751, -0.5897199511528015, -0.5056939125061035, -0.37038737535476685, 9.00641918182373, -0.7180138826370239, -4.195422172546387, -7.533647537231445, -6.801464557647705, 12.683378219604492, -0.879638671875, 0.511474609375, 0.527099609375, 0, 
421, 1034612775, 0.5095558762550354, -0.5900397896766663, -0.5059791803359985, -0.3690447211265564, 9.316762924194336, -1.57828950881958, -2.7924699783325195, 12.330862998962402, -12.427722930908203, 11.239465713500977, -0.875732421875, 0.5166015625, 0.53076171875, 0, 
422, 1034621108, 0.50943922996521, -0.5908283591270447, -0.5055946707725525, -0.3684707581996918, 9.288900375366211, -3.0028164386749268, -2.491089344024658, -3.5849175453186035, -6.8400774002075195, 12.404988288879395, -0.87255859375, 0.51708984375, 0.53125, 0, 
423, 1034629441, 0.5098202228546143, -0.5910567045211792, -0.5057277083396912, -0.367393434047699, 9.266677856445312, -2.474161148071289, -4.633102893829346, 10.837884902954102, -8.339049339294434, 10.275242805480957, -0.87744140625, 0.519287109375, 0.53125, 0, 
424, 1034637774, 0.5108208656311035, -0.5906921029090881, -0.5064218044281006, -0.3656292259693146, 10.01641845703125, -3.1704485416412354, -2.258371353149414, 27.687049865722656, -10.561603546142578, 9.533587455749512, -0.8759765625, 0.520751953125, 0.5283203125, 0, 
425, 1034646107, 0.5104696154594421, -0.5915766358375549, -0.5056179761886597, -0.36580225825309753, 9.719991683959961, -2.9382436275482178, -1.6847931146621704, -13.135917663574219, 0.012602207250893116, 9.998468399047852, -0.87060546875, 0.521240234375, 0.53173828125, 0, 
426, 1034654440, 0.5103651285171509, -0.5920841097831726, -0.504993736743927, -0.3659893274307251, 9.132739067077637, -2.240161895751953, -3.9467406272888184, -7.515063285827637, 2.4372074604034424, 7.027227401733398, -0.873291015625, 0.522216796875, 0.53271484375, 0, 
427, 1034662773, 0.510450541973114, -0.5923231840133667, -0.5046491026878357, -0.36595872044563293, 9.306775093078613, -3.736142158508301, -2.3089542388916016, -1.3260746002197266, 1.414405345916748, 5.40259313583374, -0.87060546875, 0.522705078125, 0.533203125, 0, 
428, 1034671106, 0.5098364949226379, -0.5931408405303955, -0.5036912560462952, -0.36680901050567627, 9.332544326782227, -4.068110466003418, -1.8434587717056274, -20.347166061401367, 5.143661022186279, 4.725534439086914, -0.87255859375, 0.519775390625, 0.533935546875, 0, 
429, 1034679439, 0.5096272826194763, -0.5935108661651611, -0.5030474662780762, -0.3673843741416931, 8.923584938049316, -4.36203145980835, -2.31964373588562, -10.35685920715332, 5.74664306640625, 3.0152435302734375, -0.871826171875, 0.52294921875, 0.53173828125, 0, 
430, 1034687772, 0.509371280670166, -0.5938129425048828, -0.5025292634963989, -0.36795979738235474, 8.890074729919434, -4.32059383392334, -1.8892029523849487, -9.664278030395508, 4.895482540130615, 1.2941209077835083, -0.8720703125, 0.518798828125, 0.533935546875, 0, 
431, 1034696105, 0.5088276863098145, -0.5943577289581299, -0.5017162561416626, -0.3689402937889099, 9.324562072753906, -3.3554303646087646, -1.7761492729187012, -17.96818733215332, 7.043135166168213, 1.0759390592575073, -0.874267578125, 0.5185546875, 0.534912109375, 0, 
432, 1034704438, 0.5080567598342896, -0.5950779318809509, -0.5005640983581543, -0.37040412425994873, 8.864795684814453, -2.89739990234375, -2.729522466659546, -26.083248138427734, 10.9014892578125, 0.5158838033676147, -0.87353515625, 0.51708984375, 0.535400390625, 0, 
433, 1034712771, 0.5075905323028564, -0.5954517126083374, -0.49987679719924927, -0.3713696300983429, 8.661953926086426, -2.191730499267578, -2.6447112560272217, -15.396490097045898, 7.444792747497559, -0.6315191388130188, -0.875, 0.51416015625, 0.533203125, 0, 
434, 1034721104, 0.5067525506019592, -0.5961271524429321, -0.49898040294647217, -0.3726336359977722, 8.605469703674316, -2.2921762466430664, -2.099128484725952, -23.60293960571289, 7.238061904907227, -0.8458849191665649, -0.87353515625, 0.511962890625, 0.53125, 0, 
435, 1034729437, 0.5058313012123108, -0.5967816114425659, -0.498201459646225, -0.37387770414352417, 8.549707412719727, -2.163727283477783, -2.8637876510620117, -23.462905883789062, 5.806301116943359, -2.2224199771881104, -0.87646484375, 0.512939453125, 0.534423828125, 0, 
436, 1034737770, 0.505366325378418, -0.5970598459243774, -0.4980161488056183, -0.37430915236473083, 9.108713150024414, -2.9758846759796143, -1.7973899841308594, -8.4418363571167, 0.0580802746117115, -1.6869534254074097, -0.874267578125, 0.509521484375, 0.537353515625, 0, 
437, 1034746103, 0.5049294233322144, -0.5974246263504028, -0.4978580176830292, -0.3745271563529968, 9.734062194824219, -2.889165163040161, -0.4570811986923218, -7.250955581665039, -2.12457275390625, 0.3237767517566681, -0.87646484375, 0.50927734375, 0.54052734375, 0, 
438, 1034754436, 0.5047519207000732, -0.5976525545120239, -0.49765291810035706, -0.3746749758720398, 9.878484725952148, -1.8214744329452515, -0.7751156091690063, -3.83744740486145, 0.08197835087776184, 1.5713948011398315, -0.876953125, 0.50830078125, 0.537841796875, 0, 
439, 1034762769, 0.5047720670700073, -0.597804069519043, -0.4974904954433441, -0.374622106552124, 9.697299003601074, -1.5025817155838013, -1.5845681428909302, -0.18444809317588806, -0.09402985125780106, 3.132889986038208, -0.87646484375, 0.50830078125, 0.536376953125, 0, 
440, 1034771102, 0.504815936088562, -0.5979839563369751, -0.49736031889915466, -0.37444862723350525, 9.463956832885742, -1.3841246366500854, -1.6715362071990967, 1.1931239366531372, -1.3939011096954346, 3.9327456951141357, -0.872802734375, 0.5078125, 0.537353515625, 0, 
441, 1034779435, 0.5050299167633057, -0.5979838967323303, -0.4973701238632202, -0.374146968126297, 8.847009658813477, -1.4969803094863892, -2.110456943511963, 5.050243854522705, -1.2284842729568481, 3.4060916900634766, -0.874267578125, 0.5087890625, 0.538330078125, 0, 
442, 1034787768, 0.5052565932273865, -0.597969114780426, -0.49755266308784485, -0.3736216425895691, 8.812058448791504, -1.5056519508361816, -2.547895908355713, 7.740149021148682, -4.125019550323486, 3.4857265949249268, -0.873291015625, 0.509521484375, 0.539794921875, 0, 
443, 1034796101, 0.5053213834762573, -0.5981338620185852, -0.497560054063797, -0.3732603192329407, 9.434834480285645, -0.9921150207519531, -2.6265037059783936, 3.075796127319336, -3.5696518421173096, 4.202028751373291, -0.87353515625, 0.512451171875, 0.539306640625, 0, 
