PacketCounter,SampleTimeFine,Quat_W,Quat_X,Quat_Y,Quat_Z,Acc_X,Acc_Y,Acc_Z,Gyr_X,Gyr_Y,Gyr_Z,Mag_X,Mag_Y,Mag_Z,Status,
0, 1006747223, 0.5036462545394897, -0.5093343257904053, -0.6000304222106934, -0.3562060594558716, 0, 0, 0, 0, 0, 0, -1.378173828125, 0.63623046875, 0.406982421875, 0, 
1, 1006755556, 0.5036211609840393, -0.5093410611152649, -0.6000301241874695, -0.3562321364879608, 9.676300048828125, -0.9295848608016968, -2.364976644515991, 3.1173806190490723, -1.3683252334594727, 1.1680091619491577, -1.382080078125, 0.63525390625, 0.399658203125, 0, 
2, 1006763889, 0.5035887956619263, -0.5093536376953125, -0.600034236907959, -0.35625308752059937, 9.65711784362793, -0.9025116562843323, -2.348193645477295, 3.0670487880706787, -1.5537210702896118, 1.1255664825439453, -1.380126953125, 0.6318359375, 0.40673828125, 0, 
3, 1006772222, 0.5035589933395386, -0.5093563795089722, -0.600051760673523, -0.356261670589447, 9.6337251663208, -0.8916109800338745, -2.3722000122070312, 3.3496503829956055, -1.6366087198257446, 1.1046139001846313, -1.383056640625, 0.637939453125, 0.4052734375, 0, 
4, 1006780555, 0.5035444498062134, -0.5093350410461426, -0.6000875234603882, -0.35625264048576355, 9.648177146911621, -0.8654879927635193, -2.4483258724212646, 3.8313775062561035, -1.668549656867981, 0.9176556468009949, -1.378173828125, 0.631591796875, 0.404052734375, 0, 
5, 1006788888, 0.5035486817359924, -0.5092974305152893, -0.6001308560371399, -0.35622718930244446, 9.65159797668457, -0.856350839138031, -2.4621262550354004, 4.279550075531006, -1.5754164457321167, 0.993524968624115, -1.38330078125, 0.63623046875, 0.40673828125, 0, 
6, 1006797221, 0.5035576224327087, -0.5092535614967346, -0.6001614928245544, -0.3562258183956146, 9.66429328918457, -0.8747710585594177, -2.417262077331543, 4.062917709350586, -1.2765110731124878, 0.8312204480171204, -1.382080078125, 0.633056640625, 0.405517578125, 0, 
7, 1006805554, 0.5035422444343567, -0.5092187523841858, -0.6001983284950256, -0.3562353551387787, 9.642778396606445, -0.8189404010772705, -2.442274332046509, 3.801126718521118, -1.4584616422653198, 0.7251389622688293, -1.375, 0.63525390625, 0.400634765625, 0, 
8, 1006813887, 0.5035300254821777, -0.5091920495033264, -0.6002171635627747, -0.3562591075897217, 9.651331901550293, -0.7825333476066589, -2.3991410732269287, 3.5294108390808105, -1.2767541408538818, 0.7758038640022278, -1.376953125, 0.6328125, 0.402587890625, 0, 
9, 1006822220, 0.5034880042076111, -0.5091847777366638, -0.6002441644668579, -0.3562832474708557, 9.68680191040039, -0.8117893934249878, -2.418944835662842, 3.253084659576416, -1.6456761360168457, 0.7897636890411377, -1.38330078125, 0.637451171875, 0.404052734375, 0, 
10, 1006830553, 0.5034517049789429, -0.5091818571090698, -0.6002715229988098, -0.3562924861907959, 9.695618629455566, -0.8238447308540344, -2.4138734340667725, 3.358999252319336, -1.7530254125595093, 0.8947052359580994, -1.38330078125, 0.634765625, 0.40087890625, 0, 
11, 1006838886, 0.5034226775169373, -0.5091696977615356, -0.6003021001815796, -0.3562994599342346, 9.700699806213379, -0.8221328854560852, -2.438523769378662, 3.5407323837280273, -1.6585856676101685, 0.9069744348526001, -1.38134765625, 0.63232421875, 0.40478515625, 0, 
12, 1006847219, 0.5034127235412598, -0.5091329216957092, -0.6003434658050537, -0.35629624128341675, 9.683405876159668, -0.8102196455001831, -2.4513063430786133, 3.9499459266662598, -1.5539004802703857, 0.7324646711349487, -1.386474609375, 0.634765625, 0.403564453125, 0, 
13, 1006855552, 0.5034219026565552, -0.5090748071670532, -0.6003894805908203, -0.35628876090049744, 9.688324928283691, -0.8430060148239136, -2.455211877822876, 4.320711612701416, -1.3250627517700195, 0.7056722044944763, -1.375732421875, 0.63720703125, 0.403076171875, 0, 
14, 1006863885, 0.5034385919570923, -0.5090162754058838, -0.6004348397254944, -0.356272429227829, 9.666720390319824, -0.8463804125785828, -2.464644432067871, 4.413051128387451, -1.3472191095352173, 0.7471416592597961, -1.38134765625, 0.631591796875, 0.405517578125, 0, 
15, 1006872218, 0.5034434199333191, -0.5089792013168335, -0.6004734635353088, -0.35625383257865906, 9.660680770874023, -0.863826334476471, -2.401872396469116, 4.19809627532959, -1.4909919500350952, 0.9861992597579956, -1.3828125, 0.6318359375, 0.406005859375, 0, 
16, 1006880551, 0.5034482479095459, -0.5089507102966309, -0.600508451461792, -0.35622864961624146, 9.673935890197754, -0.8614235520362854, -2.3922696113586426, 4.145638465881348, -1.5826140642166138, 1.0701371431350708, -1.38134765625, 0.6328125, 0.403564453125, 0, 
17, 1006888884, 0.5034493803977966, -0.5089020133018494, -0.6005632281303406, -0.3562040627002716, 9.653390884399414, -0.8292094469070435, -2.4377074241638184, 4.376960754394531, -1.6167834997177124, 0.8027758002281189, -1.380126953125, 0.629150390625, 0.40478515625, 0, 
18, 1006897217, 0.5034549236297607, -0.508840024471283, -0.6006262302398682, -0.3561786115169525, 9.659226417541504, -0.80224609375, -2.4518699645996094, 4.521988868713379, -1.6071268320083618, 0.6030615568161011, -1.37939453125, 0.635498046875, 0.4033203125, 0, 
19, 1006905550, 0.5034504532814026, -0.508780300617218, -0.6006761193275452, -0.3561863601207733, 9.649189949035645, -0.8010258674621582, -2.4498531818389893, 4.123046875, -1.3492426872253418, 0.4944828748703003, -1.37939453125, 0.638671875, 0.4052734375, 0, 
20, 1006913883, 0.5034597516059875, -0.50871741771698, -0.6007057428359985, -0.3562130331993103, 9.649556159973145, -0.8005219101905823, -2.4230029582977295, 3.9596784114837646, -0.9774006009101868, 0.48692652583122253, -1.378662109375, 0.6376953125, 0.400146484375, 0, 
21, 1006922216, 0.5034317374229431, -0.5086625218391418, -0.6007513403892517, -0.3562540113925934, 9.664596557617188, -0.8136621117591858, -2.4286482334136963, 3.635223627090454, -1.3064924478530884, 0.21936030685901642, -1.378173828125, 0.634033203125, 0.404541015625, 0, 
22, 1006930549, 0.5034193992614746, -0.5086141228675842, -0.6007919907569885, -0.356271892786026, 9.70100212097168, -0.7972056269645691, -2.419342279434204, 3.836345672607422, -1.363868236541748, 0.48541536927223206, -1.38330078125, 0.633544921875, 0.404296875, 0, 
23, 1006938882, 0.5034107565879822, -0.5085581541061401, -0.6008365750312805, -0.3562890589237213, 9.697816848754883, -0.7628250122070312, -2.427605152130127, 3.969156503677368, -1.300575613975525, 0.4738377034664154, -1.37890625, 0.631591796875, 0.404052734375, 0, 
24, 1006947215, 0.5034270286560059, -0.5084861516952515, -0.6008810997009277, -0.35629379749298096, 9.707291603088379, -0.7221558094024658, -2.4530391693115234, 4.325399398803711, -1.130445957183838, 0.4959172010421753, -1.385009765625, 0.635986328125, 0.40234375, 0, 
25, 1006955548, 0.5034429430961609, -0.5084204077720642, -0.6009197235107422, -0.35630008578300476, 9.680447578430176, -0.7350462079048157, -2.4755353927612305, 4.27191686630249, -1.0844171047210693, 0.6304175853729248, -1.3837890625, 0.633544921875, 0.401123046875, 0, 
26, 1006963881, 0.5034549236297607, -0.5083632469177246, -0.6009575724601746, -0.35630083084106445, 9.653761863708496, -0.7298137545585632, -2.501863479614258, 4.193152904510498, -1.2211971282958984, 0.6698890328407288, -1.38330078125, 0.63232421875, 0.406005859375, 0, 
27, 1006972214, 0.5034357905387878, -0.5083376169204712, -0.6009804606437683, -0.356325626373291, 9.663026809692383, -0.754196286201477, -2.4603700637817383, 3.519779920578003, -1.3320553302764893, 0.7756758332252502, -1.380126953125, 0.6328125, 0.40087890625, 0, 
28, 1006980547, 0.5034168362617493, -0.5083244442939758, -0.6009874939918518, -0.35635942220687866, 9.694559097290039, -0.7727155089378357, -2.3862409591674805, 3.2486281394958496, -1.2472981214523315, 0.8697314262390137, -1.38134765625, 0.634765625, 0.4052734375, 0, 
29, 1006988880, 0.5033960938453674, -0.5082995891571045, -0.6009977459907532, -0.3564068078994751, 9.676168441772461, -0.7819559574127197, -2.392486572265625, 3.264714002609253, -1.1058818101882935, 0.6988332867622375, -1.38134765625, 0.63525390625, 0.397705078125, 0, 
30, 1006997213, 0.5033661723136902, -0.5082954168319702, -0.6009945273399353, -0.3564605414867401, 9.682570457458496, -0.7919473052024841, -2.429438591003418, 2.8939342498779297, -1.172081708908081, 0.822588324546814, -1.37646484375, 0.6328125, 0.402099609375, 0, 
31, 1007005546, 0.503317654132843, -0.5083023309707642, -0.6010023355484009, -0.35650596022605896, 9.672831535339355, -0.8028411269187927, -2.3917720317840576, 2.8451013565063477, -1.4863556623458862, 0.8591271638870239, -1.3828125, 0.6318359375, 0.406005859375, 0, 
32, 1007013879, 0.5032745003700256, -0.5082941055297852, -0.6010193228721619, -0.35655006766319275, 9.663222312927246, -0.7746813893318176, -2.466520309448242, 3.0093648433685303, -1.467785120010376, 0.6499355435371399, -1.38134765625, 0.633544921875, 0.4052734375, 0, 
33, 1007022212, 0.5032368302345276, -0.5082738995552063, -0.6010489463806152, -0.3565818965435028, 9.646495819091797, -0.7317714691162109, -2.4665367603302, 3.329658269882202, -1.5101126432418823, 0.6304559111595154, -1.381591796875, 0.6298828125, 0.40673828125, 0, 
34, 1007030545, 0.503197431564331, -0.508238673210144, -0.6010911464691162, -0.35661670565605164, 9.636000633239746, -0.6844921708106995, -2.4442813396453857, 3.4223177433013916, -1.5444488525390625, 0.33344611525535583, -1.382080078125, 0.6318359375, 0.405517578125, 0, 
35, 1007038878, 0.5031435489654541, -0.5082041025161743, -0.6011539101600647, -0.3566358983516693, 9.653712272644043, -0.7067721486091614, -2.4260060787200928, 3.572826862335205, -1.8922642469406128, 0.28990188241004944, -1.37939453125, 0.637939453125, 0.4052734375, 0, 
36, 1007047211, 0.5031100511550903, -0.5081596374511719, -0.6012138724327087, -0.35664549469947815, 9.698713302612305, -0.7202781438827515, -2.5116450786590576, 3.8229503631591797, -1.749977469444275, 0.33570021390914917, -1.380859375, 0.6328125, 0.401611328125, 0, 
37, 1007055544, 0.5030800700187683, -0.508121132850647, -0.601266086101532, -0.3566548228263855, 9.692683219909668, -0.7555350661277771, -2.4883182048797607, 3.793134927749634, -1.6681909561157227, 0.5151790976524353, -1.384033203125, 0.63232421875, 0.404296875, 0, 
38, 1007063877, 0.5030585527420044, -0.50807785987854, -0.6013136506080627, -0.35666653513908386, 9.671122550964355, -0.7968119382858276, -2.470067024230957, 3.8207216262817383, -1.555104374885559, 0.47629669308662415, -1.37939453125, 0.6328125, 0.4033203125, 0, 
39, 1007072210, 0.5030313730239868, -0.5080410242080688, -0.60136479139328, -0.3566708564758301, 9.658563613891602, -0.7724136710166931, -2.4124257564544678, 3.8643174171447754, -1.6839696168899536, 0.5838765501976013, -1.382080078125, 0.631103515625, 0.40283203125, 0, 
40, 1007080543, 0.5029981732368469, -0.5080206990242004, -0.601403534412384, -0.356681227684021, 9.674043655395508, -0.7699814438819885, -2.393141031265259, 3.5472123622894287, -1.71383535861969, 0.6791869401931763, -1.380126953125, 0.633544921875, 0.402099609375, 0, 
41, 1007088876, 0.502942681312561, -0.5080190896987915, -0.6014353036880493, -0.3567085564136505, 9.674751281738281, -0.7417306900024414, -2.433819532394409, 3.120607376098633, -1.7945201396942139, 0.7131001949310303, -1.376953125, 0.629638671875, 0.40283203125, 0, 
42, 1007097209, 0.5028743147850037, -0.5080362558364868, -0.6014631390571594, -0.35673344135284424, 9.661240577697754, -0.7760298848152161, -2.4097559452056885, 2.8682305812835693, -2.0123953819274902, 0.7945278882980347, -1.37939453125, 0.634765625, 0.404052734375, 0, 
43, 1007105542, 0.5028031468391418, -0.5080565810203552, -0.6014929413795471, -0.356754869222641, 9.676570892333984, -0.7581266164779663, -2.4176547527313232, 2.8901307582855225, -2.0585005283355713, 0.8742138147354126, -1.38330078125, 0.6298828125, 0.403564453125, 0, 
44, 1007113875, 0.5027390122413635, -0.5080755949020386, -0.6015166640281677, -0.35677817463874817, 9.662931442260742, -0.7447954416275024, -2.4377152919769287, 2.878591775894165, -1.968146800994873, 0.8686171770095825, -1.382080078125, 0.62939453125, 0.407470703125, 0, 
45, 1007122208, 0.5027064681053162, -0.5080580711364746, -0.6015540957450867, -0.3567858934402466, 9.646393775939941, -0.7632400393486023, -2.4462883472442627, 3.5771942138671875, -1.7020658254623413, 0.7904936671257019, -1.37841796875, 0.62890625, 0.40087890625, 0, 
46, 1007130541, 0.5026989579200745, -0.5080177187919617, -0.6016002893447876, -0.3567761182785034, 9.680832862854004, -0.767803430557251, -2.403390407562256, 4.068334579467773, -1.5950626134872437, 0.7290067672729492, -1.381591796875, 0.6279296875, 0.40673828125, 0, 
47, 1007138874, 0.5026925206184387, -0.5079768896102905, -0.6016352772712708, -0.3567841053009033, 9.666274070739746, -0.7668141722679138, -2.4486217498779297, 3.903968334197998, -1.353340983390808, 0.7416346669197083, -1.382080078125, 0.633544921875, 0.40478515625, 0, 
48, 1007147207, 0.5026938915252686, -0.5079427361488342, -0.6016613245010376, -0.3567867875099182, 9.670645713806152, -0.7484983801841736, -2.421757221221924, 3.8853466510772705, -1.3254472017288208, 0.8769034147262573, -1.380859375, 0.63037109375, 0.40478515625, 0, 
49, 1007155540, 0.5026910305023193, -0.5079005360603333, -0.6017026901245117, -0.35678115487098694, 9.652359962463379, -0.7719486355781555, -2.458900213241577, 4.0836005210876465, -1.4562078714370728, 0.7978066802024841, -1.382080078125, 0.63037109375, 0.401611328125, 0, 
50, 1007163873, 0.5026986002922058, -0.5078511834144592, -0.6017472147941589, -0.3567655086517334, 9.649479866027832, -0.7339195609092712, -2.4932868480682373, 4.277731418609619, -1.4551063776016235, 0.7798510193824768, -1.38330078125, 0.63037109375, 0.404296875, 0, 
51, 1007172206, 0.502691924571991, -0.507806658744812, -0.6017905473709106, -0.3567652106285095, 9.688302993774414, -0.7329500913619995, -2.468045234680176, 4.039979457855225, -1.452954649925232, 0.7079262733459473, -1.38330078125, 0.62939453125, 0.40869140625, 0, 
52, 1007180539, 0.5026815533638, -0.5077879428863525, -0.6018063426017761, -0.35677972435951233, 9.682217597961426, -0.7377173900604248, -2.45761775970459, 3.548877716064453, -1.3453748226165771, 0.9390946626663208, -1.38525390625, 0.631103515625, 0.40234375, 0, 
53, 1007188872, 0.5026360154151917, -0.5077995657920837, -0.6018160581588745, -0.3568112850189209, 9.6639986038208, -0.7523587346076965, -2.4293434619903564, 2.952962875366211, -1.5932695865631104, 0.9964706301689148, -1.375244140625, 0.631591796875, 0.404541015625, 0, 
54, 1007197205, 0.5025793313980103, -0.5078242421150208, -0.6018227934837341, -0.35684460401535034, 9.673489570617676, -0.7417096495628357, -2.4534356594085693, 2.7258667945861816, -1.7474159002304077, 1.0017726421356201, -1.384033203125, 0.6328125, 0.403076171875, 0, 
55, 1007205538, 0.502521812915802, -0.5078569650650024, -0.6018311977386475, -0.3568647503852844, 9.701031684875488, -0.7390984892845154, -2.4460158348083496, 2.812622308731079, -1.8677260875701904, 1.2005393505096436, -1.380126953125, 0.6328125, 0.404052734375, 0, 
56, 1007213871, 0.5024965405464172, -0.5078661441802979, -0.6018416285514832, -0.3568696081638336, 9.692566871643066, -0.7352393269538879, -2.465301752090454, 3.3064260482788086, -1.6351615190505981, 1.1981953382492065, -1.380126953125, 0.629150390625, 0.40673828125, 0, 
57, 1007222204, 0.5024722218513489, -0.5078558325767517, -0.6018610596656799, -0.35688573122024536, 9.658371925354004, -0.7199606895446777, -2.422956943511963, 3.428004026412964, -1.4863555431365967, 0.9575625658035278, -1.380126953125, 0.629150390625, 0.403564453125, 0, 
58, 1007230537, 0.5024552941322327, -0.5078521966934204, -0.6018787026405334, -0.35688501596450806, 9.67672348022461, -0.7195320129394531, -2.468123197555542, 3.532945156097412, -1.5914250612258911, 1.1236708164215088, -1.380126953125, 0.6298828125, 0.407958984375, 0, 
59, 1007238870, 0.5024312734603882, -0.5078533887863159, -0.6018940210342407, -0.35689136385917664, 9.663073539733887, -0.7098859548568726, -2.405459403991699, 3.407743215560913, -1.5806158781051636, 1.1534345149993896, -1.380126953125, 0.6328125, 0.40283203125, 0, 
60, 1007247203, 0.5024266242980957, -0.5078341364860535, -0.6019045114517212, -0.35690751671791077, 9.653444290161133, -0.7038590312004089, -2.44937801361084, 3.5533087253570557, -1.2464781999588013, 0.9860454797744751, -1.382080078125, 0.63232421875, 0.404052734375, 0, 
61, 1007255536, 0.5024305582046509, -0.5077937841415405, -0.6019262671470642, -0.3569226562976837, 9.643779754638672, -0.6913202404975891, -2.4873030185699463, 3.849179267883301, -1.1294723749160767, 0.8384050726890564, -1.379638671875, 0.629150390625, 0.4072265625, 0, 
62, 1007263869, 0.5024289488792419, -0.5077598094940186, -0.601940393447876, -0.3569496273994446, 9.65506362915039, -0.6899758577346802, -2.426231861114502, 3.6047680377960205, -1.0980437994003296, 0.7785958647727966, -1.38134765625, 0.6328125, 0.403564453125, 0, 
63, 1007272202, 0.5023946762084961, -0.5077539086341858, -0.6019431948661804, -0.35700151324272156, 9.66128921508789, -0.7325455546379089, -2.4151268005371094, 2.939054012298584, -1.2248854637145996, 0.8202190399169922, -1.379638671875, 0.631591796875, 0.403564453125, 0, 
64, 1007280535, 0.5023691654205322, -0.5077509880065918, -0.6019342541694641, -0.35705673694610596, 9.697067260742188, -0.7320781946182251, -2.422238826751709, 2.875556230545044, -1.0923572778701782, 0.8849973678588867, -1.37890625, 0.631591796875, 0.4033203125, 0, 
65, 1007288868, 0.5023265480995178, -0.5077563524246216, -0.601944088935852, -0.3570924401283264, 9.684191703796387, -0.761134147644043, -2.435793161392212, 2.9785001277923584, -1.5120980739593506, 0.9304627180099487, -1.382568359375, 0.6337890625, 0.407958984375, 0, 
66, 1007297201, 0.5022974610328674, -0.5077666640281677, -0.6019436120986938, -0.3571194112300873, 9.718060493469238, -0.7481080293655396, -2.4468042850494385, 3.0347747802734375, -1.4428627490997314, 1.1137325763702393, -1.3828125, 0.63037109375, 0.404296875, 0, 
67, 1007305534, 0.5022927522659302, -0.507749080657959, -0.6019469499588013, -0.3571454584598541, 9.673043251037598, -0.7206552624702454, -2.4411096572875977, 3.4555137157440186, -1.108186960220337, 1.0374789237976074, -1.38134765625, 0.632080078125, 0.399169921875, 0, 
68, 1007313867, 0.5022961497306824, -0.507726788520813, -0.6019635200500488, -0.35714447498321533, 9.647353172302246, -0.7023617625236511, -2.4896273612976074, 3.8021512031555176, -1.326215386390686, 1.076719880104065, -1.380859375, 0.62744140625, 0.405517578125, 0, 
69, 1007322200, 0.5022933483123779, -0.5077102780342102, -0.6019778847694397, -0.35714781284332275, 9.665083885192871, -0.6963135600090027, -2.436525344848633, 3.7062253952026367, -1.331722378730774, 1.1373486518859863, -1.379638671875, 0.6279296875, 0.40869140625, 0, 
70, 1007330533, 0.5022904276847839, -0.507705807685852, -0.6019787192344666, -0.3571568429470062, 9.6622953414917, -0.681993842124939, -2.4625284671783447, 3.4734182357788086, -1.288280725479126, 1.2340936660766602, -1.378173828125, 0.632080078125, 0.402099609375, 0, 
71, 1007338866, 0.5022738575935364, -0.5077158808708191, -0.6019694209098816, -0.357181191444397, 9.66761302947998, -0.6557883620262146, -2.452183485031128, 3.1219656467437744, -1.2657403945922852, 1.3093743324279785, -1.382080078125, 0.6259765625, 0.40185546875, 0, 
72, 1007347199, 0.502245306968689, -0.5077403783798218, -0.6019625067710876, -0.35719817876815796, 9.668095588684082, -0.6641425490379333, -2.4236345291137695, 2.991947650909424, -1.5331016778945923, 1.3474112749099731, -1.380859375, 0.627197265625, 0.404296875, 0, 
73, 1007355532, 0.502212405204773, -0.5077759027481079, -0.601945698261261, -0.35722237825393677, 9.668267250061035, -0.6970164179801941, -2.426872491836548, 2.807217836380005, -1.4764174222946167, 1.4910048246383667, -1.384033203125, 0.6318359375, 0.40478515625, 0, 
74, 1007363865, 0.5021829605102539, -0.5078261494636536, -0.6019067764282227, -0.35725799202919006, 9.673319816589355, -0.7027915120124817, -2.433652400970459, 2.495389938354492, -1.3156368732452393, 1.6512985229492188, -1.381591796875, 0.6279296875, 0.403076171875, 0, 
75, 1007372198, 0.502126932144165, -0.5078960657119751, -0.6018624901771545, -0.3573119342327118, 9.670005798339844, -0.7094383239746094, -2.441037654876709, 2.0313880443573, -1.4394559860229492, 1.6522204875946045, -1.384521484375, 0.629638671875, 0.40185546875, 0, 
76, 1007380531, 0.5020787715911865, -0.5079514980316162, -0.6018263697624207, -0.35736167430877686, 9.656403541564941, -0.713400661945343, -2.4599199295043945, 2.226773500442505, -1.4166337251663208, 1.4852670431137085, -1.385986328125, 0.62939453125, 0.40576171875, 0, 
77, 1007388864, 0.5020291209220886, -0.5079888701438904, -0.6018044352531433, -0.35741522908210754, 9.677947044372559, -0.7040490508079529, -2.4681875705718994, 2.4109909534454346, -1.382233738899231, 1.2594774961471558, -1.379638671875, 0.6279296875, 0.405517578125, 0, 
78, 1007397197, 0.501990556716919, -0.5080282688140869, -0.6017693877220154, -0.35747233033180237, 9.685131072998047, -0.7277261018753052, -2.453254461288452, 2.348031520843506, -1.2151521444320679, 1.3397783041000366, -1.379638671875, 0.62744140625, 0.40673828125, 0, 
79, 1007405530, 0.5019485354423523, -0.5080632567405701, -0.6017367243766785, -0.35753658413887024, 9.710647583007812, -0.7196546196937561, -2.4251582622528076, 2.3327648639678955, -1.1596715450286865, 1.2797895669937134, -1.384033203125, 0.632568359375, 0.407958984375, 0, 
80, 1007413863, 0.5019002556800842, -0.508098304271698, -0.6017128825187683, -0.357594758272171, 9.703228950500488, -0.7202439308166504, -2.4618144035339355, 2.3564584255218506, -1.342275619506836, 1.1708524227142334, -1.37890625, 0.627197265625, 0.403564453125, 0, 
81, 1007422196, 0.5018669962882996, -0.5081216096878052, -0.6016983389854431, -0.35763314366340637, 9.664320945739746, -0.7009446024894714, -2.452739953994751, 2.7755329608917236, -1.3367173671722412, 1.2762036323547363, -1.382568359375, 0.633056640625, 0.40869140625, 0, 
82, 1007430529, 0.5018429756164551, -0.5081347823143005, -0.6016806364059448, -0.3576779365539551, 9.651647567749023, -0.7045722007751465, -2.4522757530212402, 2.8194100856781006, -1.171966552734375, 1.158250093460083, -1.38330078125, 0.628662109375, 0.40625, 0, 
83, 1007438862, 0.5018104314804077, -0.5081483721733093, -0.6016618609428406, -0.35773536562919617, 9.663834571838379, -0.7085961103439331, -2.4356420040130615, 2.667185068130493, -1.1195086240768433, 1.1004644632339478, -1.38232421875, 0.624267578125, 0.40380859375, 0, 
84, 1007447195, 0.5017663836479187, -0.5081768035888672, -0.6016411781311035, -0.357791543006897, 9.663500785827637, -0.7240875363349915, -2.4345462322235107, 2.464524984359741, -1.3120251893997192, 1.1301769018173218, -1.37841796875, 0.6279296875, 0.4072265625, 0, 
85, 1007455528, 0.501724123954773, -0.5082046985626221, -0.6016141176223755, -0.35785675048828125, 9.674588203430176, -0.7348901033401489, -2.359942674636841, 2.39969539642334, -1.1584678888320923, 1.1734650135040283, -1.382080078125, 0.63232421875, 0.407958984375, 0, 
86, 1007463861, 0.5016900300979614, -0.5082217454910278, -0.6016004681587219, -0.35790324211120605, 9.661614418029785, -0.7315995097160339, -2.4046242237091064, 2.727583169937134, -1.2895102500915527, 1.1003106832504272, -1.384033203125, 0.6279296875, 0.40234375, 0, 
87, 1007472194, 0.5016592144966125, -0.5082234144210815, -0.6015959978103638, -0.3579515814781189, 9.661590576171875, -0.717853307723999, -2.461942672729492, 2.9145925045013428, -1.2090047597885132, 0.9720858931541443, -1.38037109375, 0.62744140625, 0.407470703125, 0, 
88, 1007480527, 0.5016340613365173, -0.5082384347915649, -0.6015853881835938, -0.35798344016075134, 9.672207832336426, -0.7521963715553284, -2.452887535095215, 2.9392337799072266, -1.3290330171585083, 1.207762360572815, -1.377685546875, 0.627197265625, 0.40234375, 0, 
89, 1007488860, 0.5016124844551086, -0.508254885673523, -0.6015684604644775, -0.3580186367034912, 9.660289764404297, -0.756716787815094, -2.4362337589263916, 2.924889326095581, -1.2113099098205566, 1.3170839548110962, -1.3828125, 0.623046875, 0.40625, 0, 
90, 1007497193, 0.5015961527824402, -0.5082654356956482, -0.6015483736991882, -0.3580605685710907, 9.647790908813477, -0.7517248392105103, -2.4309866428375244, 2.9016830921173096, -1.0980181694030762, 1.2108873128890991, -1.382080078125, 0.62744140625, 0.405517578125, 0, 
91, 1007505526, 0.501572847366333, -0.5082692503929138, -0.6015371680259705, -0.35810667276382446, 9.650911331176758, -0.7555732727050781, -2.4307949542999268, 2.945380926132202, -1.1271928548812866, 1.0840200185775757, -1.382080078125, 0.6298828125, 0.40478515625, 0, 
92, 1007513859, 0.5015426278114319, -0.5082811117172241, -0.6015284061431885, -0.3581467866897583, 9.649576187133789, -0.7743571996688843, -2.420311689376831, 2.8661818504333496, -1.3107956647872925, 1.087349772453308, -1.385986328125, 0.62744140625, 0.406982421875, 0, 
93, 1007522192, 0.5015006065368652, -0.5082943439483643, -0.601520836353302, -0.3581993281841278, 9.679482460021973, -0.7761187553405762, -2.4734342098236084, 2.7235360145568848, -1.3091051578521729, 1.0034632682800293, -1.384765625, 0.625, 0.406982421875, 0, 
94, 1007530525, 0.5014603734016418, -0.5083041191101074, -0.601516604423523, -0.35824868083000183, 9.682979583740234, -0.7746826410293579, -2.482264995574951, 2.756629705429077, -1.3496013879776, 0.9245714545249939, -1.38037109375, 0.62744140625, 0.406005859375, 0, 
95, 1007538858, 0.501426637172699, -0.5083188414573669, -0.6015093922615051, -0.3582878112792969, 9.678838729858398, -0.8008805513381958, -2.438220262527466, 2.8670785427093506, -1.3432234525680542, 1.1461858749389648, -1.379638671875, 0.62744140625, 0.407470703125, 0, 
96, 1007547191, 0.5014070272445679, -0.5083275437355042, -0.6015037894248962, -0.3583121597766876, 9.693665504455566, -0.7766770124435425, -2.4494974613189697, 3.1089024543762207, -1.3394582271575928, 1.1999502182006836, -1.380859375, 0.625244140625, 0.401123046875, 0, 
97, 1007555524, 0.5014035105705261, -0.5083208680152893, -0.601508378982544, -0.35831838846206665, 9.672377586364746, -0.785651445388794, -2.4173426628112793, 3.55576753616333, -1.2988592386245728, 1.2636525630950928, -1.382080078125, 0.626708984375, 0.404296875, 0, 
98, 1007563857, 0.5014265179634094, -0.5083068013191223, -0.6015152335166931, -0.3582945764064789, 9.672599792480469, -0.8022155165672302, -2.4273505210876465, 4.022664546966553, -1.2962725162506104, 1.468361735343933, -1.3828125, 0.628173828125, 0.411376953125, 0, 
99, 1007572190, 0.5014621019363403, -0.5082873106002808, -0.6015210747718811, -0.3582628667354584, 9.697718620300293, -0.7837966084480286, -2.4052906036376953, 4.233457088470459, -1.1850427389144897, 1.6034897565841675, -1.384033203125, 0.626220703125, 0.406982421875, 0, 
100, 1007580523, 0.5014983415603638, -0.5082764029502869, -0.6015121340751648, -0.35824260115623474, 9.666463851928711, -0.7723790407180786, -2.3928005695343018, 3.987316846847534, -1.069919466972351, 1.6429227590560913, -1.379150390625, 0.6259765625, 0.406005859375, 0, 
101, 1007588856, 0.5015277862548828, -0.5082637071609497, -0.6015040278434753, -0.3582328259944916, 9.643749237060547, -0.751998245716095, -2.4675490856170654, 3.8985378742218018, -1.021892786026001, 1.5758646726608276, -1.384033203125, 0.626708984375, 0.40380859375, 0, 
102, 1007597189, 0.5015568137168884, -0.5082506537437439, -0.6014982461929321, -0.3582206964492798, 9.673585891723633, -0.7316128015518188, -2.4532201290130615, 3.8989222049713135, -1.0836231708526611, 1.5120084285736084, -1.382080078125, 0.6298828125, 0.403076171875, 0, 
103, 1007605522, 0.5015665292739868, -0.5082519054412842, -0.6014789938926697, -0.35823753476142883, 9.663359642028809, -0.7154151797294617, -2.4129247665405273, 3.38635516166687, -0.9901309013366699, 1.4873160123825073, -1.385986328125, 0.626708984375, 0.4033203125, 0, 
104, 1007613855, 0.501560628414154, -0.5082707405090332, -0.6014636754989624, -0.35824471712112427, 9.667404174804688, -0.7334458827972412, -2.40079927444458, 3.229416608810425, -1.3286997079849243, 1.538211464881897, -1.38525390625, 0.628662109375, 0.405029296875, 0, 
105, 1007622188, 0.5015639066696167, -0.5082709789276123, -0.6014561057090759, -0.35825252532958984, 9.672277450561523, -0.6967049837112427, -2.420189380645752, 3.483099937438965, -1.181751012802124, 1.427250623703003, -1.3828125, 0.631103515625, 0.406005859375, 0, 
106, 1007630521, 0.5015534162521362, -0.5082752108573914, -0.6014649271965027, -0.3582462668418884, 9.644241333007812, -0.6826286315917969, -2.410003185272217, 3.52815580368042, -1.55569326877594, 1.3187744617462158, -1.384033203125, 0.6298828125, 0.40234375, 0, 
107, 1007638854, 0.5015342235565186, -0.5082749128341675, -0.6014811396598816, -0.358246386051178, 9.680484771728516, -0.6437540054321289, -2.466369152069092, 3.51629638671875, -1.5814869403839111, 1.1983363628387451, -1.3828125, 0.62939453125, 0.407470703125, 0, 
108, 1007647187, 0.50151127576828, -0.508274495601654, -0.6014944314956665, -0.3582570254802704, 9.664628028869629, -0.6493902802467346, -2.4506537914276123, 3.3540046215057373, -1.5476762056350708, 1.0703932046890259, -1.382080078125, 0.6279296875, 0.405517578125, 0, 
109, 1007655520, 0.5014777779579163, -0.5082731246948242, -0.60151606798172, -0.35826921463012695, 9.694839477539062, -0.672875165939331, -2.455056667327881, 3.349048137664795, -1.647891640663147, 0.9976872205734253, -1.37890625, 0.62744140625, 0.4072265625, 0, 
110, 1007663853, 0.501465916633606, -0.5082523226737976, -0.601538896560669, -0.35827699303627014, 9.682144165039062, -0.6607365608215332, -2.465325355529785, 3.643880844116211, -1.4411208629608154, 0.9103298783302307, -1.383544921875, 0.62744140625, 0.406982421875, 0, 
111, 1007672186, 0.5014578700065613, -0.5082195401191711, -0.6015785932540894, -0.3582684397697449, 9.679227828979492, -0.6759334802627563, -2.4151742458343506, 4.004324913024902, -1.5542333126068115, 0.8801819682121277, -1.38525390625, 0.628662109375, 0.40576171875, 0, 
112, 1007680519, 0.5014572143554688, -0.5081861019134521, -0.6016190052032471, -0.358248770236969, 9.679265022277832, -0.6781309843063354, -2.4255118370056152, 4.122995376586914, -1.6009538173675537, 0.9258522391319275, -1.382080078125, 0.6298828125, 0.40625, 0, 
113, 1007688852, 0.5014534592628479, -0.5081386566162109, -0.6016860604286194, -0.35820895433425903, 9.695914268493652, -0.673129677772522, -2.432297945022583, 4.524063587188721, -1.8516403436660767, 0.8054396510124207, -1.38330078125, 0.628173828125, 0.408203125, 0, 
114, 1007697185, 0.5014616847038269, -0.5080872178077698, -0.6017470955848694, -0.35816794633865356, 9.724557876586914, -0.6956955194473267, -2.448550224304199, 4.587305068969727, -1.729870319366455, 0.8236768841743469, -1.382568359375, 0.63232421875, 0.40673828125, 0, 
115, 1007705518, 0.5014596581459045, -0.5080527067184448, -0.6017943620681763, -0.3581400215625763, 9.694753646850586, -0.6815826892852783, -2.4536261558532715, 4.243125915527344, -1.6821250915527344, 0.979590892791748, -1.380859375, 0.62890625, 0.399169921875, 0, 
116, 1007713851, 0.5014576315879822, -0.5080260038375854, -0.601821780204773, -0.3581346571445465, 9.681873321533203, -0.6951529383659363, -2.4401557445526123, 3.884347915649414, -1.454235553741455, 0.9677059054374695, -1.380859375, 0.6279296875, 0.405517578125, 0, 
117, 1007722184, 0.5014354586601257, -0.508021354675293, -0.6018478870391846, -0.3581288456916809, 9.684146881103516, -0.6974447965621948, -2.4537951946258545, 3.618446111679077, -1.6954957246780396, 1.1220570802688599, -1.37890625, 0.627197265625, 0.40283203125, 0, 
118, 1007730517, 0.5014126300811768, -0.5080235004425049, -0.6018728017807007, -0.3581159710884094, 9.6939115524292, -0.7048612833023071, -2.4819564819335938, 3.5906283855438232, -1.8043560981750488, 1.1721073389053345, -1.379638671875, 0.625244140625, 0.40234375, 0, 
119, 1007738850, 0.5014030337333679, -0.5080159902572632, -0.6018944978713989, -0.35810333490371704, 9.657809257507324, -0.7183469533920288, -2.456249713897705, 3.75878643989563, -1.5937817096710205, 1.2395496368408203, -1.37841796875, 0.628662109375, 0.4091796875, 0, 
120, 1007747183, 0.5014143586158752, -0.5079965591430664, -0.6019107103347778, -0.3580876588821411, 9.677672386169434, -0.7429594993591309, -2.4367406368255615, 3.956861734390259, -1.3756766319274902, 1.2438786029815674, -1.381591796875, 0.626708984375, 0.40673828125, 0, 
121, 1007755516, 0.5014151334762573, -0.5079818964004517, -0.6019253730773926, -0.3580828607082367, 9.668752670288086, -0.7469558715820312, -2.4318625926971436, 3.778662919998169, -1.369221806526184, 1.2258204221725464, -1.380859375, 0.625, 0.408203125, 0, 
122, 1007763849, 0.5014145374298096, -0.5079951882362366, -0.6019163727760315, -0.35808005928993225, 9.674304962158203, -0.7341210246086121, -2.4334471225738525, 3.419064998626709, -1.3711940050125122, 1.5427197217941284, -1.386474609375, 0.626708984375, 0.40576171875, 0, 
123, 1007772182, 0.5014123320579529, -0.508010983467102, -0.6019046902656555, -0.35808029770851135, 9.640979766845703, -0.7256160378456116, -2.44484281539917, 3.374803304672241, -1.3280340433120728, 1.6088556051254272, -1.384033203125, 0.62744140625, 0.404296875, 0, 
124, 1007780515, 0.5014113783836365, -0.508022665977478, -0.6019070744514465, -0.3580608367919922, 9.660395622253418, -0.70428866147995, -2.4983787536621094, 3.6206490993499756, -1.5606882572174072, 1.5641334056854248, -1.376953125, 0.629638671875, 0.40478515625, 0, 
125, 1007788848, 0.5014184713363647, -0.5080240368843079, -0.6019057631492615, -0.35805124044418335, 9.661885261535645, -0.7105163931846619, -2.4819865226745605, 3.678332567214966, -1.320170521736145, 1.5315519571304321, -1.380126953125, 0.632568359375, 0.4091796875, 0, 
126, 1007797181, 0.501422643661499, -0.5080366134643555, -0.6018811464309692, -0.3580688536167145, 9.676008224487305, -0.7120757699012756, -2.4652884006500244, 3.2114102840423584, -1.0771681070327759, 1.5287086963653564, -1.3828125, 0.626708984375, 0.406982421875, 0, 
127, 1007805514, 0.5014204978942871, -0.5080530047416687, -0.601851224899292, -0.358099102973938, 9.641478538513184, -0.6934584975242615, -2.4243991374969482, 3.0428946018218994, -0.9951515197753906, 1.5361369848251343, -1.383544921875, 0.626220703125, 0.407470703125, 0, 
128, 1007813847, 0.5014023780822754, -0.5080757737159729, -0.6018314361572266, -0.3581251800060272, 9.670269966125488, -0.7202991247177124, -2.400662422180176, 2.938131809234619, -1.2875378131866455, 1.4108833074569702, -1.380859375, 0.62939453125, 0.407958984375, 0, 
129, 1007822180, 0.5013651847839355, -0.5081180334091187, -0.6018270254135132, -0.35812488198280334, 9.677677154541016, -0.7255097031593323, -2.3945248126983643, 2.9902567863464355, -1.801000714302063, 1.6105461120605469, -1.381591796875, 0.6279296875, 0.40625, 0, 
130, 1007830513, 0.5013524889945984, -0.508132815361023, -0.6018452048301697, -0.3580913245677948, 9.685190200805664, -0.6653494238853455, -2.463474988937378, 3.7117459774017334, -1.8804947137832642, 1.5173488855361938, -1.385986328125, 0.628173828125, 0.411376953125, 0, 
131, 1007838846, 0.5013819932937622, -0.5080955028533936, -0.6018915176391602, -0.35802486538887024, 9.681722640991211, -0.7115116715431213, -2.5489654541015625, 4.798698902130127, -1.6708805561065674, 1.3819905519485474, -1.380859375, 0.63037109375, 0.405517578125, 0, 
132, 1007847179, 0.5014207363128662, -0.5080734491348267, -0.6019126772880554, -0.3579663336277008, 9.712809562683105, -0.7213427424430847, -2.4816763401031494, 4.546245098114014, -1.4678877592086792, 1.617769479751587, -1.38134765625, 0.633056640625, 0.406005859375, 0, 
133, 1007855512, 0.5014387965202332, -0.5080721974372864, -0.6019161939620972, -0.3579370081424713, 9.660759925842285, -0.7332108020782471, -2.433627128601074, 3.9606525897979736, -1.387997031211853, 1.6652840375900269, -1.377685546875, 0.62744140625, 0.4111328125, 0, 
134, 1007863845, 0.5014572739601135, -0.5080832839012146, -0.601900041103363, -0.3579225540161133, 9.674487113952637, -0.741470456123352, -2.449824094772339, 3.628692150115967, -1.232723593711853, 1.748786449432373, -1.381591796875, 0.6279296875, 0.40625, 0, 
135, 1007872178, 0.5014683604240417, -0.5080986618995667, -0.6018936038017273, -0.35789576172828674, 9.643350601196289, -0.7486563920974731, -2.4537570476531982, 3.719878673553467, -1.44137704372406, 1.8230931758880615, -1.3828125, 0.62548828125, 0.408203125, 0, 
136, 1007880511, 0.5014876127243042, -0.50810307264328, -0.6019043922424316, -0.3578442931175232, 9.646036148071289, -0.7206146121025085, -2.4586124420166016, 4.1205620765686035, -1.6389141082763672, 1.764667272567749, -1.382080078125, 0.626708984375, 0.405517578125, 0, 
137, 1007888844, 0.5015277862548828, -0.5080875754356384, -0.6019209027290344, -0.3577823340892792, 9.669950485229492, -0.7152267098426819, -2.4920942783355713, 4.5457587242126465, -1.4531852006912231, 1.7923816442489624, -1.38134765625, 0.6328125, 0.401611328125, 0, 
138, 1007897177, 0.5015717148780823, -0.5080732703208923, -0.6019298434257507, -0.35772600769996643, 9.665136337280273, -0.709682285785675, -2.489044427871704, 4.449372291564941, -1.3647394180297852, 1.776193618774414, -1.37646484375, 0.62744140625, 0.412353515625, 0, 
139, 1007905510, 0.5016120076179504, -0.5080588459968567, -0.6019308567047119, -0.35768821835517883, 9.678547859191895, -0.7117244601249695, -2.4681310653686523, 4.267511367797852, -1.1806241273880005, 1.7422548532485962, -1.380859375, 0.6298828125, 0.404296875, 0, 
140, 1007913843, 0.5016340613365173, -0.5080670118331909, -0.6019231677055359, -0.35765883326530457, 9.674871444702148, -0.704644501209259, -2.450031280517578, 3.8391387462615967, -1.352956771850586, 1.786055088043213, -1.380859375, 0.633544921875, 0.40478515625, 0, 
141, 1007922176, 0.5016385316848755, -0.5080864429473877, -0.6019223928451538, -0.35762643814086914, 9.66825008392334, -0.7200029492378235, -2.460411548614502, 3.7277421951293945, -1.5937050580978394, 1.82109534740448, -1.38134765625, 0.630615234375, 0.40673828125, 0, 
142, 1007930509, 0.5016360282897949, -0.5081177353858948, -0.6019250750541687, -0.35758084058761597, 9.704615592956543, -0.7298703193664551, -2.447279453277588, 3.6924455165863037, -1.854867696762085, 1.89622163772583, -1.38134765625, 0.630615234375, 0.40869140625, 0, 
143, 1007938842, 0.5016495585441589, -0.5081356763839722, -0.6019231677055359, -0.35753944516181946, 9.711023330688477, -0.7294502258300781, -2.5042049884796143, 3.8728978633880615, -1.5662977695465088, 1.9237315654754639, -1.37841796875, 0.629150390625, 0.4072265625, 0, 
144, 1007947175, 0.5016894340515137, -0.5081322193145752, -0.6019148826599121, -0.3575023114681244, 9.673015594482422, -0.7366348505020142, -2.462027072906494, 4.105091094970703, -1.1974271535873413, 1.83597731590271, -1.37841796875, 0.626708984375, 0.406005859375, 0, 
145, 1007955508, 0.5017151832580566, -0.508141040802002, -0.6019044518470764, -0.35747140645980835, 9.653084754943848, -0.7356333136558533, -2.4827029705047607, 3.883143901824951, -1.2894078493118286, 1.8957096338272095, -1.382080078125, 0.6279296875, 0.404296875, 0, 
146, 1007963841, 0.5017187595367432, -0.5081833004951477, -0.6018794775009155, -0.35744842886924744, 9.674148559570312, -0.7211897373199463, -2.425436019897461, 3.336561441421509, -1.5092291831970215, 2.054159164428711, -1.380126953125, 0.63427734375, 0.4072265625, 0, 
147, 1007972174, 0.5017123222351074, -0.5082288384437561, -0.6018505692481995, -0.3574411869049072, 9.666948318481445, -0.6885907053947449, -2.4788448810577393, 3.1236045360565186, -1.4417099952697754, 2.0077459812164307, -1.38037109375, 0.62353515625, 0.40673828125, 0, 
148, 1007980507, 0.501728892326355, -0.5082554221153259, -0.6018213033676147, -0.3574293255805969, 9.662402153015137, -0.665813684463501, -2.438398599624634, 3.4206528663635254, -1.2168937921524048, 1.9419175386428833, -1.38134765625, 0.63037109375, 0.405517578125, 0, 
149, 1007988840, 0.5017349720001221, -0.5082793235778809, -0.6018018126487732, -0.35741937160491943, 9.664233207702637, -0.6889059543609619, -2.481318235397339, 3.4255969524383545, -1.3154062032699585, 1.8428674936294556, -1.384521484375, 0.631103515625, 0.408203125, 0, 
150, 1007997173, 0.5017520189285278, -0.5083085894584656, -0.6017701625823975, -0.35740718245506287, 9.66689682006836, -0.7267084717750549, -2.458503007888794, 3.3980612754821777, -1.2127187252044678, 1.985154390335083, -1.380126953125, 0.629638671875, 0.40234375, 0, 
151, 1008005506, 0.5017592310905457, -0.5083367824554443, -0.6017537713050842, -0.3573847711086273, 9.68173885345459, -0.7475221753120422, -2.452690601348877, 3.519498109817505, -1.437535047531128, 1.9489872455596924, -1.380859375, 0.6298828125, 0.40869140625, 0, 
152, 1008013839, 0.5017655491828918, -0.50835782289505, -0.6017490029335022, -0.3573540449142456, 9.684452056884766, -0.7720412015914917, -2.46889328956604, 3.664167642593384, -1.5752371549606323, 1.8047535419464111, -1.384521484375, 0.6298828125, 0.40673828125, 0, 
153, 1008022172, 0.5017982721328735, -0.5083589553833008, -0.6017438769340515, -0.35731491446495056, 9.694330215454102, -0.7220746278762817, -2.4733381271362305, 4.080987930297852, -1.2875124216079712, 1.8847979307174683, -1.3828125, 0.626220703125, 0.40869140625, 0, 
154, 1008030505, 0.5018614530563354, -0.5083356499671936, -0.6017406582832336, -0.35726481676101685, 9.67440414428711, -0.7296623587608337, -2.43491530418396, 4.536332607269287, -1.0336240530014038, 1.840126872062683, -1.382080078125, 0.62841796875, 0.40234375, 0, 
155, 1008038838, 0.5019315481185913, -0.5083078742027283, -0.6017343401908875, -0.3572165369987488, 9.638504981994629, -0.7438847422599792, -2.4571571350097656, 4.607053279876709, -0.8909783363342285, 1.9039314985275269, -1.381591796875, 0.6298828125, 0.407470703125, 0, 
156, 1008047171, 0.5019774436950684, -0.5083054304122925, -0.6017209887504578, -0.3571781814098358, 9.634733200073242, -0.7678648829460144, -2.4690213203430176, 4.124660491943359, -1.1272696256637573, 1.9161752462387085, -1.380126953125, 0.63037109375, 0.40234375, 0, 
157, 1008055504, 0.5019941926002502, -0.5083292126655579, -0.6016972661018372, -0.35716062784194946, 9.641519546508789, -0.7419601678848267, -2.4119887351989746, 3.54083514213562, -1.2506535053253174, 1.9765225648880005, -1.384033203125, 0.63037109375, 0.405029296875, 0, 
158, 1008063837, 0.5020126700401306, -0.5083596110343933, -0.6016651391983032, -0.3571454882621765, 9.65950870513916, -0.7409121990203857, -2.4593138694763184, 3.421395778656006, -1.2232460975646973, 2.025317430496216, -1.379638671875, 0.63037109375, 0.40478515625, 0, 
159, 1008072170, 0.5020228028297424, -0.5083964467048645, -0.601632297039032, -0.35713452100753784, 9.655190467834473, -0.7148731350898743, -2.4375829696655273, 3.3100507259368896, -1.2613345384597778, 2.071704864501953, -1.377685546875, 0.63232421875, 0.404052734375, 0, 
160, 1008080503, 0.5020268559455872, -0.5084418654441833, -0.6015865802764893, -0.35714098811149597, 9.672080993652344, -0.7407658100128174, -2.4978344440460205, 2.972864866256714, -1.1707370281219482, 2.0233452320098877, -1.380859375, 0.633544921875, 0.407958984375, 0, 
161, 1008088836, 0.5020178556442261, -0.5085011124610901, -0.601534903049469, -0.3571564555168152, 9.676358222961426, -0.7346028685569763, -2.4561240673065186, 2.7091410160064697, -1.214972972869873, 2.111253261566162, -1.384521484375, 0.631103515625, 0.404296875, 0, 
162, 1008097169, 0.5020122528076172, -0.5085616707801819, -0.6014809012413025, -0.35716909170150757, 9.68661117553711, -0.7615044116973877, -2.455439567565918, 2.706092596054077, -1.2263967990875244, 2.118169069290161, -1.38330078125, 0.633544921875, 0.403564453125, 0, 
163, 1008105502, 0.5020167827606201, -0.5086145997047424, -0.6014214158058167, -0.35718750953674316, 9.665639877319336, -0.7322477102279663, -2.4637258052825928, 2.7772233486175537, -0.9962784051895142, 2.1604838371276855, -1.379638671875, 0.631591796875, 0.403564453125, 0, 
164, 1008113835, 0.5020209550857544, -0.5086689591407776, -0.6013667583465576, -0.35719621181488037, 9.674616813659668, -0.7345525622367859, -2.4455201625823975, 2.8482260704040527, -1.1369774341583252, 2.146165370941162, -1.377685546875, 0.62841796875, 0.40087890625, 0, 
165, 1008122168, 0.5020163059234619, -0.5087171196937561, -0.6013134121894836, -0.35722386837005615, 9.691378593444824, -0.755064845085144, -2.4605813026428223, 2.7202577590942383, -1.0277584791183472, 1.9691712856292725, -1.38134765625, 0.633544921875, 0.403564453125, 0, 
166, 1008130501, 0.5020221471786499, -0.5087616443634033, -0.6012535691261292, -0.35725289583206177, 9.68893051147461, -0.746461033821106, -2.4368643760681152, 2.7340381145477295, -0.896178126335144, 1.9690945148468018, -1.38134765625, 0.63037109375, 0.40478515625, 0, 
167, 1008138834, 0.5020091533660889, -0.5088155269622803, -0.6011984348297119, -0.3572872579097748, 9.66344165802002, -0.7423845529556274, -2.4523227214813232, 2.543954849243164, -1.066922664642334, 1.9396123886108398, -1.381591796875, 0.627197265625, 0.40234375, 0, 
168, 1008147167, 0.5019955635070801, -0.5088732838630676, -0.6011440753936768, -0.3573155701160431, 9.673078536987305, -0.7416472434997559, -2.45731258392334, 2.5417263507843018, -1.1641799211502075, 1.9501142501831055, -1.380615234375, 0.634765625, 0.406494140625, 0, 
169, 1008155500, 0.5019899606704712, -0.5089156627655029, -0.6010996699333191, -0.35733774304389954, 9.668364524841309, -0.7679622173309326, -2.4957661628723145, 2.830834150314331, -1.1081104278564453, 1.8910222053527832, -1.38330078125, 0.63232421875, 0.407470703125, 0, 
170, 1008163833, 0.5019961595535278, -0.508935272693634, -0.6010801792144775, -0.35733404755592346, 9.666427612304688, -0.8028832077980042, -2.4447057247161865, 3.3776209354400635, -1.2787009477615356, 1.7084181308746338, -1.380126953125, 0.6298828125, 0.405517578125, 0, 
171, 1008172166, 0.5020126700401306, -0.5089513659477234, -0.6010700464248657, -0.3573049008846283, 9.67025089263916, -0.8336883187294006, -2.4783754348754883, 3.762270212173462, -1.3909170627593994, 1.8939423561096191, -1.38525390625, 0.6318359375, 0.40625, 0, 
172, 1008180499, 0.5020574331283569, -0.5089426636695862, -0.6010751128196716, -0.3572460114955902, 9.66745376586914, -0.8556656837463379, -2.475560426712036, 4.41981315612793, -1.3771367073059082, 1.873041033744812, -1.377685546875, 0.633544921875, 0.404541015625, 0, 
173, 1008188832, 0.5021197199821472, -0.5088936686515808, -0.6010985374450684, -0.3571888208389282, 9.644684791564941, -0.8078592419624329, -2.460766553878784, 4.9225945472717285, -1.1209940910339355, 1.5419000387191772, -1.38134765625, 0.630615234375, 0.407470703125, 0, 
174, 1008197165, 0.502189040184021, -0.508844792842865, -0.6011207103729248, -0.3571235239505768, 9.659428596496582, -0.8097180128097534, -2.5017638206481934, 5.006712436676025, -1.1385912895202637, 1.5867249965667725, -1.38134765625, 0.631103515625, 0.4091796875, 0, 
175, 1008205498, 0.5022398233413696, -0.5088070631027222, -0.601140022277832, -0.3570733070373535, 9.655274391174316, -0.7631529569625854, -2.453028678894043, 4.679515361785889, -1.193738579750061, 1.5608545541763306, -1.38330078125, 0.633056640625, 0.405517578125, 0, 
176, 1008213831, 0.5022775530815125, -0.508787214756012, -0.6011505722999573, -0.35703086853027344, 9.63392448425293, -0.7765325903892517, -2.413886547088623, 4.337156295776367, -1.3031114339828491, 1.5940251350402832, -1.37646484375, 0.633544921875, 0.40966796875, 0, 
177, 1008222164, 0.502291738986969, -0.5087830424308777, -0.601157009601593, -0.3570059537887573, 9.684346199035645, -0.7695847749710083, -2.4099154472351074, 3.94648814201355, -1.3954252004623413, 1.570716142654419, -1.3837890625, 0.63427734375, 0.405517578125, 0, 
178, 1008230497, 0.5023104548454285, -0.5087770223617554, -0.6011584401130676, -0.3569856584072113, 9.674498558044434, -0.7486923336982727, -2.4590680599212646, 3.881965398788452, -1.310949444770813, 1.5263522863388062, -1.37841796875, 0.629638671875, 0.403564453125, 0, 
179, 1008238830, 0.502333402633667, -0.5087709426879883, -0.6011619567871094, -0.35695621371269226, 9.656975746154785, -0.7122334837913513, -2.45391583442688, 4.040158748626709, -1.326830267906189, 1.646201491355896, -1.378173828125, 0.63232421875, 0.4033203125, 0, 
180, 1008247163, 0.502349317073822, -0.5087845325469971, -0.6011583805084229, -0.35692042112350464, 9.675734519958496, -0.7125810980796814, -2.4457712173461914, 3.831198215484619, -1.503875732421875, 1.8159980773925781, -1.379638671875, 0.63232421875, 0.406494140625, 0, 
181, 1008255496, 0.5023537874221802, -0.5088100433349609, -0.6011465787887573, -0.3568975031375885, 9.699392318725586, -0.7310766577720642, -2.4587271213531494, 3.551285743713379, -1.4809510707855225, 1.8824927806854248, -1.380615234375, 0.634765625, 0.401611328125, 0, 
182, 1008263829, 0.5023742318153381, -0.5088412165641785, -0.6011239290237427, -0.3568626642227173, 9.712895393371582, -0.7571966648101807, -2.4424662590026855, 3.6386048793792725, -1.4142004251480103, 2.112483024597168, -1.377685546875, 0.63232421875, 0.406005859375, 0, 
183, 1008272162, 0.502397358417511, -0.5088604092597961, -0.6011080741882324, -0.3568292260169983, 9.684513092041016, -0.747657299041748, -2.441506862640381, 3.795133113861084, -1.3420708179473877, 2.0242676734924316, -1.380859375, 0.63037109375, 0.406005859375, 0, 
184, 1008280495, 0.5024351477622986, -0.5088716149330139, -0.6010867953300476, -0.3567959666252136, 9.69282341003418, -0.7615707516670227, -2.4623568058013916, 3.8911354541778564, -1.1719409227371216, 2.009974718093872, -1.37451171875, 0.630859375, 0.4033203125, 0, 
185, 1008288828, 0.5024619698524475, -0.5088895559310913, -0.6010596752166748, -0.3567783236503601, 9.679858207702637, -0.7692621946334839, -2.4561893939971924, 3.636171579360962, -1.1144626140594482, 1.9997804164886475, -1.378173828125, 0.634033203125, 0.404541015625, 0, 
186, 1008297161, 0.5024918913841248, -0.5089115500450134, -0.6010252237319946, -0.35676291584968567, 9.6415376663208, -0.7706351280212402, -2.43843412399292, 3.551823616027832, -1.0733773708343506, 2.0306198596954346, -1.37646484375, 0.630126953125, 0.40087890625, 0, 
187, 1008305494, 0.5025006532669067, -0.5089393258094788, -0.6010030508041382, -0.35674864053726196, 9.629647254943848, -0.7358289957046509, -2.4131526947021484, 3.460073232650757, -1.3261128664016724, 1.9305448532104492, -1.37890625, 0.6328125, 0.4052734375, 0, 
188, 1008313827, 0.5024924278259277, -0.5089862942695618, -0.6009788513183594, -0.356734037399292, 9.662217140197754, -0.7692750692367554, -2.487785816192627, 3.155545473098755, -1.5760310888290405, 1.9713737964630127, -1.38134765625, 0.6328125, 0.40234375, 0, 
189, 1008322160, 0.5024942755699158, -0.509019136428833, -0.6009539365768433, -0.3567262291908264, 9.639902114868164, -0.7504079341888428, -2.466606616973877, 3.301290273666382, -1.3423010110855103, 1.9172507524490356, -1.37890625, 0.635986328125, 0.402587890625, 0, 
190, 1008330493, 0.5025036334991455, -0.5090534090995789, -0.6009233593940735, -0.35671573877334595, 9.641565322875977, -0.7383233308792114, -2.4510021209716797, 3.29929256439209, -1.2955294847488403, 1.9686075448989868, -1.377685546875, 0.633056640625, 0.408447265625, 0, 
191, 1008338826, 0.5025082230567932, -0.50907963514328, -0.6009066700935364, -0.3566998839378357, 9.674773216247559, -0.7932755351066589, -2.3988454341888428, 3.459176778793335, -1.3996002674102783, 1.87434720993042, -1.382568359375, 0.6337890625, 0.4091796875, 0, 
192, 1008347159, 0.5025131106376648, -0.5091016292572021, -0.6008961796760559, -0.35667940974235535, 9.688316345214844, -0.7835379242897034, -2.449209690093994, 3.5341498851776123, -1.4811303615570068, 1.7754508256912231, -1.38330078125, 0.63427734375, 0.404052734375, 0, 
193, 1008355492, 0.5025288462638855, -0.5091104507446289, -0.6008861660957336, -0.3566613793373108, 9.680217742919922, -0.7846124172210693, -2.424672842025757, 3.72123646736145, -1.2857450246810913, 1.7507331371307373, -1.380126953125, 0.633544921875, 0.404052734375, 0, 
194, 1008363825, 0.5025503039360046, -0.5091158151626587, -0.6008685231208801, -0.356653094291687, 9.680350303649902, -0.8041622042655945, -2.3657572269439697, 3.629793167114258, -1.1280893087387085, 1.6845968961715698, -1.382568359375, 0.6337890625, 0.4072265625, 0, 
195, 1008372158, 0.5025418400764465, -0.5091301202774048, -0.6008630990982056, -0.3566538989543915, 9.670673370361328, -0.7696471214294434, -2.3799848556518555, 3.362175703048706, -1.4099994897842407, 1.5217159986495972, -1.38134765625, 0.6337890625, 0.410400390625, 0, 
196, 1008380491, 0.5025299191474915, -0.509158194065094, -0.6008536219596863, -0.35664644837379456, 9.647064208984375, -0.764706015586853, -2.4102978706359863, 3.2719619274139404, -1.5657851696014404, 1.6453814506530762, -1.379638671875, 0.63232421875, 0.4052734375, 0, 
197, 1008388824, 0.5025283098220825, -0.5091636776924133, -0.6008546352386475, -0.3566393554210663, 9.665085792541504, -0.7738585472106934, -2.4200568199157715, 3.5762593746185303, -1.4109985828399658, 1.4871879816055298, -1.384521484375, 0.631591796875, 0.40234375, 0, 
198, 1008397157, 0.5025447010993958, -0.5091546773910522, -0.6008707284927368, -0.35660186409950256, 9.632102012634277, -0.812110185623169, -2.455967903137207, 4.101838111877441, -1.5366621017456055, 1.5078589916229248, -1.380126953125, 0.633544921875, 0.40478515625, 0, 
199, 1008405490, 0.5025708675384521, -0.5091452598571777, -0.6008844971656799, -0.3565550744533539, 9.626423835754395, -0.8267182111740112, -2.413912057876587, 4.253141403198242, -1.4737792015075684, 1.6885417699813843, -1.376953125, 0.634033203125, 0.4033203125, 0, 
200, 1008413823, 0.502605676651001, -0.509131669998169, -0.600895345211029, -0.35650715231895447, 9.659415245056152, -0.8294183611869812, -2.4324758052825928, 4.322939872741699, -1.3990366458892822, 1.6678197383880615, -1.37890625, 0.634033203125, 0.40283203125, 0, 
201, 1008422156, 0.5026299953460693, -0.5091131329536438, -0.6009156703948975, -0.35646525025367737, 9.672357559204102, -0.8277173638343811, -2.393399477005005, 4.305189609527588, -1.4572322368621826, 1.5225869417190552, -1.378173828125, 0.63671875, 0.404541015625, 0, 
202, 1008430489, 0.50264972448349, -0.5091045498847961, -0.6009270548820496, -0.35643061995506287, 9.641485214233398, -0.814893901348114, -2.388432264328003, 4.0750203132629395, -1.4578726291656494, 1.53898024559021, -1.376220703125, 0.636474609375, 0.402587890625, 0, 
203, 1008438822, 0.5026620626449585, -0.5091023445129395, -0.6009339690208435, -0.35640451312065125, 9.684712409973145, -0.7938297390937805, -2.387251853942871, 3.906606674194336, -1.4325144290924072, 1.5817047357559204, -1.380126953125, 0.635498046875, 0.406005859375, 0, 
204, 1008447155, 0.5026610493659973, -0.5091097354888916, -0.6009386777877808, -0.3563874363899231, 9.696406364440918, -0.8020628094673157, -2.4153475761413574, 3.6415247917175293, -1.5398125648498535, 1.494513750076294, -1.380126953125, 0.633544921875, 0.4072265625, 0, 
205, 1008455488, 0.5026556849479675, -0.509118914604187, -0.6009462475776672, -0.3563690781593323, 9.697179794311523, -0.7970205545425415, -2.432654857635498, 3.6409614086151123, -1.5836129188537598, 1.5332937240600586, -1.378173828125, 0.636474609375, 0.402099609375, 0, 
206, 1008463821, 0.5026713609695435, -0.5091332793235779, -0.6009382605552673, -0.3563400208950043, 9.671183586120605, -0.7737112641334534, -2.4385786056518555, 3.74574875831604, -1.4317972660064697, 1.8064438104629517, -1.375, 0.634765625, 0.405029296875, 0, 
207, 1008472154, 0.5026772618293762, -0.5091490745544434, -0.6009240746498108, -0.3563329875469208, 9.683222770690918, -0.7705140113830566, -2.384002447128296, 3.4765686988830566, -1.2940181493759155, 1.7192785739898682, -1.376953125, 0.63427734375, 0.40771484375, 0, 
208, 1008480487, 0.5026918053627014, -0.5091631412506104, -0.6009067893028259, -0.3563214838504791, 9.660022735595703, -0.7775724530220032, -2.4296956062316895, 3.550004720687866, -1.253522276878357, 1.7411531209945679, -1.386962890625, 0.635009765625, 0.405517578125, 0, 
209, 1008488820, 0.5027015209197998, -0.5091702342033386, -0.6008923649787903, -0.3563220202922821, 9.681344032287598, -0.7796633243560791, -2.4032909870147705, 3.492295742034912, -1.1641796827316284, 1.61359441280365, -1.37890625, 0.63671875, 0.4052734375, 0, 
210, 1008497153, 0.5027194619178772, -0.5091694593429565, -0.6008784174919128, -0.3563213646411896, 9.683267593383789, -0.8501484394073486, -2.4091477394104004, 3.6033337116241455, -1.0994012355804443, 1.5369564294815063, -1.383056640625, 0.640625, 0.406494140625, 0, 
211, 1008505486, 0.5027351975440979, -0.5091739892959595, -0.600864589214325, -0.3563159704208374, 9.678263664245605, -0.8723874092102051, -2.365264654159546, 3.6160895824432373, -1.1474792957305908, 1.6594949960708618, -1.380126953125, 0.63232421875, 0.403564453125, 0, 
212, 1008513819, 0.5027672648429871, -0.5091601610183716, -0.6008711457252502, -0.3562792241573334, 9.666049003601074, -0.8481429219245911, -2.405092477798462, 4.190834999084473, -1.3128576278686523, 1.6044117212295532, -1.38330078125, 0.63427734375, 0.4072265625, 0, 
213, 1008522152, 0.5028061866760254, -0.5091282725334167, -0.6008954048156738, -0.35622918605804443, 9.667476654052734, -0.8546146154403687, -2.430778741836548, 4.581849098205566, -1.3558255434036255, 1.512700080871582, -1.378173828125, 0.635986328125, 0.4033203125, 0, 
214, 1008530485, 0.5028353333473206, -0.5091069936752319, -0.6009163856506348, -0.3561827838420868, 9.673623085021973, -0.8416305184364319, -2.459136962890625, 4.374143123626709, -1.467657446861267, 1.4963324069976807, -1.382080078125, 0.63427734375, 0.404052734375, 0, 
215, 1008538818, 0.502854585647583, -0.5090901255607605, -0.6009378433227539, -0.3561437129974365, 9.6875581741333, -0.826197624206543, -2.4252336025238037, 4.25173282623291, -1.4948084354400635, 1.4820398092269897, -1.380126953125, 0.63720703125, 0.402099609375, 0, 
216, 1008547151, 0.5028810501098633, -0.5090668201446533, -0.6009609699249268, -0.35610058903694153, 9.647366523742676, -0.8160604238510132, -2.4507248401641846, 4.351859092712402, -1.4716018438339233, 1.4273021221160889, -1.38134765625, 0.63525390625, 0.39892578125, 0, 
217, 1008555484, 0.5029125809669495, -0.5090370774269104, -0.6009891033172607, -0.3560512065887451, 9.66260814666748, -0.783260703086853, -2.4597020149230957, 4.536742210388184, -1.4486260414123535, 1.4608054161071777, -1.375732421875, 0.635986328125, 0.40185546875, 0, 
218, 1008563817, 0.5029324889183044, -0.5090311765670776, -0.6010090708732605, -0.35599780082702637, 9.677384376525879, -0.771362841129303, -2.3719234466552734, 4.255523681640625, -1.661480188369751, 1.6313450336456299, -1.380126953125, 0.638427734375, 0.402099609375, 0, 
219, 1008572150, 0.5029634833335876, -0.5090035200119019, -0.6010309457778931, -0.3559563457965851, 9.669418334960938, -0.7718820571899414, -2.442125082015991, 4.4233479499816895, -1.364764928817749, 1.4636743068695068, -1.37548828125, 0.6396484375, 0.39990234375, 0, 
220, 1008580483, 0.503006100654602, -0.5089507699012756, -0.6010684370994568, -0.35590827465057373, 9.672715187072754, -0.7939131855964661, -2.4600038528442383, 4.778501987457275, -1.3281235694885254, 1.1958132982254028, -1.37939453125, 0.637939453125, 0.404541015625, 0, 
221, 1008588816, 0.5030388832092285, -0.5089149475097656, -0.6011031866073608, -0.3558546304702759, 9.683045387268066, -0.7746381759643555, -2.413379192352295, 4.632167816162109, -1.4819114208221436, 1.4038008451461792, -1.38134765625, 0.634765625, 0.40478515625, 0, 
222, 1008597149, 0.5030754208564758, -0.5088919401168823, -0.6011139154434204, -0.3558177649974823, 9.690413475036621, -0.7828798890113831, -2.401506185531616, 4.306009292602539, -1.261898159980774, 1.5230225324630737, -1.37890625, 0.635498046875, 0.408447265625, 0, 
223, 1008605482, 0.5031151175498962, -0.5088575482368469, -0.6011274456977844, -0.35578808188438416, 9.658232688903809, -0.7701800465583801, -2.364262104034424, 4.3873090744018555, -1.1187403202056885, 1.4276607036590576, -1.38330078125, 0.63671875, 0.40283203125, 0, 
224, 1008613815, 0.5031545758247375, -0.5088230967521667, -0.6011468172073364, -0.3557489514350891, 9.654694557189941, -0.759157657623291, -2.4116108417510986, 4.469018936157227, -1.2551872730255127, 1.3980250358581543, -1.38134765625, 0.635009765625, 0.4072265625, 0, 
225, 1008622148, 0.5031831860542297, -0.5087875127792358, -0.6011787056922913, -0.3557054102420807, 9.669038772583008, -0.7565534114837646, -2.45100736618042, 4.529775142669678, -1.4294922351837158, 1.328815221786499, -1.380615234375, 0.637451171875, 0.406494140625, 0, 
226, 1008630481, 0.5032206773757935, -0.5087478160858154, -0.6012108325958252, -0.3556547164916992, 9.678712844848633, -0.7231314182281494, -2.4475226402282715, 4.648343086242676, -1.4160188436508179, 1.3346552848815918, -1.380615234375, 0.638427734375, 0.4013671875, 0, 
227, 1008638814, 0.5032286643981934, -0.508735179901123, -0.6012352108955383, -0.35562023520469666, 9.647684097290039, -0.7487605214118958, -2.427903413772583, 4.110854625701904, -1.5970091819763184, 1.4108065366744995, -1.37744140625, 0.63720703125, 0.40185546875, 0, 
228, 1008647147, 0.5032294392585754, -0.5087391138076782, -0.601241946220398, -0.35560211539268494, 9.675533294677734, -0.7355250716209412, -2.493604898452759, 3.6965696811676025, -1.5286191701889038, 1.4686434268951416, -1.377685546875, 0.634765625, 0.402099609375, 0, 
229, 1008655480, 0.5032210946083069, -0.5087457895278931, -0.601250171661377, -0.3555905520915985, 9.664080619812012, -0.7349697947502136, -2.492814302444458, 3.604358196258545, -1.555719017982483, 1.4403396844863892, -1.386962890625, 0.635498046875, 0.40625, 0, 
230, 1008663813, 0.5032211542129517, -0.5087496042251587, -0.6012506484985352, -0.3555840253829956, 9.667073249816895, -0.7680069804191589, -2.4891810417175293, 3.565347671508789, -1.4090774059295654, 1.4275580644607544, -1.378173828125, 0.634765625, 0.402587890625, 0, 
231, 1008672146, 0.5032137036323547, -0.5087594389915466, -0.6012449264526367, -0.355590283870697, 9.691088676452637, -0.7946966290473938, -2.493793249130249, 3.3654541969299316, -1.3416863679885864, 1.44815194606781, -1.380615234375, 0.63916015625, 0.404052734375, 0, 
232, 1008680479, 0.5031957626342773, -0.5087909698486328, -0.6012262105941772, -0.35560235381126404, 9.704251289367676, -0.8113808631896973, -2.4453423023223877, 2.9984278678894043, -1.430823802947998, 1.5746350288391113, -1.382568359375, 0.631591796875, 0.39990234375, 0, 
233, 1008688812, 0.5031570196151733, -0.5088421702384949, -0.6011999845504761, -0.35562804341316223, 9.697508811950684, -0.8033537864685059, -2.3887712955474854, 2.601125717163086, -1.5238549709320068, 1.6486347913742065, -1.375, 0.63720703125, 0.402587890625, 0, 
234, 1008697145, 0.5031238794326782, -0.5088966488838196, -0.6011646389961243, -0.35565683245658875, 9.665339469909668, -0.7817042469978333, -2.394848346710205, 2.5138320922851562, -1.438200831413269, 1.6892075538635254, -1.375732421875, 0.6357421875, 0.398681640625, 0, 
235, 1008705478, 0.5031035542488098, -0.5089332461357117, -0.6011419296264648, -0.35567158460617065, 9.662731170654297, -0.7632113099098206, -2.439211130142212, 2.9379782676696777, -1.4012395143508911, 1.6667438745498657, -1.37744140625, 0.6376953125, 0.4013671875, 0, 
236, 1008713811, 0.5030907392501831, -0.5089600086212158, -0.6011287569999695, -0.3556736707687378, 9.681923866271973, -0.7823171019554138, -2.434598445892334, 3.1789183616638184, -1.47415030002594, 1.5895297527313232, -1.378662109375, 0.636474609375, 0.39892578125, 0, 
237, 1008722144, 0.5030815005302429, -0.5089778900146484, -0.601112961769104, -0.35568779706954956, 9.676276206970215, -0.8086701035499573, -2.450103998184204, 3.1678783893585205, -1.2691596746444702, 1.5267746448516846, -1.380615234375, 0.63671875, 0.404052734375, 0, 
238, 1008730477, 0.5030820965766907, -0.5089916586875916, -0.6010960340499878, -0.35569581389427185, 9.692171096801758, -0.8325329422950745, -2.405045986175537, 3.295552968978882, -1.2323905229568481, 1.5334217548370361, -1.378173828125, 0.636474609375, 0.402099609375, 0, 
239, 1008738810, 0.50309157371521, -0.5089989900588989, -0.601075291633606, -0.3557071387767792, 9.686088562011719, -0.8337521553039551, -2.397324323654175, 3.3853819370269775, -1.049863338470459, 1.5807825326919556, -1.378173828125, 0.634765625, 0.402587890625, 0, 
240, 1008747143, 0.5031086802482605, -0.5090053677558899, -0.6010578274726868, -0.35570335388183594, 9.673174858093262, -0.8563162684440613, -2.4233288764953613, 3.5567924976348877, -1.1380531787872314, 1.6393364667892456, -1.378662109375, 0.637939453125, 0.4052734375, 0, 
241, 1008755476, 0.5031227469444275, -0.5090129375457764, -0.6010425686836243, -0.3556980490684509, 9.658880233764648, -0.8518860340118408, -2.3847601413726807, 3.5782570838928223, -1.1674582958221436, 1.6815232038497925, -1.37744140625, 0.6396484375, 0.403076171875, 0, 
242, 1008763809, 0.5031372308731079, -0.5090218186378479, -0.6010296940803528, -0.3556867241859436, 9.667152404785156, -0.8121464848518372, -2.416806221008301, 3.6056134700775146, -1.2570056915283203, 1.666333794593811, -1.37939453125, 0.63671875, 0.4052734375, 0, 
243, 1008772142, 0.5031671524047852, -0.5090126395225525, -0.6010240912437439, -0.35566720366477966, 9.664012908935547, -0.8253558278083801, -2.462423801422119, 3.96341872215271, -1.1205588579177856, 1.6522718667984009, -1.380126953125, 0.633544921875, 0.40478515625, 0, 
244, 1008780475, 0.5031927227973938, -0.5090116262435913, -0.6010158658027649, -0.3556465208530426, 9.676567077636719, -0.8136597871780396, -2.446354866027832, 3.851766586303711, -1.2138969898223877, 1.6725071668624878, -1.3837890625, 0.638427734375, 0.401611328125, 0, 
245, 1008788808, 0.5032124519348145, -0.5090144276618958, -0.601002037525177, -0.35563769936561584, 9.647513389587402, -0.7825735211372375, -2.448704481124878, 3.686861991882324, -1.1319060325622559, 1.684981346130371, -1.37451171875, 0.63525390625, 0.400634765625, 0, 
246, 1008797141, 0.5032131671905518, -0.5090433359146118, -0.6009851694107056, -0.3556238114833832, 9.685291290283203, -0.8063088655471802, -2.4336323738098145, 3.3729591369628906, -1.4582823514938354, 1.8106187582015991, -1.373779296875, 0.636962890625, 0.400634765625, 0, 
247, 1008805474, 0.5032070279121399, -0.5090720057487488, -0.600965142250061, -0.3556252419948578, 9.666360855102539, -0.7766425609588623, -2.4425902366638184, 3.213202953338623, -1.3571574687957764, 1.7434583902359009, -1.3798828125, 0.6396484375, 0.402099609375, 0, 
248, 1008813807, 0.5031948685646057, -0.5091106295585632, -0.6009455323219299, -0.35562029480934143, 9.664834022521973, -0.7587550282478333, -2.445075035095215, 3.1279847621917725, -1.532409906387329, 1.7861061096191406, -1.376953125, 0.634765625, 0.402587890625, 0, 
249, 1008822140, 0.5031738877296448, -0.5091480016708374, -0.6009294390678406, -0.35562393069267273, 9.668115615844727, -0.7505236864089966, -2.442434787750244, 3.0457887649536133, -1.5335882902145386, 1.6991970539093018, -1.378662109375, 0.638427734375, 0.402587890625, 0, 
250, 1008830473, 0.5031415820121765, -0.5092016458511353, -0.6008984446525574, -0.35564538836479187, 9.659095764160156, -0.7540130615234375, -2.444214344024658, 2.609783411026001, -1.506924033164978, 1.7081878185272217, -1.380615234375, 0.640380859375, 0.404541015625, 0, 
251, 1008838806, 0.5030914545059204, -0.5092535018920898, -0.6008783578872681, -0.35567572712898254, 9.674406051635742, -0.7487152814865112, -2.4541876316070557, 2.5247435569763184, -1.6339446306228638, 1.5166187286376953, -1.37939453125, 0.635498046875, 0.40576171875, 0, 
252, 1008847139, 0.5030474662780762, -0.5093077421188354, -0.6008588075637817, -0.35569337010383606, 9.695727348327637, -0.7454060912132263, -2.4554388523101807, 2.610372304916382, -1.7119146585464478, 1.600889801979065, -1.38134765625, 0.63916015625, 0.40576171875, 0, 
253, 1008855472, 0.503011167049408, -0.509330689907074, -0.6008551120758057, -0.3557182848453522, 9.696487426757812, -0.7756453156471252, -2.4562368392944336, 2.901273250579834, -1.525263786315918, 1.2785859107971191, -1.380126953125, 0.635986328125, 0.4013671875, 0, 
254, 1008863805, 0.5029894709587097, -0.5093366503715515, -0.6008583903312683, -0.3557348847389221, 9.698140144348145, -0.7812201976776123, -2.4426119327545166, 3.2208614349365234, -1.4580004215240479, 1.158634066581726, -1.380615234375, 0.635498046875, 0.406494140625, 0, 
255, 1008872138, 0.5029824376106262, -0.5093314051628113, -0.6008684039115906, -0.35573530197143555, 9.69580078125, -0.788414716720581, -2.429378032684326, 3.5953164100646973, -1.412355899810791, 1.2573513984680176, -1.376220703125, 0.642333984375, 0.403564453125, 0, 
256, 1008880471, 0.5029791593551636, -0.5093249678611755, -0.6008750796318054, -0.35573795437812805, 9.672967910766602, -0.8044489026069641, -2.3777308464050293, 3.5689849853515625, -1.366660237312317, 1.2193912267684937, -1.380615234375, 0.63720703125, 0.40283203125, 0, 
257, 1008888804, 0.5029740333557129, -0.5093199014663696, -0.6008941531181335, -0.3557202219963074, 9.67694091796875, -0.8205204010009766, -2.442850351333618, 3.7967984676361084, -1.5872758626937866, 1.3299936056137085, -1.37744140625, 0.637939453125, 0.40380859375, 0, 
258, 1008897137, 0.5029946565628052, -0.5092860460281372, -0.6009259223937988, -0.3556858003139496, 9.682478904724121, -0.8270688056945801, -2.499103307723999, 4.354215145111084, -1.4681183099746704, 1.1915229558944702, -1.37890625, 0.63232421875, 0.4072265625, 0, 
259, 1008905470, 0.503014326095581, -0.5092461705207825, -0.6009616255760193, -0.355654776096344, 9.678518295288086, -0.8417093753814697, -2.480565071105957, 4.411437511444092, -1.4233959913253784, 1.137169599533081, -1.380126953125, 0.635498046875, 0.404052734375, 0, 
260, 1008913803, 0.5030332803726196, -0.5092189908027649, -0.600979208946228, -0.35563716292381287, 9.648775100708008, -0.8469212651252747, -2.434659242630005, 4.087878704071045, -1.2969640493392944, 1.2204670906066895, -1.37255859375, 0.637939453125, 0.40673828125, 0, 
261, 1008922136, 0.5030398964881897, -0.5092076063156128, -0.6009927988052368, -0.3556213080883026, 9.64558219909668, -0.8307230472564697, -2.462617874145508, 3.8870115280151367, -1.4105374813079834, 1.3613967895507812, -1.376220703125, 0.63525390625, 0.40380859375, 0, 
262, 1008930469, 0.503024160861969, -0.5092285871505737, -0.6009911298751831, -0.35561636090278625, 9.658771514892578, -0.8290513753890991, -2.427063226699829, 3.3124325275421143, -1.5989556312561035, 1.4961017370224, -1.380615234375, 0.634033203125, 0.401611328125, 0, 
263, 1008938802, 0.5030128955841064, -0.509250819683075, -0.6009882688522339, -0.35560497641563416, 9.666692733764648, -0.8130038976669312, -2.4084105491638184, 3.4119691848754883, -1.5783361196517944, 1.6349050998687744, -1.38330078125, 0.635498046875, 0.404052734375, 0, 
264, 1008947135, 0.502994179725647, -0.5092849731445312, -0.6009910702705383, -0.3555777370929718, 9.678436279296875, -0.7820274233818054, -2.408334970474243, 3.407820463180542, -1.8737198114395142, 1.71443772315979, -1.3818359375, 0.63671875, 0.4072265625, 0, 
265, 1008955468, 0.5029860734939575, -0.5093075633049011, -0.6009896993637085, -0.3555591106414795, 9.677889823913574, -0.7639306783676147, -2.454188346862793, 3.5011332035064697, -1.6144013404846191, 1.6908469200134277, -1.374267578125, 0.6376953125, 0.401123046875, 0, 
266, 1008963801, 0.5029706954956055, -0.5093363523483276, -0.6009892225265503, -0.3555404543876648, 9.675806045532227, -0.7664187550544739, -2.454258918762207, 3.3796956539154053, -1.7383739948272705, 1.649070143699646, -1.380126953125, 0.638427734375, 0.402099609375, 0, 
267, 1008972134, 0.5029579401016235, -0.5093604922294617, -0.6009844541549683, -0.3555317521095276, 9.666119575500488, -0.7908283472061157, -2.4274044036865234, 3.354337453842163, -1.5682443380355835, 1.6392340660095215, -1.380126953125, 0.634765625, 0.404052734375, 0, 
268, 1008980467, 0.502953827381134, -0.5093792080879211, -0.6009728312492371, -0.35553038120269775, 9.63203239440918, -0.7871217131614685, -2.4174880981445312, 3.3320276737213135, -1.3968337774276733, 1.579476237297058, -1.376953125, 0.6357421875, 0.400146484375, 0, 
269, 1008988800, 0.5029325485229492, -0.5094075798988342, -0.6009618043899536, -0.35553881525993347, 9.663751602172852, -0.7705712914466858, -2.4406862258911133, 3.0893843173980713, -1.49521803855896, 1.5581907033920288, -1.375, 0.63916015625, 0.40234375, 0, 
270, 1008997133, 0.502921462059021, -0.5094308257102966, -0.6009521484375, -0.35553741455078125, 9.654263496398926, -0.781914234161377, -2.469390630722046, 3.2612807750701904, -1.491760015487671, 1.5680776834487915, -1.37939453125, 0.637939453125, 0.4033203125, 0, 
271, 1009005466, 0.5029106140136719, -0.5094425082206726, -0.6009529232978821, -0.3555346429347992, 9.663250923156738, -0.8209222555160522, -2.455578327178955, 3.4320507049560547, -1.4863041639328003, 1.466312289237976, -1.373779296875, 0.640380859375, 0.403076171875, 0, 
272, 1009013799, 0.5029087066650391, -0.5094490647315979, -0.6009526252746582, -0.3555283546447754, 9.68492317199707, -0.815666913986206, -2.4577677249908447, 3.526183605194092, -1.432591438293457, 1.4443354606628418, -1.380126953125, 0.635986328125, 0.404052734375, 0, 
273, 1009022132, 0.5028916597366333, -0.5094700455665588, -0.6009431481361389, -0.3555386960506439, 9.679915428161621, -0.7964525818824768, -2.4359734058380127, 3.16789174079895, -1.420475721359253, 1.4912863969802856, -1.380126953125, 0.634765625, 0.4072265625, 0, 
274, 1009030465, 0.5028831362724304, -0.5094899535179138, -0.6009243130683899, -0.3555541932582855, 9.672904968261719, -0.8231003284454346, -2.460221529006958, 3.116816520690918, -1.27224600315094, 1.501813530921936, -1.380126953125, 0.63720703125, 0.4033203125, 0, 
275, 1009038798, 0.50286465883255, -0.509506106376648, -0.6009207367897034, -0.3555630147457123, 9.650918960571289, -0.7973486185073853, -2.4554572105407715, 3.226778507232666, -1.4598448276519775, 1.4142643213272095, -1.377685546875, 0.63232421875, 0.406005859375, 0, 
276, 1009047131, 0.5028591156005859, -0.5095064043998718, -0.6009299755096436, -0.3555547595024109, 9.676512718200684, -0.7838797569274902, -2.444133758544922, 3.6073038578033447, -1.511816143989563, 1.322924017906189, -1.380126953125, 0.63671875, 0.40283203125, 0, 
277, 1009055464, 0.5028590559959412, -0.5095027685165405, -0.6009359955787659, -0.35554999113082886, 9.652875900268555, -0.7948209047317505, -2.4667675495147705, 3.648491621017456, -1.3730381727218628, 1.3676719665527344, -1.378173828125, 0.63720703125, 0.404541015625, 0, 
278, 1009063797, 0.502852201461792, -0.5094996690750122, -0.6009436845779419, -0.3555511236190796, 9.636834144592285, -0.783298909664154, -2.449166774749756, 3.5374794006347656, -1.4290566444396973, 1.234324336051941, -1.376953125, 0.63916015625, 0.408203125, 0, 
279, 1009072130, 0.5028514266014099, -0.5094855427742004, -0.6009629368782043, -0.35554003715515137, 9.645660400390625, -0.7984359264373779, -2.5238280296325684, 3.8318898677825928, -1.4631491899490356, 1.2320446968078613, -1.376708984375, 0.64111328125, 0.40625, 0, 
280, 1009080463, 0.5028610229492188, -0.5094618797302246, -0.6009901165962219, -0.35551437735557556, 9.656463623046875, -0.8115119338035583, -2.4757392406463623, 4.111827850341797, -1.515709638595581, 1.192880630493164, -1.37744140625, 0.63671875, 0.4033203125, 0, 
281, 1009088796, 0.5028735399246216, -0.5094356536865234, -0.6010196208953857, -0.35548415780067444, 9.671743392944336, -0.8283402919769287, -2.482839345932007, 4.229601860046387, -1.4999058246612549, 1.2525616884231567, -1.37744140625, 0.640869140625, 0.402587890625, 0, 
282, 1009097129, 0.5028845071792603, -0.5094160437583923, -0.6010477542877197, -0.35544928908348083, 9.64246940612793, -0.82611483335495, -2.4581356048583984, 4.172200679779053, -1.594652771949768, 1.290061116218567, -1.375732421875, 0.63671875, 0.40625, 0, 
283, 1009105462, 0.5028927326202393, -0.5093975067138672, -0.6010764837265015, -0.3554157018661499, 9.659664154052734, -0.853527307510376, -2.4508981704711914, 4.174147605895996, -1.5913996696472168, 1.3236669301986694, -1.376220703125, 0.635986328125, 0.4033203125, 0, 
284, 1009113795, 0.5029049515724182, -0.5093836188316345, -0.601100742816925, -0.35537728667259216, 9.67627239227295, -0.8167042136192322, -2.4271271228790283, 4.152298450469971, -1.6109434366226196, 1.394080400466919, -1.376953125, 0.63671875, 0.406494140625, 0, 
285, 1009122128, 0.5029188990592957, -0.5093675851821899, -0.6011158227920532, -0.35535502433776855, 9.67548656463623, -0.8491153717041016, -2.439260721206665, 4.025149345397949, -1.3812861442565918, 1.3916726112365723, -1.380859375, 0.631591796875, 0.405517578125, 0, 
286, 1009130461, 0.5029386281967163, -0.5093589425086975, -0.6011126637458801, -0.35534486174583435, 9.672897338867188, -0.8567023277282715, -2.4581849575042725, 3.8005123138427734, -1.185644507408142, 1.4706158638000488, -1.37939453125, 0.63720703125, 0.404541015625, 0, 
287, 1009138794, 0.5029574036598206, -0.5093544721603394, -0.6010953783988953, -0.35535383224487305, 9.646015167236328, -0.8375116586685181, -2.464386224746704, 3.5638492107391357, -0.9560768604278564, 1.5182709693908691, -1.376220703125, 0.638427734375, 0.40576171875, 0, 
288, 1009147127, 0.5029724836349487, -0.5093569755554199, -0.6010736227035522, -0.35536572337150574, 9.656259536743164, -0.8266797661781311, -2.4095211029052734, 3.4190263748168945, -0.9972646236419678, 1.5185014009475708, -1.376708984375, 0.642333984375, 0.404296875, 0, 
289, 1009155460, 0.5029723644256592, -0.5093739032745361, -0.6010558009147644, -0.3553715944290161, 9.661825180053711, -0.8058555126190186, -2.424781322479248, 3.3066952228546143, -1.2345165014266968, 1.6306021213531494, -1.380126953125, 0.637939453125, 0.404052734375, 0, 
290, 1009163793, 0.5029717683792114, -0.509393572807312, -0.6010391116142273, -0.3553726077079773, 9.64273452758789, -0.8175182938575745, -2.4212069511413574, 3.3045177459716797, -1.320477843284607, 1.6242753267288208, -1.37939453125, 0.6396484375, 0.40185546875, 0, 
291, 1009172126, 0.5029652714729309, -0.5094177722930908, -0.6010362505912781, -0.3553520441055298, 9.657087326049805, -0.7979179620742798, -2.437131404876709, 3.498417615890503, -1.6122239828109741, 1.73756742477417, -1.378173828125, 0.63671875, 0.4052734375, 0, 
292, 1009180459, 0.5029712319374084, -0.5094358325004578, -0.6010370850563049, -0.35531628131866455, 9.63940715789795, -0.7925305962562561, -2.442127227783203, 3.7517170906066895, -1.6370954513549805, 1.7732735872268677, -1.38134765625, 0.63525390625, 0.402099609375, 0, 
293, 1009188792, 0.5029837489128113, -0.5094428062438965, -0.601049542427063, -0.3552675247192383, 9.663357734680176, -0.7792871594429016, -2.481375217437744, 4.050378799438477, -1.6743897199630737, 1.777064323425293, -1.378662109375, 0.638427734375, 0.400634765625, 0, 
294, 1009197125, 0.5030072331428528, -0.5094397664070129, -0.6010593175888062, -0.35522201657295227, 9.674986839294434, -0.7677145004272461, -2.475708246231079, 4.144383430480957, -1.5202178955078125, 1.6906676292419434, -1.375732421875, 0.634521484375, 0.400634765625, 0, 
295, 1009205458, 0.5030205249786377, -0.5094354152679443, -0.6010716557502747, -0.3551883101463318, 9.693145751953125, -0.7530543804168701, -2.4484496116638184, 4.023202419281006, -1.5045675039291382, 1.5812691450119019, -1.378173828125, 0.6376953125, 0.400634765625, 0, 
296, 1009213791, 0.5030320286750793, -0.5094351768493652, -0.6010695695877075, -0.35517585277557373, 9.681661605834961, -0.733474850654602, -2.4258172512054443, 3.7104268074035645, -1.3204267024993896, 1.5087809562683105, -1.37744140625, 0.635986328125, 0.404541015625, 0, 
297, 1009222124, 0.5030258893966675, -0.5094353556632996, -0.6010674238204956, -0.3551880419254303, 9.66791820526123, -0.7536805868148804, -2.4484221935272217, 3.4050793647766113, -1.2657145261764526, 1.3090922832489014, -1.376220703125, 0.634765625, 0.40380859375, 0, 
298, 1009230457, 0.5030071139335632, -0.5094582438468933, -0.6010562777519226, -0.35520049929618835, 9.676158905029297, -0.7473464608192444, -2.3884682655334473, 3.08707857131958, -1.4460644721984863, 1.4438743591308594, -1.373779296875, 0.6396484375, 0.40185546875, 0, 
299, 1009238790, 0.5029719471931458, -0.5094948410987854, -0.6010466814041138, -0.35521435737609863, 9.645190238952637, -0.7289126515388489, -2.440910816192627, 2.8984811305999756, -1.6201900243759155, 1.5087809562683105, -1.378173828125, 0.640380859375, 0.40625, 0, 
300, 1009247123, 0.5029417276382446, -0.5095285177230835, -0.6010279655456543, -0.35524073243141174, 9.646540641784668, -0.7283703684806824, -2.421163558959961, 2.782090425491333, -1.4424272775650024, 1.4348071813583374, -1.380615234375, 0.637939453125, 0.404541015625, 0, 
301, 1009255456, 0.5028941631317139, -0.509576678276062, -0.6010070443153381, -0.35527434945106506, 9.636877059936523, -0.7588849663734436, -2.4521679878234863, 2.5183916091918945, -1.563633680343628, 1.485830545425415, -1.376953125, 0.6396484375, 0.404296875, 0, 
302, 1009263789, 0.5028587579727173, -0.5096218585968018, -0.6009882092475891, -0.35529157519340515, 9.662302017211914, -0.7718416452407837, -2.463693380355835, 2.740211009979248, -1.6056157350540161, 1.5667204856872559, -1.378173828125, 0.6416015625, 0.40576171875, 0, 
303, 1009272122, 0.5028306245803833, -0.5096657872200012, -0.6009604334831238, -0.35531529784202576, 9.657858848571777, -0.8267691135406494, -2.4553449153900146, 2.728402853012085, -1.4036729335784912, 1.661313772201538, -1.378173828125, 0.638916015625, 0.3994140625, 0, 
304, 1009280455, 0.5028054714202881, -0.509702205657959, -0.6009343266487122, -0.3553425967693329, 9.652352333068848, -0.8455448746681213, -2.398275375366211, 2.7550160884857178, -1.3560049533843994, 1.5276843309402466, -1.380615234375, 0.640625, 0.406982421875, 0, 
305, 1009288788, 0.5027769207954407, -0.5097312927246094, -0.6009292006492615, -0.3553500473499298, 9.66891860961914, -0.874078094959259, -2.4430997371673584, 3.0670993328094482, -1.6077669858932495, 1.493642807006836, -1.37548828125, 0.6396484375, 0.404296875, 0, 
306, 1009297121, 0.5027686953544617, -0.5097413063049316, -0.6009377241134644, -0.3553328514099121, 9.691519737243652, -0.854966938495636, -2.416891098022461, 3.591961145401001, -1.6380945444107056, 1.456297516822815, -1.376220703125, 0.634765625, 0.4033203125, 0, 
307, 1009305454, 0.502764105796814, -0.5097466111183167, -0.6009536981582642, -0.3553048372268677, 9.679190635681152, -0.8618093132972717, -2.472886085510254, 3.8005380630493164, -1.6872482299804688, 1.509677529335022, -1.376953125, 0.635986328125, 0.40380859375, 0, 
308, 1009313787, 0.5027586817741394, -0.5097533464431763, -0.6009666919708252, -0.3552808165550232, 9.658170700073242, -0.8566510081291199, -2.421949863433838, 3.7131166458129883, -1.677924633026123, 1.4578087329864502, -1.37744140625, 0.638427734375, 0.40185546875, 0, 
309, 1009322120, 0.502734363079071, -0.5097706317901611, -0.6009726524353027, -0.35528039932250977, 9.671364784240723, -0.8566620349884033, -2.469346761703491, 3.298037528991699, -1.6446770429611206, 1.391749382019043, -1.375732421875, 0.638671875, 0.411376953125, 0, 
310, 1009330453, 0.5027176737785339, -0.5097888112068176, -0.6009625196456909, -0.35529500246047974, 9.65049934387207, -0.8197306990623474, -2.4459409713745117, 3.122861623764038, -1.3976789712905884, 1.3933629989624023, -1.3779296875, 0.642822265625, 0.40185546875, 0, 
311, 1009338786, 0.5027058720588684, -0.5097916722297668, -0.6009590029716492, -0.3553136885166168, 9.651283264160156, -0.8098222017288208, -2.4422998428344727, 3.2826433181762695, -1.2702995538711548, 1.2681094408035278, -1.375, 0.636474609375, 0.40380859375, 0, 
312, 1009347119, 0.5027104616165161, -0.5097793936729431, -0.6009646654129028, -0.3553151786327362, 9.645401954650879, -0.8104576468467712, -2.4733433723449707, 3.667318105697632, -1.2730915546417236, 1.2259740829467773, -1.378173828125, 0.637939453125, 0.40576171875, 0, 
313, 1009355452, 0.502707839012146, -0.5097762942314148, -0.6009682416915894, -0.3553173243999481, 9.68649673461914, -0.8448246717453003, -2.464611053466797, 3.561249017715454, -1.3309539556503296, 1.327636957168579, -1.375, 0.63525390625, 0.40380859375, 0, 
314, 1009363785, 0.5027105808258057, -0.5097794532775879, -0.6009575128555298, -0.3553270101547241, 9.68862533569336, -0.8396776914596558, -2.4467737674713135, 3.4005963802337646, -1.1928162574768066, 1.4016363620758057, -1.380126953125, 0.6337890625, 0.41162109375, 0, 
315, 1009372118, 0.5027052164077759, -0.5097795128822327, -0.6009573936462402, -0.3553347885608673, 9.64776611328125, -0.8450832962989807, -2.462536334991455, 3.4598939418792725, -1.3063900470733643, 1.328507900238037, -1.37451171875, 0.63671875, 0.40625, 0, 
316, 1009380451, 0.5027047395706177, -0.5097716450691223, -0.6009619235992432, -0.355338990688324, 9.677505493164062, -0.8376923203468323, -2.4645063877105713, 3.573697566986084, -1.3106162548065186, 1.2263838052749634, -1.375, 0.638427734375, 0.403076171875, 0, 
317, 1009388784, 0.5027182102203369, -0.5097575187683105, -0.6009626388549805, -0.355338990688324, 9.67455005645752, -0.8287621736526489, -2.518444776535034, 3.75466251373291, -1.1392827033996582, 1.349204182624817, -1.378173828125, 0.638671875, 0.406494140625, 0, 
318, 1009397117, 0.5027487277984619, -0.5097396373748779, -0.6009641885757446, -0.35531890392303467, 9.644294738769531, -0.8517556190490723, -2.5024831295013428, 4.0461530685424805, -1.153652310371399, 1.4832180738449097, -1.380126953125, 0.63720703125, 0.404541015625, 0, 
319, 1009405450, 0.5027730464935303, -0.5097166299819946, -0.6009765863418579, -0.35529661178588867, 9.649942398071289, -0.8241984844207764, -2.4858109951019287, 4.134111404418945, -1.2445316314697266, 1.4007657766342163, -1.378173828125, 0.637451171875, 0.408935546875, 0, 
320, 1009413783, 0.5027989149093628, -0.5096959471702576, -0.6009857654571533, -0.3552740216255188, 9.666021347045898, -0.7985880970954895, -2.4454970359802246, 4.09218168258667, -1.248860478401184, 1.4007145166397095, -1.380126953125, 0.63232421875, 0.4052734375, 0, 
321, 1009422116, 0.5028182864189148, -0.5096771717071533, -0.6010062098503113, -0.35523882508277893, 9.678491592407227, -0.7802851796150208, -2.4501802921295166, 4.216167449951172, -1.451097846031189, 1.4421967267990112, -1.373779296875, 0.63720703125, 0.40380859375, 0, 
322, 1009430449, 0.502829909324646, -0.5096623301506042, -0.6010294556617737, -0.355204313993454, 9.65915298461914, -0.7870426177978516, -2.4707438945770264, 4.117207050323486, -1.5781058073043823, 1.3637019395828247, -1.37939453125, 0.638671875, 0.4052734375, 0, 
323, 1009438782, 0.5028249621391296, -0.5096588134765625, -0.6010580062866211, -0.35516825318336487, 9.628731727600098, -0.7608253359794617, -2.458272695541382, 3.9837310314178467, -1.7893720865249634, 1.4037114381790161, -1.378662109375, 0.637939453125, 0.40771484375, 0, 
324, 1009447115, 0.5028095841407776, -0.5096616744995117, -0.601083517074585, -0.35514283180236816, 9.629472732543945, -0.7603849172592163, -2.475383996963501, 3.7422142028808594, -1.8386794328689575, 1.3003835678100586, -1.378173828125, 0.636474609375, 0.402099609375, 0, 
325, 1009455448, 0.5028027892112732, -0.5096499919891357, -0.6011084914207458, -0.3551267385482788, 9.650404930114746, -0.7660517692565918, -2.473889112472534, 3.8489487171173096, -1.5992120504379272, 1.2121424674987793, -1.373046875, 0.63720703125, 0.40625, 0, 
326, 1009463781, 0.5028048157691956, -0.5096340179443359, -0.601123571395874, -0.35512131452560425, 9.661025047302246, -0.7816972732543945, -2.4848222732543945, 3.779841661453247, -1.3891496658325195, 1.1640645265579224, -1.378173828125, 0.635986328125, 0.4013671875, 0, 
327, 1009472114, 0.5027971863746643, -0.5096280574798584, -0.6011273860931396, -0.35513389110565186, 9.665203094482422, -0.776142418384552, -2.4555444717407227, 3.461737871170044, -1.2883062362670898, 1.2028186321258545, -1.37744140625, 0.638427734375, 0.40185546875, 0, 
328, 1009480447, 0.5027799606323242, -0.5096355676651001, -0.6011122465133667, -0.3551730215549469, 9.65320873260498, -0.7817782163619995, -2.4080631732940674, 2.964489459991455, -1.1431249380111694, 1.168188452720642, -1.375732421875, 0.63720703125, 0.40625, 0, 
329, 1009488780, 0.5027441382408142, -0.5096609592437744, -0.6010972857475281, -0.3552132248878479, 9.637331008911133, -0.8023444414138794, -2.418694019317627, 2.724893569946289, -1.3502929210662842, 1.265625, -1.380126953125, 0.638671875, 0.406494140625, 0, 
330, 1009497113, 0.5027127861976624, -0.5096864700317383, -0.6010855436325073, -0.3552408814430237, 9.663825988769531, -0.8228291273117065, -2.429762601852417, 2.854552984237671, -1.451930284500122, 1.3035597801208496, -1.378173828125, 0.64111328125, 0.40576171875, 0, 
331, 1009505446, 0.5026965141296387, -0.5097059011459351, -0.601064920425415, -0.35527071356773376, 9.67192554473877, -0.8135629296302795, -2.412321090698242, 2.965257406234741, -1.1929190158843994, 1.422793984413147, -1.37744140625, 0.64111328125, 0.408203125, 0, 
332, 1009513779, 0.5026884078979492, -0.5097307562828064, -0.6010366082191467, -0.3552945554256439, 9.649945259094238, -0.8108233213424683, -2.383939266204834, 2.970252513885498, -1.167356014251709, 1.5542206764221191, -1.37255859375, 0.6396484375, 0.405517578125, 0, 
333, 1009522112, 0.5026876926422119, -0.5097413659095764, -0.6010097861289978, -0.3553258180618286, 9.671083450317383, -0.776504635810852, -2.4089577198028564, 3.0906779766082764, -0.9688842296600342, 1.4623808860778809, -1.376220703125, 0.638427734375, 0.40380859375, 0, 
334, 1009530445, 0.5026923418045044, -0.5097400546073914, -0.6009971499443054, -0.3553425073623657, 9.66029167175293, -0.7666948437690735, -2.4534120559692383, 3.377134323120117, -1.0928183794021606, 1.3389328718185425, -1.375732421875, 0.63720703125, 0.406982421875, 0, 
335, 1009538778, 0.5026799440383911, -0.5097561478614807, -0.6009795069694519, -0.35536643862724304, 9.662425994873047, -0.7842999696731567, -2.4431872367858887, 3.0777297019958496, -1.2086974382400513, 1.437061071395874, -1.378173828125, 0.639892578125, 0.40576171875, 0, 
336, 1009547111, 0.5026621222496033, -0.5097796320915222, -0.6009493470191956, -0.3554089367389679, 9.6654052734375, -0.8105297684669495, -2.490671396255493, 2.749099016189575, -1.0976852178573608, 1.3781226873397827, -1.376953125, 0.63916015625, 0.407470703125, 0, 
337, 1009555444, 0.502640962600708, -0.5098026394844055, -0.6009212136268616, -0.3554534614086151, 9.66408634185791, -0.8119640350341797, -2.4407567977905273, 2.7507636547088623, -1.0976084470748901, 1.3808634281158447, -1.37255859375, 0.635986328125, 0.408203125, 0, 
338, 1009563777, 0.5026198029518127, -0.5098193287849426, -0.6008962988853455, -0.355501651763916, 9.665472984313965, -0.8232956528663635, -2.4352800846099854, 2.751225233078003, -1.0893352031707764, 1.2307385206222534, -1.37744140625, 0.638671875, 0.40576171875, 0, 
339, 1009572110, 0.5025911331176758, -0.5098420977592468, -0.6008865833282471, -0.3555257022380829, 9.696966171264648, -0.8375052809715271, -2.4415764808654785, 2.9533724784851074, -1.427878499031067, 1.3535330295562744, -1.376953125, 0.63720703125, 0.40380859375, 0, 
340, 1009580443, 0.5025657415390015, -0.5098554491996765, -0.6008824706077576, -0.3555494248867035, 9.697042465209961, -0.8195903301239014, -2.4701290130615234, 3.049272060394287, -1.423088550567627, 1.2059694528579712, -1.376220703125, 0.638427734375, 0.40576171875, 0, 
341, 1009588776, 0.502571702003479, -0.5098377466201782, -0.6008814573287964, -0.3555684983730316, 9.668764114379883, -0.7915725708007812, -2.4921441078186035, 3.565654993057251, -1.0397201776504517, 1.1632959842681885, -1.375, 0.6416015625, 0.40625, 0, 
342, 1009597109, 0.5025789141654968, -0.5098146200180054, -0.6008835434913635, -0.35558781027793884, 9.657005310058594, -0.7808477282524109, -2.4688761234283447, 3.596097707748413, -1.0481600761413574, 1.0510673522949219, -1.378173828125, 0.63720703125, 0.405029296875, 0, 
343, 1009605442, 0.502587080001831, -0.5097929835319519, -0.6008793711662292, -0.35561442375183105, 9.659598350524902, -0.7994223833084106, -2.443680763244629, 3.5271568298339844, -0.9284263253211975, 1.1118371486663818, -1.375732421875, 0.633544921875, 0.406494140625, 0, 
344, 1009613775, 0.5025956034660339, -0.5097635984420776, -0.600878119468689, -0.3556467294692993, 9.648685455322266, -0.7927330136299133, -2.478517532348633, 3.524876832962036, -0.8934628367424011, 0.9367892742156982, -1.38134765625, 0.63671875, 0.4052734375, 0, 
345, 1009622108, 0.5026044845581055, -0.5097296833992004, -0.6008773446083069, -0.3556840717792511, 9.654060363769531, -0.8097118735313416, -2.46621036529541, 3.551234245300293, -0.8117790818214417, 0.9157088398933411, -1.37451171875, 0.63671875, 0.405029296875, 0, 
346, 1009630441, 0.5026028752326965, -0.5097022652626038, -0.6008766889572144, -0.35572686791419983, 9.637625694274902, -0.836331844329834, -2.4104795455932617, 3.356745719909668, -0.9179758429527283, 0.8286974430084229, -1.37939453125, 0.633544921875, 0.4052734375, 0, 
347, 1009638774, 0.5025877952575684, -0.5096782445907593, -0.6008833050727844, -0.3557713031768799, 9.652008056640625, -0.8203572630882263, -2.4365413188934326, 3.2910451889038086, -1.0575989484786987, 0.7771615386009216, -1.375732421875, 0.637939453125, 0.40625, 0, 
348, 1009647107, 0.5025687217712402, -0.5096521973609924, -0.6008862853050232, -0.35583052039146423, 9.657630920410156, -0.7959328293800354, -2.468609094619751, 3.106494426727295, -0.9783741235733032, 0.6164065599441528, -1.37548828125, 0.6396484375, 0.40234375, 0, 
349, 1009655440, 0.5025487542152405, -0.5096181631088257, -0.6009026169776917, -0.3558795750141144, 9.64885425567627, -0.7970747351646423, -2.4543979167938232, 3.3309779167175293, -1.0831109285354614, 0.5734259486198425, -1.376953125, 0.6396484375, 0.403076171875, 0, 
350, 1009663773, 0.5025272369384766, -0.5095981955528259, -0.6009112000465393, -0.355924129486084, 9.688865661621094, -0.8110650181770325, -2.4374234676361084, 3.19455623626709, -1.1697380542755127, 0.7155592441558838, -1.375732421875, 0.635986328125, 0.40625, 0, 
351, 1009672106, 0.5024997591972351, -0.5095690488815308, -0.6009354591369629, -0.35596367716789246, 9.655529022216797, -0.8095232844352722, -2.4218740463256836, 3.3582561016082764, -1.2903809547424316, 0.5871806144714355, -1.380859375, 0.631103515625, 0.404052734375, 0, 
352, 1009680439, 0.5024939775466919, -0.5095348954200745, -0.6009557843208313, -0.3559865653514862, 9.6765775680542, -0.7806800007820129, -2.426246404647827, 3.6393473148345947, -1.2033438682556152, 0.7430945634841919, -1.37890625, 0.6318359375, 0.4072265625, 0, 
353, 1009688772, 0.5024961829185486, -0.509488582611084, -0.6009883284568787, -0.35599467158317566, 9.675196647644043, -0.7931520342826843, -2.445939064025879, 3.9872143268585205, -1.2398186922073364, 0.7478845119476318, -1.37890625, 0.635986328125, 0.402099609375, 0, 
354, 1009697105, 0.5024980306625366, -0.5094468593597412, -0.6010170578956604, -0.3560032546520233, 9.671062469482422, -0.7867489457130432, -2.458911895751953, 3.9061195850372314, -1.2612065076828003, 0.7583093643188477, -1.378173828125, 0.63916015625, 0.40576171875, 0, 
355, 1009705438, 0.5024834275245667, -0.509414792060852, -0.6010438203811646, -0.3560244143009186, 9.663347244262695, -0.7788558006286621, -2.4542441368103027, 3.63960337638855, -1.3157390356063843, 0.7352052927017212, -1.37548828125, 0.639892578125, 0.40869140625, 0, 
356, 1009713771, 0.502472996711731, -0.5093804001808167, -0.6010595560073853, -0.3560619354248047, 9.657739639282227, -0.7933088541030884, -2.457577705383301, 3.466092348098755, -1.1069830656051636, 0.6506783366203308, -1.378173828125, 0.63623046875, 0.410888671875, 0, 
357, 1009722104, 0.5024433732032776, -0.5093710422515869, -0.6010607481002808, -0.3561150133609772, 9.6617431640625, -0.7876748442649841, -2.4541900157928467, 2.9928956031799316, -1.1514239311218262, 0.8048761487007141, -1.380126953125, 0.63720703125, 0.402587890625, 0, 
358, 1009730437, 0.5024036169052124, -0.5093817114830017, -0.6010597944259644, -0.3561573624610901, 9.68679141998291, -0.7907841205596924, -2.456127166748047, 2.829092025756836, -1.4212698936462402, 0.9618912935256958, -1.382568359375, 0.635498046875, 0.40478515625, 0, 
359, 1009738770, 0.5023840069770813, -0.5093901753425598, -0.6010406017303467, -0.3562052845954895, 9.67919921875, -0.821091890335083, -2.4632551670074463, 2.872457265853882, -1.0500426292419434, 1.1824299097061157, -1.382080078125, 0.634765625, 0.40283203125, 0, 
360, 1009747103, 0.5023666620254517, -0.5093982815742493, -0.6010240912437439, -0.35624611377716064, 9.658642768859863, -0.8372424244880676, -2.4191527366638184, 2.9375429153442383, -1.1255278587341309, 1.1709035634994507, -1.376953125, 0.631591796875, 0.404541015625, 0, 
361, 1009755436, 0.5023459196090698, -0.5094146132469177, -0.601006269454956, -0.35628214478492737, 9.653020858764648, -0.8291683793067932, -2.4026057720184326, 2.918358325958252, -1.1913566589355469, 1.3139333724975586, -1.378173828125, 0.635986328125, 0.40380859375, 0, 
362, 1009763769, 0.5023395419120789, -0.5094187259674072, -0.6009870767593384, -0.3563176393508911, 9.641616821289062, -0.8221651911735535, -2.4842653274536133, 3.0757064819335938, -1.0340595245361328, 1.246260643005371, -1.375732421875, 0.63720703125, 0.402587890625, 0, 
363, 1009772102, 0.5023223757743835, -0.5094283223152161, -0.6009692549705505, -0.35635799169540405, 9.660758972167969, -0.8141496181488037, -2.4745934009552, 2.9677164554595947, -1.100528359413147, 1.2437759637832642, -1.376953125, 0.635498046875, 0.405029296875, 0, 
364, 1009780435, 0.5022974014282227, -0.5094497203826904, -0.6009426116943359, -0.35640749335289, 9.660049438476562, -0.7865521311759949, -2.4538662433624268, 2.671564817428589, -1.1237859725952148, 1.2549693584442139, -1.380126953125, 0.635986328125, 0.404541015625, 0, 
365, 1009788768, 0.5022636651992798, -0.5094712972640991, -0.6009197235107422, -0.3564627170562744, 9.664432525634766, -0.7906171679496765, -2.4405345916748047, 2.5965659618377686, -1.1554197072982788, 1.1992839574813843, -1.382568359375, 0.63623046875, 0.407958984375, 0, 
366, 1009797101, 0.5022273063659668, -0.5094919204711914, -0.6009026765823364, -0.3565131723880768, 9.687819480895996, -0.782885730266571, -2.3996992111206055, 2.6376004219055176, -1.2732707262039185, 1.1168574094772339, -1.378662109375, 0.637939453125, 0.404541015625, 0, 
367, 1009805434, 0.5021987557411194, -0.5095070600509644, -0.6008853316307068, -0.3565610349178314, 9.691783905029297, -0.7956333756446838, -2.433689832687378, 2.776301383972168, -1.1698662042617798, 1.180355191230774, -1.378173828125, 0.634765625, 0.404052734375, 0, 
368, 1009813767, 0.5021876096725464, -0.5095104575157166, -0.6008673310279846, -0.35660237073898315, 9.688525199890137, -0.799950897693634, -2.38606333732605, 3.0038325786590576, -1.0382089614868164, 1.1685981750488281, -1.380615234375, 0.6416015625, 0.4033203125, 0, 
369, 1009822100, 0.5021913647651672, -0.5094936490058899, -0.6008616089820862, -0.35663077235221863, 9.684124946594238, -0.7784736752510071, -2.430159330368042, 3.4438588619232178, -0.9651826620101929, 1.1274104118347168, -1.37890625, 0.634521484375, 0.399658203125, 0, 
370, 1009830433, 0.5021955966949463, -0.5094718337059021, -0.6008619666099548, -0.3566553294658661, 9.683566093444824, -0.751787006855011, -2.405359983444214, 3.5143749713897705, -1.0309087038040161, 1.023032307624817, -1.37890625, 0.635986328125, 0.4013671875, 0, 
371, 1009838766, 0.5021778345108032, -0.5094603300094604, -0.6008797883987427, -0.35666683316230774, 9.66333293914795, -0.7589568495750427, -2.3881094455718994, 3.5074081420898438, -1.4512385129928589, 1.0178583860397339, -1.380126953125, 0.63671875, 0.40576171875, 0, 
372, 1009847099, 0.5021702647209167, -0.5094428062438965, -0.6008954644203186, -0.3566761910915375, 9.65350341796875, -0.7303177118301392, -2.4606010913848877, 3.6027956008911133, -1.3614861965179443, 0.9968547821044922, -1.380615234375, 0.638671875, 0.40576171875, 0, 
373, 1009855432, 0.5021651387214661, -0.5094183683395386, -0.600922167301178, -0.35667333006858826, 9.670623779296875, -0.7320006489753723, -2.4954147338867188, 3.843595504760742, -1.4446814060211182, 1.009738802909851, -1.376953125, 0.63720703125, 0.4013671875, 0, 
374, 1009863765, 0.5021569728851318, -0.5094095468521118, -0.6009388566017151, -0.3566693365573883, 9.705286026000977, -0.7803233861923218, -2.4705536365509033, 3.6546642780303955, -1.5094594955444336, 1.1522563695907593, -1.382568359375, 0.637451171875, 0.4052734375, 0, 
375, 1009872098, 0.5021564364433289, -0.5094004273414612, -0.600943922996521, -0.3566744327545166, 9.673794746398926, -0.8018818497657776, -2.412538528442383, 3.5963404178619385, -1.2761138677597046, 1.2556352615356445, -1.380126953125, 0.635498046875, 0.4052734375, 0, 
376, 1009880431, 0.5021513104438782, -0.5093985199928284, -0.6009448170661926, -0.3566826581954956, 9.694096565246582, -0.7844449877738953, -2.4124655723571777, 3.4483163356781006, -1.3250627517700195, 1.2505638599395752, -1.379638671875, 0.63232421875, 0.4052734375, 0, 
377, 1009888764, 0.5021478533744812, -0.5093971490859985, -0.6009538173675537, -0.3566744327545166, 9.665417671203613, -0.7883772850036621, -2.427795648574829, 3.6569442749023438, -1.456822395324707, 1.3682868480682373, -1.378173828125, 0.634033203125, 0.402099609375, 0, 
378, 1009897097, 0.502159833908081, -0.5093895792961121, -0.6009562611579895, -0.35666412115097046, 9.662154197692871, -0.757721483707428, -2.462538719177246, 3.7686994075775146, -1.2960163354873657, 1.4038649797439575, -1.380126953125, 0.631591796875, 0.403564453125, 0, 
379, 1009905430, 0.5021633505821228, -0.5093851089477539, -0.600959062576294, -0.35666099190711975, 9.661727905273438, -0.7822433710098267, -2.430206060409546, 3.633199691772461, -1.3055702447891235, 1.3895978927612305, -1.37255859375, 0.6328125, 0.404296875, 0, 
380, 1009913763, 0.5021446943283081, -0.5094130635261536, -0.6009417176246643, -0.35667645931243896, 9.67655086517334, -0.7614410519599915, -2.412875175476074, 2.998889207839966, -1.4058245420455933, 1.5094469785690308, -1.380615234375, 0.637939453125, 0.40576171875, 0, 
381, 1009922096, 0.5021132826805115, -0.5094492435455322, -0.6009217500686646, -0.3567028343677521, 9.660810470581055, -0.7813158631324768, -2.45206880569458, 2.774867296218872, -1.4321048259735107, 1.504606008529663, -1.37939453125, 0.63525390625, 0.402099609375, 0, 
382, 1009930429, 0.5020750761032104, -0.509489893913269, -0.6008919477462769, -0.3567487597465515, 9.664518356323242, -0.7647474408149719, -2.4290173053741455, 2.4612457752227783, -1.3297755718231201, 1.3943108320236206, -1.38134765625, 0.6328125, 0.404052734375, 0, 
383, 1009938762, 0.502029538154602, -0.5095336437225342, -0.6008664965629578, -0.3567933440208435, 9.66694164276123, -0.791878342628479, -2.4406185150146484, 2.442701816558838, -1.4197330474853516, 1.410934567451477, -1.37744140625, 0.637939453125, 0.40576171875, 0, 
384, 1009947095, 0.501986026763916, -0.5095717310905457, -0.6008487939834595, -0.35683000087738037, 9.670162200927734, -0.7450021505355835, -2.4573376178741455, 2.576817274093628, -1.5092802047729492, 1.3277393579483032, -1.37939453125, 0.635986328125, 0.404052734375, 0, 
385, 1009955428, 0.5019580125808716, -0.5095895528793335, -0.6008422374725342, -0.35685500502586365, 9.66621208190918, -0.7812423706054688, -2.4578704833984375, 3.001924514770508, -1.4148792028427124, 1.2867695093154907, -1.38134765625, 0.635498046875, 0.406494140625, 0, 
386, 1009963761, 0.5019443035125732, -0.5095936059951782, -0.6008400321006775, -0.35687223076820374, 9.677071571350098, -0.7743299603462219, -2.4089853763580322, 3.2587966918945312, -1.3399957418441772, 1.216522455215454, -1.37744140625, 0.636474609375, 0.402587890625, 0, 
387, 1009972094, 0.5019400715827942, -0.5095935463905334, -0.6008375287055969, -0.3568822741508484, 9.662200927734375, -0.8222032189369202, -2.4410548210144043, 3.4335622787475586, -1.2640751600265503, 1.3294554948806763, -1.38134765625, 0.635498046875, 0.404052734375, 0, 
388, 1009980427, 0.5019384026527405, -0.5095972418785095, -0.6008335947990417, -0.3568858504295349, 9.660473823547363, -0.7984432578086853, -2.4330034255981445, 3.4493658542633057, -1.3228598833084106, 1.3794031143188477, -1.37890625, 0.637451171875, 0.406982421875, 0, 
389, 1009988760, 0.5019376277923584, -0.5095905065536499, -0.6008366346359253, -0.35689157247543335, 9.662590980529785, -0.8014563322067261, -2.407870292663574, 3.571622610092163, -1.2717595100402832, 1.282760739326477, -1.376220703125, 0.63671875, 0.40625, 0, 
390, 1009997093, 0.5019448399543762, -0.5095754861831665, -0.6008380055427551, -0.35690081119537354, 9.683349609375, -0.7821783423423767, -2.440704345703125, 3.6188557147979736, -1.1543439626693726, 1.1939048767089844, -1.37890625, 0.63671875, 0.40380859375, 0, 
391, 1010005426, 0.5019447803497314, -0.5095593333244324, -0.6008440256118774, -0.35691362619400024, 9.67510986328125, -0.7842386364936829, -2.447495698928833, 3.6107871532440186, -1.1915100812911987, 1.1322771310806274, -1.37890625, 0.635498046875, 0.408447265625, 0, 
392, 1010013759, 0.5019490718841553, -0.5095544457435608, -0.6008443832397461, -0.35691380500793457, 9.667238235473633, -0.7763966917991638, -2.398778200149536, 3.598261833190918, -1.2841055393218994, 1.332016944885254, -1.37890625, 0.635498046875, 0.4052734375, 0, 
393, 1010022092, 0.5019316673278809, -0.5095630884170532, -0.6008535623550415, -0.3569108843803406, 9.640992164611816, -0.7494189739227295, -2.424943208694458, 3.445268154144287, -1.5880184173583984, 1.3447473049163818, -1.380859375, 0.629150390625, 0.403564453125, 0, 
394, 1010030425, 0.5019153356552124, -0.509563148021698, -0.600868821144104, -0.3569079637527466, 9.65970230102539, -0.7487719655036926, -2.4647042751312256, 3.5196518898010254, -1.6025673151016235, 1.1896017789840698, -1.37890625, 0.630859375, 0.401611328125, 0, 
395, 1010038758, 0.501895010471344, -0.5095656514167786, -0.6008824706077576, -0.3569099009037018, 9.680022239685059, -0.7636875510215759, -2.443179130554199, 3.4437055587768555, -1.5798219442367554, 1.2150111198425293, -1.37646484375, 0.633544921875, 0.406494140625, 0, 
396, 1010047091, 0.5018833875656128, -0.5095694661140442, -0.600882887840271, -0.3569199740886688, 9.664556503295898, -0.8014417290687561, -2.4892661571502686, 3.3455262184143066, -1.3900716304779053, 1.2548155784606934, -1.37939453125, 0.63671875, 0.408447265625, 0, 
397, 1010055424, 0.5018718242645264, -0.5095710754394531, -0.6008847951889038, -0.3569307029247284, 9.657137870788574, -0.7930861115455627, -2.4656145572662354, 3.3837428092956543, -1.3570805788040161, 1.2756656408309937, -1.377685546875, 0.634765625, 0.40576171875, 0, 
398, 1010063757, 0.5018612146377563, -0.5095791220664978, -0.6008816957473755, -0.35693928599357605, 9.665891647338867, -0.8033786416053772, -2.466848373413086, 3.3185031414031982, -1.3884834051132202, 1.3314279317855835, -1.37939453125, 0.637939453125, 0.402587890625, 0, 
399, 1010072090, 0.501837432384491, -0.5095848441123962, -0.6008878350257874, -0.3569542467594147, 9.670326232910156, -0.7973635792732239, -2.4572203159332275, 3.25649094581604, -1.4782614707946777, 1.1899092197418213, -1.38330078125, 0.63525390625, 0.401611328125, 0, 
400, 1010080423, 0.5018128156661987, -0.5095993876457214, -0.6008901596069336, -0.3569641709327698, 9.6627836227417, -0.8055688142776489, -2.472161293029785, 3.1914825439453125, -1.5644021034240723, 1.2684681415557861, -1.3818359375, 0.637451171875, 0.40771484375, 0, 
401, 1010088756, 0.5017848014831543, -0.5096187591552734, -0.6008924841880798, -0.35697224736213684, 9.66719913482666, -0.810297966003418, -2.4552993774414062, 3.1804425716400146, -1.6038992404937744, 1.3530718088150024, -1.377685546875, 0.634033203125, 0.404052734375, 0, 
402, 1010097089, 0.5017722845077515, -0.5096248984336853, -0.6008978486061096, -0.3569721281528473, 9.679462432861328, -0.7887049317359924, -2.4815657138824463, 3.4321792125701904, -1.5137883424758911, 1.3066588640213013, -1.37890625, 0.636474609375, 0.402099609375, 0, 
403, 1010105422, 0.5017537474632263, -0.5096264481544495, -0.6009060144424438, -0.3569820523262024, 9.685714721679688, -0.768860399723053, -2.4839789867401123, 3.3819239139556885, -1.465044379234314, 1.2011793851852417, -1.37890625, 0.635986328125, 0.4033203125, 0, 
404, 1010113755, 0.5017449855804443, -0.5096297264099121, -0.600901186466217, -0.356997549533844, 9.69472599029541, -0.7723671793937683, -2.4559991359710693, 3.300060987472534, -1.2897406816482544, 1.2658554315567017, -1.376953125, 0.634033203125, 0.4052734375, 0, 
405, 1010122088, 0.5017397403717041, -0.5096312761306763, -0.6008891463279724, -0.3570233881473541, 9.70293140411377, -0.7543272376060486, -2.4283292293548584, 3.24611759185791, -1.1033971309661865, 1.293723702430725, -1.37939453125, 0.63623046875, 0.4072265625, 0, 
406, 1010130421, 0.5017275810241699, -0.509643018245697, -0.6008744239807129, -0.35704848170280457, 9.65572738647461, -0.7512280344963074, -2.410344123840332, 3.089486598968506, -1.2233487367630005, 1.3219761848449707, -1.37939453125, 0.635986328125, 0.404052734375, 0, 
407, 1010138754, 0.5017114281654358, -0.5096409916877747, -0.6008864641189575, -0.35705360770225525, 9.65188217163086, -0.7522667050361633, -2.4066596031188965, 3.47121524810791, -1.4882512092590332, 1.188244342803955, -1.375, 0.634033203125, 0.40576171875, 0, 
408, 1010147087, 0.5017114877700806, -0.5096249580383301, -0.6009012460708618, -0.35705143213272095, 9.679943084716797, -0.7340445518493652, -2.5058159828186035, 3.7362842559814453, -1.38045334815979, 1.1333401203155518, -1.380126953125, 0.6318359375, 0.406005859375, 0, 
409, 1010155420, 0.5017279982566833, -0.5095856785774231, -0.600930392742157, -0.3570355474948883, 9.688570976257324, -0.7404873371124268, -2.508049726486206, 4.228986740112305, -1.299986481666565, 1.0640666484832764, -1.37646484375, 0.633056640625, 0.406982421875, 0, 
410, 1010163753, 0.5017443299293518, -0.5095504522323608, -0.6009492874145508, -0.35703107714653015, 9.682994842529297, -0.7468544244766235, -2.458324670791626, 4.02220344543457, -1.1964536905288696, 1.0419870615005493, -1.378173828125, 0.63427734375, 0.408447265625, 0, 
411, 1010172086, 0.5017474889755249, -0.509534478187561, -0.6009535789489746, -0.35704201459884644, 9.671298027038574, -0.7498229742050171, -2.454437732696533, 3.6252083778381348, -1.1652812957763672, 1.1804577112197876, -1.380126953125, 0.63720703125, 0.404052734375, 0, 
412, 1010180419, 0.5017395615577698, -0.5095333456993103, -0.6009438633918762, -0.35707125067710876, 9.667413711547852, -0.753075897693634, -2.444812059402466, 3.1975276470184326, -1.1309069395065308, 1.1726197004318237, -1.38330078125, 0.63232421875, 0.404296875, 0, 
413, 1010188752, 0.5017023086547852, -0.5095535516738892, -0.6009383201599121, -0.35710403323173523, 9.642404556274414, -0.7715877890586853, -2.4705936908721924, 2.865464687347412, -1.455234408378601, 1.1983108520507812, -1.378173828125, 0.633056640625, 0.40771484375, 0, 
414, 1010197085, 0.5016800761222839, -0.5095760822296143, -0.6009169816970825, -0.3571390211582184, 9.691397666931152, -0.8137756586074829, -2.4344940185546875, 2.8307571411132812, -1.2440193891525269, 1.3388049602508545, -1.37890625, 0.634765625, 0.4052734375, 0, 
415, 1010205418, 0.5016583800315857, -0.509602427482605, -0.6008935570716858, -0.35717129707336426, 9.669175148010254, -0.8132820129394531, -2.45560884475708, 2.8446147441864014, -1.2389477491378784, 1.4569122791290283, -1.37890625, 0.63671875, 0.4033203125, 0, 
416, 1010213751, 0.5016372799873352, -0.5096349120140076, -0.6008709669113159, -0.3571927845478058, 9.66534423828125, -0.8087559342384338, -2.4252021312713623, 2.8739686012268066, -1.3697340488433838, 1.5280685424804688, -1.382568359375, 0.635498046875, 0.4052734375, 0, 
417, 1010222084, 0.5016149878501892, -0.5096681118011475, -0.6008492112159729, -0.3572131395339966, 9.667834281921387, -0.8235239386558533, -2.445145845413208, 2.899531126022339, -1.371680736541748, 1.5781697034835815, -1.380126953125, 0.631103515625, 0.40478515625, 0, 
418, 1010230417, 0.5016062259674072, -0.5096832513809204, -0.6008360385894775, -0.3572258949279785, 9.675501823425293, -0.8257957100868225, -2.450812816619873, 3.200216770172119, -1.308874487876892, 1.4422861337661743, -1.37646484375, 0.629150390625, 0.404052734375, 0, 
419, 1010238750, 0.5015990734100342, -0.5096932053565979, -0.6008260846138, -0.35723862051963806, 9.663692474365234, -0.7936697602272034, -2.4187164306640625, 3.288867712020874, -1.2678405046463013, 1.4298890829086304, -1.380615234375, 0.637451171875, 0.40576171875, 0, 
420, 1010247083, 0.5016095042228699, -0.5096893310546875, -0.6008226871490479, -0.3572350740432739, 9.671890258789062, -0.7774359583854675, -2.4189369678497314, 3.6474671363830566, -1.2399210929870605, 1.4216669797897339, -1.382568359375, 0.633056640625, 0.40478515625, 0, 
421, 1010255416, 0.5016207695007324, -0.5096809267997742, -0.6008303761482239, -0.3572184443473816, 9.676752090454102, -0.7634182572364807, -2.448460578918457, 3.8748960494995117, -1.3521370887756348, 1.4498169422149658, -1.377685546875, 0.63427734375, 0.4052734375, 0, 
422, 1010263749, 0.501639723777771, -0.5096715688705444, -0.6008411049842834, -0.35718727111816406, 9.649343490600586, -0.7431419491767883, -2.4144856929779053, 4.042413234710693, -1.4327963590621948, 1.509395718574524, -1.380859375, 0.633544921875, 0.406005859375, 0, 
423, 1010272082, 0.5016432404518127, -0.5096732974052429, -0.6008505821228027, -0.3571636378765106, 9.67903995513916, -0.7533712387084961, -2.4077577590942383, 3.8134219646453857, -1.5273127555847168, 1.5324229001998901, -1.3818359375, 0.635986328125, 0.4033203125, 0, 
424, 1010280415, 0.5016404390335083, -0.5096822381019592, -0.600856602191925, -0.35714468359947205, 9.658748626708984, -0.7531732320785522, -2.465705156326294, 3.6408588886260986, -1.5836130380630493, 1.5030434131622314, -1.37939453125, 0.635498046875, 0.40771484375, 0, 
425, 1010288748, 0.5016376376152039, -0.5096823573112488, -0.6008658409118652, -0.35713309049606323, 9.679707527160645, -0.7773296236991882, -2.4461934566497803, 3.6786656379699707, -1.4870216846466064, 1.4049408435821533, -1.37841796875, 0.6298828125, 0.4091796875, 0, 
426, 1010297081, 0.5016400218009949, -0.5096889138221741, -0.6008756756782532, -0.35710376501083374, 9.708166122436523, -0.7381153702735901, -2.441521167755127, 3.7968239784240723, -1.6276181936264038, 1.5539132356643677, -1.375, 0.637939453125, 0.40380859375, 0, 
427, 1010305414, 0.5016365647315979, -0.5096950531005859, -0.6008925437927246, -0.35707131028175354, 9.683156967163086, -0.7623807191848755, -2.4750728607177734, 3.859476089477539, -1.720495581626892, 1.541874647140503, -1.382568359375, 0.63232421875, 0.404296875, 0, 
428, 1010313747, 0.5016487836837769, -0.5096815824508667, -0.6009106040000916, -0.3570431172847748, 9.66394329071045, -0.746314287185669, -2.4595329761505127, 4.035113334655762, -1.497984528541565, 1.3699005842208862, -1.382080078125, 0.634765625, 0.406005859375, 0, 
429, 1010322080, 0.5016425251960754, -0.5096718072891235, -0.6009321212768555, -0.357029527425766, 9.666560173034668, -0.7184427976608276, -2.4451310634613037, 3.807018518447876, -1.56535005569458, 1.2328132390975952, -1.380126953125, 0.63232421875, 0.40478515625, 0, 
430, 1010330413, 0.5016303062438965, -0.5096633434295654, -0.6009540557861328, -0.35702189803123474, 9.668252944946289, -0.7415750026702881, -2.4491376876831055, 3.680022716522217, -1.6060764789581299, 1.1244392395019531, -1.376220703125, 0.63671875, 0.405029296875, 0, 
431, 1010338746, 0.5016144514083862, -0.5096548199653625, -0.6009733080863953, -0.35702428221702576, 9.661954879760742, -0.7177198529243469, -2.4610843658447266, 3.5794100761413574, -1.5229840278625488, 1.1009254455566406, -1.382080078125, 0.633056640625, 0.410400390625, 0, 
432, 1010347079, 0.5016001462936401, -0.5096396207809448, -0.6009904146194458, -0.357037216424942, 9.66711139678955, -0.7602536082267761, -2.4934728145599365, 3.5168850421905518, -1.4140207767486572, 0.9482131600379944, -1.382080078125, 0.635498046875, 0.407958984375, 0, 
433, 1010355412, 0.5015807747840881, -0.5096231698989868, -0.6010081768035889, -0.3570576608181, 9.67664623260498, -0.7747578620910645, -2.4622766971588135, 3.4584338665008545, -1.3753434419631958, 0.9084600210189819, -1.37890625, 0.63671875, 0.404541015625, 0, 
434, 1010363745, 0.5015661120414734, -0.5096055865287781, -0.6010148525238037, -0.3570922911167145, 9.669803619384766, -0.8211345076560974, -2.4323792457580566, 3.299626111984253, -1.1803680658340454, 0.8526211380958557, -1.37646484375, 0.6279296875, 0.4033203125, 0, 
435, 1010372078, 0.5015389323234558, -0.5095949172973633, -0.6010302305221558, -0.35711967945098877, 9.644937515258789, -0.8034045696258545, -2.429486036300659, 3.286536693572998, -1.404594898223877, 0.8847156167030334, -1.37841796875, 0.631103515625, 0.407958984375, 0, 
436, 1010380411, 0.5015266537666321, -0.5095726847648621, -0.601040780544281, -0.3571508526802063, 9.643073081970215, -0.8365011811256409, -2.4832277297973633, 3.3951923847198486, -1.1895891427993774, 0.8218327164649963, -1.3818359375, 0.63671875, 0.40478515625, 0, 
437, 1010388744, 0.5015234351158142, -0.509540319442749, -0.6010481119155884, -0.3571891486644745, 9.63961410522461, -0.8141297698020935, -2.450169801712036, 3.496650218963623, -0.9694091081619263, 0.7988055348396301, -1.378173828125, 0.63525390625, 0.40087890625, 0, 
438, 1010397077, 0.5015164613723755, -0.5095148086547852, -0.6010569334030151, -0.35722053050994873, 9.650830268859863, -0.8067467212677002, -2.4203662872314453, 3.446190357208252, -1.115230917930603, 0.8326162099838257, -1.377685546875, 0.633056640625, 0.406494140625, 0, 
439, 1010405410, 0.5014970898628235, -0.5094899535179138, -0.6010677218437195, -0.3572649359703064, 9.658188819885254, -0.8201255798339844, -2.4373812675476074, 3.2846672534942627, -1.118714690208435, 0.7167119979858398, -1.37890625, 0.63232421875, 0.40478515625, 0, 
440, 1010413743, 0.5014881491661072, -0.5094729065895081, -0.6010825634002686, -0.35727670788764954, 9.698355674743652, -0.8273071050643921, -2.4438164234161377, 3.5663466453552246, -1.3524956703186035, 0.9845343232154846, -1.38134765625, 0.633544921875, 0.40283203125, 0, 
441, 1010422076, 0.5014932751655579, -0.5094455480575562, -0.6011059880256653, -0.3572694659233093, 9.661887168884277, -0.7935771346092224, -2.4276227951049805, 3.95015025138855, -1.352085828781128, 1.0899113416671753, -1.380126953125, 0.635986328125, 0.406005859375, 0, 
442, 1010430409, 0.5015087127685547, -0.509397029876709, -0.601153552532196, -0.35723692178726196, 9.663840293884277, -0.782042384147644, -2.459515333175659, 4.481057167053223, -1.533024787902832, 0.920780599117279, -1.378173828125, 0.63671875, 0.40380859375, 0, 
443, 1010438742, 0.5015276074409485, -0.5093388557434082, -0.6012114882469177, -0.3571959137916565, 9.653141021728516, -0.7716103792190552, -2.46659255027771, 4.712046146392822, -1.561635971069336, 0.8895055651664734, -1.384033203125, 0.6318359375, 0.409912109375, 0, 
444, 1010447075, 0.5015697479248047, -0.509265124797821, -0.6012544631958008, -0.3571695387363434, 9.677454948425293, -0.7928405404090881, -2.481736183166504, 4.768935680389404, -1.113207459449768, 0.8322577476501465, -1.376953125, 0.638427734375, 0.405029296875, 0, 
