PacketCounter,SampleTimeFine,Quat_W,Quat_X,Quat_Y,Quat_Z,Acc_X,Acc_Y,Acc_Z,Gyr_X,Gyr_Y,Gyr_Z,Mag_X,Mag_Y,Mag_Z,Status,
0, 1049953828, 0.5062562823295593, -0.4829022288322449, -0.6198581457138062, -0.35536766052246094, 0, 0, 0, 0, 0, 0, -1.416748046875, 0.6015625, 0.38916015625, 0, 
1, 1049962161, 0.5058894157409668, -0.4840434193611145, -0.6192303895950317, -0.3554319739341736, 9.989579200744629, -0.253459632396698, -2.020998954772949, -10.461507797241211, -5.24821662902832, 13.012289047241211, -1.41162109375, 0.598388671875, 0.389892578125, 0, 
2, 1049970494, 0.5057061314582825, -0.48499375581741333, -0.618672788143158, -0.35536834597587585, 9.870614051818848, -0.2296474725008011, -2.216413736343384, -6.457056045532227, -4.08527946472168, 12.7658052444458, -1.412841796875, 0.60400390625, 0.3916015625, 0, 
3, 1049978827, 0.505632221698761, -0.4858088493347168, -0.6182220578193665, -0.3551447093486786, 9.778536796569824, -0.2645691931247711, -2.2838242053985596, -2.925158739089966, -4.311478137969971, 12.4912691116333, -1.41162109375, 0.604736328125, 0.392822265625, 0, 
4, 1049987160, 0.5056403279304504, -0.48652777075767517, -0.6178072094917297, -0.35487040877342224, 9.711462020874023, -0.25002092123031616, -2.250162363052368, -1.0854418277740479, -3.7250149250030518, 12.244707107543945, -1.410400390625, 0.602294921875, 0.390869140625, 0, 
5, 1049995493, 0.5056623816490173, -0.4872063398361206, -0.6174139976501465, -0.3545922338962555, 9.654539108276367, -0.2325432449579239, -2.0900797843933105, -0.5908564329147339, -3.5938949584960938, 11.794356346130371, -1.410400390625, 0.603515625, 0.39208984375, 0, 
6, 1050003826, 0.5056648254394531, -0.4878575801849365, -0.6170801520347595, -0.35427460074424744, 9.689677238464355, -0.22993104159832, -2.1240811347961426, 0.10051026195287704, -4.296365261077881, 11.406096458435059, -1.408203125, 0.60986328125, 0.39501953125, 0, 
7, 1050012159, 0.5056701302528381, -0.4884398877620697, -0.6168381571769714, -0.35388609766960144, 9.68765926361084, -0.35135844349861145, -2.136679172515869, 1.6401948928833008, -5.056276321411133, 10.651079177856445, -1.409423828125, 0.61181640625, 0.3974609375, 0, 
8, 1050020492, 0.5055939555168152, -0.4890170693397522, -0.616657555103302, -0.3535119891166687, 9.819779396057129, -0.5560386776924133, -2.151628017425537, 1.3133443593978882, -6.050735950469971, 9.758152961730957, -1.406494140625, 0.609375, 0.400634765625, 0, 
9, 1050028825, 0.5055558681488037, -0.48958417773246765, -0.6164745092391968, -0.35310089588165283, 9.77653694152832, -0.6187683343887329, -2.176374912261963, 1.932261347770691, -5.913366794586182, 10.068264961242676, -1.40380859375, 0.61474609375, 0.3935546875, 0, 
10, 1050037158, 0.5055509209632874, -0.4901694059371948, -0.6162906885147095, -0.3526163399219513, 9.734036445617676, -0.5735201239585876, -2.1089046001434326, 2.661088705062866, -6.207751274108887, 10.962355613708496, -1.40576171875, 0.613037109375, 0.39794921875, 0, 
11, 1050045491, 0.5056242942810059, -0.4907069802284241, -0.6161227226257324, -0.35205647349357605, 9.692322731018066, -0.46884238719940186, -2.1450085639953613, 4.224607944488525, -5.932910919189453, 11.293471336364746, -1.403076171875, 0.615478515625, 0.399658203125, 0, 
12, 1050053824, 0.5058292150497437, -0.49114078283309937, -0.6159923076629639, -0.3513847291469574, 9.603557586669922, -0.41431495547294617, -2.1746022701263428, 6.979969501495361, -5.330424785614014, 11.637994766235352, -1.401123046875, 0.619384765625, 0.40087890625, 0, 
13, 1050062157, 0.5060747265815735, -0.4915750026702881, -0.6158631443977356, -0.3506496846675873, 9.536728858947754, -0.3839126229286194, -2.007300615310669, 7.774920463562012, -5.426440715789795, 12.20654296875, -1.404296875, 0.619384765625, 0.40087890625, 0, 
14, 1050070490, 0.5062375068664551, -0.4921199679374695, -0.6157203912734985, -0.3499000668525696, 9.552203178405762, -0.38751059770584106, -1.8489152193069458, 6.508757591247559, -6.66588830947876, 13.002812385559082, -1.401123046875, 0.619873046875, 0.39697265625, 0, 
15, 1050078823, 0.5063820481300354, -0.4926999807357788, -0.6155230402946472, -0.34922122955322266, 9.626120567321777, -0.4053025543689728, -1.973780870437622, 5.275674819946289, -6.129308223724365, 13.02592945098877, -1.40234375, 0.62548828125, 0.39892578125, 0, 
16, 1050087156, 0.5065037608146667, -0.4932618737220764, -0.6153613328933716, -0.34853583574295044, 9.57125473022461, -0.39453116059303284, -2.1740543842315674, 5.487351894378662, -6.530529975891113, 12.628524780273438, -1.39599609375, 0.62744140625, 0.401611328125, 0, 
17, 1050095489, 0.5066536068916321, -0.4937970042228699, -0.6152080297470093, -0.34783026576042175, 9.690590858459473, -0.3280085325241089, -2.321537733078003, 6.060201168060303, -6.3579020500183105, 12.557124137878418, -1.397705078125, 0.63037109375, 0.399169921875, 0, 
18, 1050103822, 0.5068376064300537, -0.4942990839481354, -0.6150637269020081, -0.34710362553596497, 9.618814468383789, -0.25871580839157104, -2.176659345626831, 6.7567548751831055, -6.120022773742676, 12.591602325439453, -1.396484375, 0.633544921875, 0.40087890625, 0, 
19, 1050112155, 0.5069353580474854, -0.4948650002479553, -0.6149218678474426, -0.3464052975177765, 9.639121055603027, -0.2111208438873291, -2.092036008834839, 5.485840320587158, -6.975193023681641, 12.441899299621582, -1.392578125, 0.63427734375, 0.4013671875, 0, 
20, 1050120488, 0.5069099068641663, -0.4955168068408966, -0.6147679090499878, -0.3457835912704468, 9.612693786621094, -0.20139570534229279, -2.1254661083221436, 3.36393141746521, -7.8245110511779785, 12.196643829345703, -1.391357421875, 0.638671875, 0.405517578125, 0, 
21, 1050128821, 0.5068755745887756, -0.4962127208709717, -0.6145824790000916, -0.34516504406929016, 9.613933563232422, -0.15784180164337158, -2.215061902999878, 2.798893451690674, -7.864607810974121, 12.652921676635742, -1.395751953125, 0.6337890625, 0.404052734375, 0, 
22, 1050137154, 0.5068257451057434, -0.49691370129585266, -0.6144293546676636, -0.34450140595436096, 9.572911262512207, -0.17428940534591675, -2.17814040184021, 3.208465099334717, -8.55947208404541, 12.784348487854004, -1.39208984375, 0.637451171875, 0.40625, 0, 
23, 1050145487, 0.5067130327224731, -0.4976549446582794, -0.6142951250076294, -0.34383586049079895, 9.585564613342285, -0.204204723238945, -2.235534906387329, 2.587602138519287, -9.417497634887695, 12.641984939575195, -1.385009765625, 0.641845703125, 0.4052734375, 0, 
24, 1050153820, 0.5066300630569458, -0.4983823597431183, -0.6141470670700073, -0.34316861629486084, 9.64913272857666, -0.3038564622402191, -2.3542706966400146, 2.8284265995025635, -9.02324390411377, 12.847359657287598, -1.387451171875, 0.643310546875, 0.410400390625, 0, 
25, 1050162153, 0.5066081881523132, -0.49908074736595154, -0.613976001739502, -0.34249162673950195, 9.606242179870605, -0.35028448700904846, -2.4948935508728027, 3.4305405616760254, -8.2694673538208, 13.042386054992676, -1.385009765625, 0.645751953125, 0.41162109375, 0, 
26, 1050170486, 0.506618857383728, -0.49978578090667725, -0.6138007044792175, -0.34176087379455566, 9.606695175170898, -0.43848326802253723, -2.29325795173645, 4.05465841293335, -8.37817668914795, 13.725444793701172, -1.38427734375, 0.650146484375, 0.41455078125, 0, 
27, 1050178819, 0.5065594911575317, -0.5005806684494019, -0.613585352897644, -0.34107157588005066, 9.653289794921875, -0.5986686944961548, -2.1703007221221924, 2.3965322971343994, -8.815549850463867, 14.070964813232422, -1.38232421875, 0.64697265625, 0.412109375, 0, 
28, 1050187152, 0.5063496232032776, -0.5015201568603516, -0.6132821440696716, -0.3405478894710541, 9.65705680847168, -0.6531078219413757, -2.1910948753356934, -1.4369587898254395, -9.026688575744629, 14.110974311828613, -1.3828125, 0.6533203125, 0.415771484375, 0, 
29, 1050195485, 0.5058934092521667, -0.5026988983154297, -0.612895131111145, -0.34018442034721375, 9.550544738769531, -0.6665986180305481, -2.261955499649048, -6.56307315826416, -10.519423484802246, 14.362494468688965, -1.38037109375, 0.6552734375, 0.416259765625, 0, 
30, 1050203818, 0.5054198503494263, -0.5039098858833313, -0.6124833822250366, -0.33983808755874634, 9.607897758483887, -0.6623023152351379, -2.266284465789795, -7.152841567993164, -10.543732643127441, 14.682929992675781, -1.377197265625, 0.654052734375, 0.421142578125, 0, 
31, 1050212151, 0.5050422549247742, -0.5050336718559265, -0.6121105551719666, -0.3394027054309845, 9.52405834197998, -0.6233402490615845, -2.3300580978393555, -4.9665117263793945, -10.199962615966797, 14.667762756347656, -1.375244140625, 0.654541015625, 0.419677734375, 0, 
32, 1050220484, 0.5047135949134827, -0.5060990452766418, -0.6117984652519226, -0.33886709809303284, 9.396947860717773, -0.569716215133667, -2.4226667881011963, -3.07090425491333, -10.64962100982666, 14.755339622497559, -1.377197265625, 0.657470703125, 0.42919921875, 0, 
33, 1050228817, 0.5044711232185364, -0.5071417689323425, -0.6114677786827087, -0.33826562762260437, 9.384391784667969, -0.5365951657295227, -2.4503891468048096, -1.869621992111206, -10.132469177246094, 15.476662635803223, -1.372802734375, 0.659912109375, 0.426513671875, 0, 
34, 1050237150, 0.5042791962623596, -0.5081906318664551, -0.6110785603523254, -0.33768025040626526, 9.247117042541504, -0.480286180973053, -2.2870237827301025, -1.9401378631591797, -9.232793807983398, 16.138765335083008, -1.371337890625, 0.6650390625, 0.4287109375, 0, 
35, 1050245483, 0.5040929913520813, -0.5092523097991943, -0.6106843948364258, -0.3370712101459503, 9.217893600463867, -0.44738054275512695, -2.2891592979431152, -1.8395766019821167, -9.358817100524902, 16.393091201782227, -1.366943359375, 0.666015625, 0.4287109375, 0, 
36, 1050253816, 0.5038127303123474, -0.510349452495575, -0.6103366017341614, -0.3364604115486145, 9.27768325805664, -0.5253387093544006, -2.296555280685425, -2.4961462020874023, -10.66662883758545, 16.021886825561523, -1.366943359375, 0.66357421875, 0.4267578125, 0, 
37, 1050262149, 0.5033635497093201, -0.5115785598754883, -0.6099444031715393, -0.33597713708877563, 9.440004348754883, -0.7385156750679016, -2.4394166469573975, -5.890058994293213, -11.471505165100098, 15.696457862854004, -1.369384765625, 0.6669921875, 0.433837890625, 0, 
38, 1050270482, 0.502845287322998, -0.512852132320404, -0.6095020174980164, -0.33561402559280396, 9.454089164733887, -0.9191238284111023, -2.6113088130950928, -7.8825154304504395, -11.089879035949707, 15.347211837768555, -1.3662109375, 0.671142578125, 0.432861328125, 0, 
39, 1050278815, 0.5024387836456299, -0.5140451788902283, -0.6090653538703918, -0.3351900577545166, 9.342550277709961, -0.8611419200897217, -2.783068895339966, -6.04187536239624, -10.224527359008789, 15.49169921875, -1.363525390625, 0.674560546875, 0.439697265625, 0, 
40, 1050287148, 0.5022293925285339, -0.5150778889656067, -0.6087154746055603, -0.33455386757850647, 9.291982650756836, -0.8396444320678711, -3.0093982219696045, -1.3417637348175049, -9.958062171936035, 15.995375633239746, -1.365478515625, 0.674072265625, 0.44091796875, 0, 
41, 1050295481, 0.5021702647209167, -0.5159971117973328, -0.6083824038505554, -0.3338313102722168, 9.296632766723633, -0.7750083804130554, -3.1121556758880615, 1.2842211723327637, -8.881699562072754, 16.128494262695312, -1.356689453125, 0.67333984375, 0.44189453125, 0, 
42, 1050303814, 0.502147912979126, -0.5168984532356262, -0.6080345511436462, -0.3331035077571869, 9.262778282165527, -0.7682527303695679, -3.05409574508667, 1.685442566871643, -8.451712608337402, 16.37067413330078, -1.35791015625, 0.678466796875, 0.445556640625, 0, 
43, 1050312147, 0.5021085739135742, -0.5178536772727966, -0.6076418161392212, -0.33239495754241943, 9.230658531188965, -0.8134987354278564, -2.9100358486175537, 0.7848204374313354, -8.370491981506348, 16.849687576293945, -1.350830078125, 0.6796875, 0.4453125, 0, 
44, 1050320480, 0.5021100044250488, -0.5187707543373108, -0.6072615385055542, -0.3316565454006195, 9.228909492492676, -0.9070910811424255, -2.8767969608306885, 1.682176947593689, -8.173121452331543, 16.913225173950195, -1.350341796875, 0.680419921875, 0.44775390625, 0, 
45, 1050328813, 0.5021483898162842, -0.5195746421813965, -0.6069693565368652, -0.33087408542633057, 9.442766189575195, -1.0038272142410278, -3.004033088684082, 3.4610605239868164, -8.251729965209961, 15.733945846557617, -1.348388671875, 0.682861328125, 0.450927734375, 0, 
46, 1050337146, 0.5023321509361267, -0.5201794505119324, -0.6067385077476501, -0.3300671875476837, 9.660552024841309, -1.1149682998657227, -3.1696202754974365, 6.384683132171631, -6.747214317321777, 14.550734519958496, -1.346923828125, 0.6845703125, 0.447021484375, 0, 
47, 1050345479, 0.5026872158050537, -0.5205516815185547, -0.6066115498542786, -0.3291720449924469, 9.905768394470215, -1.1930289268493652, -3.3772034645080566, 10.397741317749023, -5.595033645629883, 13.16630744934082, -1.351806640625, 0.692138671875, 0.445556640625, 0, 
48, 1050353812, 0.5032118558883667, -0.5206642746925354, -0.6066004037857056, -0.32821130752563477, 9.940950393676758, -1.147111415863037, -3.5741100311279297, 14.507035255432129, -4.292242050170898, 11.480609893798828, -1.34814453125, 0.69287109375, 0.44873046875, 0, 
49, 1050362145, 0.5037969946861267, -0.520636260509491, -0.6067124605178833, -0.32714948058128357, 9.764793395996094, -1.0202643871307373, -3.8571972846984863, 17.282827377319336, -4.7119832038879395, 10.30940055847168, -1.3466796875, 0.698974609375, 0.446533203125, 0, 
50, 1050370478, 0.5044313073158264, -0.5205461978912354, -0.6068708300590515, -0.3260195255279541, 9.63770580291748, -0.8948080539703369, -4.020479202270508, 18.8929386138916, -4.844281196594238, 10.239575386047363, -1.3447265625, 0.698974609375, 0.448974609375, 0, 
51, 1050378811, 0.5051834583282471, -0.5203719139099121, -0.6070650815963745, -0.3247690498828888, 9.672835350036621, -0.7707749605178833, -3.99369478225708, 21.434898376464844, -4.582248210906982, 10.557245254516602, -1.343994140625, 0.703369140625, 0.445068359375, 0, 
52, 1050387144, 0.5060862898826599, -0.5200657844543457, -0.6072971820831299, -0.3234170973300934, 9.759912490844727, -0.5255164504051208, -3.872790575027466, 24.472957611083984, -3.726938009262085, 10.657475471496582, -1.3447265625, 0.707763671875, 0.445068359375, 0, 
53, 1050395477, 0.5071291327476501, -0.5196467638015747, -0.6075536608695984, -0.3219725787639618, 9.772976875305176, -0.28133389353752136, -3.7635364532470703, 27.11391830444336, -2.8839986324310303, 10.71487808227539, -1.34521484375, 0.708251953125, 0.443115234375, 0, 
54, 1050403810, 0.5082817077636719, -0.5190757513046265, -0.6078769564628601, -0.3204618990421295, 9.813632011413574, -0.07682815194129944, -3.729473114013672, 29.83656883239746, -2.234652280807495, 10.004392623901367, -1.34130859375, 0.710693359375, 0.44287109375, 0, 
55, 1050412143, 0.5095770359039307, -0.5183483362197876, -0.6082155108451843, -0.3189363181591034, 9.748580932617188, 0.06355047971010208, -3.654357433319092, 32.110565185546875, -0.5630526542663574, 9.231239318847656, -1.338134765625, 0.713623046875, 0.439453125, 0, 
56, 1050420476, 0.5109018683433533, -0.5174896121025085, -0.6086722612380981, -0.3173363506793976, 9.402015686035156, 0.10924363881349564, -3.4484074115753174, 34.41655349731445, -1.0920768976211548, 8.041597366333008, -1.33984375, 0.71728515625, 0.43505859375, 0, 
57, 1050428809, 0.512030839920044, -0.5166379809379578, -0.6093051433563232, -0.3156856298446655, 9.422959327697754, -0.00003177206963300705, -3.3595287799835205, 34.13311767578125, -4.369204044342041, 6.2489447593688965, -1.34228515625, 0.72314453125, 0.4375, 0, 
58, 1050437142, 0.5131298303604126, -0.5156983733177185, -0.6099981665611267, -0.31409451365470886, 9.458009719848633, -0.12461866438388824, -3.608797073364258, 34.332908630371094, -4.2224345207214355, 4.641726970672607, -1.338623046875, 0.722900390625, 0.434326171875, 0, 
59, 1050445475, 0.5143037438392639, -0.5146528482437134, -0.6107459664344788, -0.31243211030960083, 9.3961181640625, -0.2018892765045166, -3.8182291984558105, 36.414302825927734, -4.04620885848999, 4.084028244018555, -1.339111328125, 0.728515625, 0.4296875, 0, 
60, 1050453808, 0.5155009031295776, -0.5135623216629028, -0.6115671396255493, -0.31064242124557495, 9.419105529785156, -0.2119685262441635, -4.018518447875977, 38.31193542480469, -5.057485580444336, 4.29841947555542, -1.335205078125, 0.730224609375, 0.42822265625, 0, 
61, 1050462141, 0.5167725086212158, -0.5124355554580688, -0.6123508810997009, -0.3088412880897522, 9.603562355041504, -0.1577930748462677, -4.023919582366943, 38.99977111816406, -4.110769748687744, 4.547813415527344, -1.34130859375, 0.7373046875, 0.428955078125, 0, 
62, 1050470474, 0.5181323289871216, -0.5112641453742981, -0.6130689978599548, -0.3070741593837738, 9.728413581848145, -0.13732604682445526, -3.957073450088501, 39.4513053894043, -2.448045492172241, 4.876931190490723, -1.3388671875, 0.73779296875, 0.42626953125, 0, 
63, 1050478807, 0.5196026563644409, -0.5100350975990295, -0.6137170195579529, -0.3053342401981354, 9.742914199829102, -0.07573269307613373, -3.872244358062744, 40.03649139404297, -0.6070454120635986, 5.0450119972229, -1.339111328125, 0.746826171875, 0.416015625, 0, 
64, 1050487140, 0.5211270451545715, -0.5087981224060059, -0.6142778396606445, -0.30366796255111694, 9.545900344848633, -0.10662168264389038, -3.69746470451355, 39.53028869628906, 1.0548083782196045, 5.416688442230225, -1.33544921875, 0.742919921875, 0.41455078125, 0, 
65, 1050495473, 0.52248615026474, -0.5077319741249084, -0.6147758364677429, -0.302105188369751, 9.351051330566406, -0.19037964940071106, -3.440124750137329, 35.96590042114258, 0.08922730386257172, 5.741296768188477, -1.339111328125, 0.747314453125, 0.415283203125, 0, 
66, 1050503806, 0.5234627723693848, -0.5069748759269714, -0.615209698677063, -0.3007998764514923, 9.166730880737305, -0.5429596900939941, -3.0135762691497803, 28.672134399414062, -2.1340386867523193, 5.495845794677734, -1.341796875, 0.74658203125, 0.40966796875, 0, 
67, 1050512139, 0.523763120174408, -0.5068150758743286, -0.6154639720916748, -0.3000251054763794, 9.3219575881958, -0.9797540903091431, -2.869694948196411, 14.38710880279541, -5.371191024780273, 5.0523576736450195, -1.337158203125, 0.7529296875, 0.411376953125, 0, 
68, 1050520472, 0.523646891117096, -0.5070943832397461, -0.6155187487602234, -0.2996433675289154, 9.424442291259766, -1.1656030416488647, -3.2315328121185303, 4.234955310821533, -6.492888450622559, 5.743121147155762, -1.334716796875, 0.750732421875, 0.405517578125, 0, 
69, 1050528805, 0.5234718918800354, -0.507662832736969, -0.6152774095535278, -0.29948246479034424, 9.50009822845459, -1.2142903804779053, -3.3001537322998047, -1.409948706626892, -4.548487186431885, 8.291022300720215, -1.34033203125, 0.752197265625, 0.406982421875, 0, 
70, 1050537138, 0.5233956575393677, -0.5083692073822021, -0.6147729754447937, -0.2994530498981476, 9.616205215454102, -1.2138313055038452, -3.460036516189575, -3.8514211177825928, -1.4282883405685425, 10.88548755645752, -1.3359375, 0.749755859375, 0.41259765625, 0, 
71, 1050545471, 0.5233997702598572, -0.5092266201972961, -0.6140748858451843, -0.2994215488433838, 9.584248542785645, -1.1776342391967773, -3.3934872150421143, -5.215404033660889, -0.034130968153476715, 13.730563163757324, -1.333984375, 0.756591796875, 0.412353515625, 0, 
72, 1050553804, 0.523430585861206, -0.5102128386497498, -0.613237202167511, -0.29940536618232727, 9.646300315856934, -1.3307973146438599, -3.1593997478485107, -6.616939544677734, 0.8223452568054199, 15.940126419067383, -1.33251953125, 0.758544921875, 0.412841796875, 0, 
73, 1050562137, 0.5235170722007751, -0.5113195776939392, -0.6122044920921326, -0.299479603767395, 9.586557388305664, -1.5076699256896973, -2.9241600036621094, -8.700889587402344, 2.7848572731018066, 17.75628089904785, -1.32958984375, 0.759033203125, 0.411376953125, 0, 
74, 1050570470, 0.5237357020378113, -0.5124439001083374, -0.6110307574272156, -0.29957276582717896, 9.422279357910156, -1.6127315759658813, -2.7529778480529785, -8.59402847290039, 5.023568630218506, 19.450103759765625, -1.33251953125, 0.76171875, 0.414794921875, 0, 
75, 1050578803, 0.5240070223808289, -0.5135840177536011, -0.609828531742096, -0.29959574341773987, 9.258096694946289, -1.590455412864685, -2.682307243347168, -7.909344673156738, 5.060516357421875, 20.361133575439453, -1.333984375, 0.759765625, 0.4140625, 0, 
76, 1050587136, 0.5241808891296387, -0.5148309469223022, -0.6086137890815735, -0.299621045589447, 9.25304889678955, -1.643717885017395, -2.660007953643799, -9.403284072875977, 3.962472915649414, 21.077144622802734, -1.32763671875, 0.76220703125, 0.418212890625, 0, 
77, 1050595469, 0.5242771506309509, -0.5162010788917542, -0.6073068976402283, -0.29974713921546936, 9.389155387878418, -1.7886619567871094, -2.8125174045562744, -12.098901748657227, 4.132960796356201, 21.564327239990234, -1.327880859375, 0.77099609375, 0.416259765625, 0, 
78, 1050603802, 0.5243822932243347, -0.5175996422767639, -0.605966329574585, -0.29986444115638733, 9.40301513671875, -1.8081042766571045, -2.8681106567382812, -12.255252838134766, 4.313030242919922, 22.28270721435547, -1.327392578125, 0.76416015625, 0.41748046875, 0, 
79, 1050612135, 0.5245906114578247, -0.5189710259437561, -0.6046267151832581, -0.29983383417129517, 9.401985168457031, -1.8025155067443848, -2.872633695602417, -10.140335083007812, 4.18160343170166, 23.400972366333008, -1.32177734375, 0.770263671875, 0.415283203125, 0, 
80, 1050620468, 0.5248920321464539, -0.5202974677085876, -0.6033079624176025, -0.2996642589569092, 9.429800987243652, -1.7006945610046387, -2.8557169437408447, -7.866942882537842, 4.047769069671631, 24.409381866455078, -1.321533203125, 0.776123046875, 0.4189453125, 0, 
81, 1050628801, 0.5254436135292053, -0.5214436650276184, -0.6019997000694275, -0.29933640360832214, 9.323643684387207, -1.5850319862365723, -2.9969656467437744, -3.460677146911621, 5.607651233673096, 24.866621017456055, -1.322265625, 0.77783203125, 0.417724609375, 0, 
82, 1050637134, 0.5261576771736145, -0.5224480032920837, -0.6007876992225647, -0.29876506328582764, 9.201180458068848, -1.4034175872802734, -3.011347532272339, 1.1823536157608032, 5.142239093780518, 25.572032928466797, -1.318359375, 0.780517578125, 0.421142578125, 0, 
83, 1050645467, 0.5270079970359802, -0.5233359932899475, -0.5996402502059937, -0.29801663756370544, 9.322455406188965, -1.3199573755264282, -3.0383894443511963, 4.688650131225586, 4.960826873779297, 25.844711303710938, -1.318359375, 0.7822265625, 0.41748046875, 0, 
84, 1050653800, 0.5279446244239807, -0.5241764187812805, -0.5984870195388794, -0.2971990406513214, 9.319578170776367, -1.1545449495315552, -2.9730026721954346, 6.233855724334717, 5.461406707763672, 26.50008201599121, -1.313720703125, 0.78515625, 0.41259765625, 0, 
85, 1050662133, 0.5288777947425842, -0.5250723361968994, -0.5973206758499146, -0.2963036298751831, 9.449640274047852, -1.0127990245819092, -2.8998641967773438, 6.3606719970703125, 4.690110683441162, 27.45359992980957, -1.311767578125, 0.792724609375, 0.4130859375, 0, 
86, 1050670466, 0.5297707915306091, -0.5260449051856995, -0.5961005091667175, -0.2954390048980713, 9.620433807373047, -0.935279369354248, -2.9620513916015625, 5.085299968719482, 4.713330268859863, 28.234106063842773, -1.31103515625, 0.7939453125, 0.41552734375, 0, 
87, 1050678799, 0.5307354927062988, -0.5270453691482544, -0.5947846174240112, -0.2945754826068878, 9.72325611114502, -0.8402953147888184, -3.067134380340576, 4.9589972496032715, 5.843047618865967, 29.28742027282715, -1.310302734375, 0.80078125, 0.413330078125, 0, 
88, 1050687132, 0.5317625403404236, -0.5280481576919556, -0.5934144854545593, -0.2936892509460449, 9.689135551452637, -0.6899186372756958, -3.126774787902832, 5.396834373474121, 6.626677513122559, 30.269174575805664, -1.3095703125, 0.8037109375, 0.410888671875, 0, 
89, 1050695465, 0.5328277349472046, -0.5291175842285156, -0.5919113755226135, -0.2928661108016968, 9.67091178894043, -0.5887278318405151, -3.029665946960449, 4.097154140472412, 8.044797897338867, 31.319549560546875, -1.306884765625, 0.809814453125, 0.407470703125, 0, 
90, 1050703798, 0.5338698625564575, -0.5302870869636536, -0.5902782678604126, -0.29214832186698914, 9.483800888061523, -0.43515071272850037, -2.9544548988342285, 1.8731324672698975, 9.226985931396484, 32.376792907714844, -1.302978515625, 0.81591796875, 0.404541015625, 0, 
91, 1050712131, 0.534866213798523, -0.5315485000610352, -0.5885739922523499, -0.29147136211395264, 9.346877098083496, -0.3640004098415375, -2.9215917587280273, 0.1885593831539154, 9.253318786621094, 32.9973258972168, -1.3037109375, 0.8154296875, 0.40576171875, 0, 
92, 1050720464, 0.5358019471168518, -0.5329046845436096, -0.5868146419525146, -0.2908225655555725, 9.317097663879395, -0.3638516962528229, -2.9143848419189453, -1.3376920223236084, 9.045370101928711, 33.8832893371582, -1.2978515625, 0.822265625, 0.404052734375, 0, 
93, 1050728797, 0.5366434454917908, -0.5343619585037231, -0.585049033164978, -0.2901534140110016, 9.300934791564941, -0.49118998646736145, -2.9797980785369873, -2.694761276245117, 7.726797580718994, 34.35149002075195, -1.294677734375, 0.8271484375, 0.406982421875, 0, 
94, 1050737130, 0.5374975800514221, -0.5358152985572815, -0.5832662582397461, -0.2894802689552307, 9.381486892700195, -0.5998438596725464, -2.9234619140625, -2.5581347942352295, 7.995800495147705, 34.70323181152344, -1.2939453125, 0.830810546875, 0.4013671875, 0, 
95, 1050745463, 0.5384823679924011, -0.5371477603912354, -0.5814869403839111, -0.28875964879989624, 9.451274871826172, -0.6820850372314453, -2.8011131286621094, -0.3603413999080658, 9.096148490905762, 34.40231704711914, -1.291748046875, 0.83642578125, 0.40283203125, 0, 
96, 1050753796, 0.5394575595855713, -0.5384126901626587, -0.5798165202140808, -0.2879416048526764, 9.389041900634766, -0.6831524968147278, -2.943540096282959, 1.3372820615768433, 7.814103603363037, 33.924102783203125, -1.2880859375, 0.839599609375, 0.404541015625, 0, 
97, 1050762129, 0.5404070615768433, -0.5396842956542969, -0.5781926512718201, -0.28704485297203064, 9.56022834777832, -0.6889806389808655, -3.1751654148101807, 1.853460669517517, 6.602062225341797, 33.93116760253906, -1.28662109375, 0.84814453125, 0.399169921875, 0, 
98, 1050770462, 0.5415026545524597, -0.5408627390861511, -0.5765172839164734, -0.28613027930259705, 9.695245742797852, -0.6066120266914368, -3.276076555252075, 3.6286187171936035, 8.435134887695312, 34.47674560546875, -1.280029296875, 0.853759765625, 0.397705078125, 0, 
99, 1050778795, 0.5427682995796204, -0.5419371724128723, -0.5748019814491272, -0.2851486802101135, 9.706951141357422, -0.3881697356700897, -3.3173742294311523, 5.982390403747559, 9.937565803527832, 34.922637939453125, -1.28125, 0.856201171875, 0.39697265625, 0, 
100, 1050787128, 0.5440740585327148, -0.5429913401603699, -0.573065459728241, -0.28414762020111084, 9.614459037780762, -0.14489200711250305, -3.2158257961273193, 6.556971073150635, 10.40377140045166, 35.43096160888672, -1.27685546875, 0.85986328125, 0.3935546875, 0, 
101, 1050795461, 0.5453550219535828, -0.5441215634346008, -0.5712613463401794, -0.2831614017486572, 9.565862655639648, 0.04370743781328201, -3.1497926712036133, 5.3660736083984375, 10.470792770385742, 36.11823272705078, -1.271728515625, 0.865478515625, 0.39892578125, 0, 
102, 1050803794, 0.5465587973594666, -0.5453648567199707, -0.5693922638893127, -0.2822113037109375, 9.69411849975586, 0.09204285591840744, -3.1414308547973633, 3.4511637687683105, 10.247014045715332, 37.1422004699707, -1.27392578125, 0.874755859375, 0.391845703125, 0, 
103, 1050812127, 0.5477564930915833, -0.546655535697937, -0.5674440860748291, -0.2813149094581604, 9.952526092529297, 0.10216863453388214, -3.155362844467163, 2.2745466232299805, 10.946282386779785, 37.45861053466797, -1.27001953125, 0.882080078125, 0.391357421875, 0, 
104, 1050820460, 0.5488821864128113, -0.5479772090911865, -0.5654625296592712, -0.28053799271583557, 10.030643463134766, 0.0686582550406456, -3.074004650115967, 0.5232610702514648, 11.475152969360352, 36.99879837036133, -1.27001953125, 0.884033203125, 0.390625, 0, 
105, 1050828793, 0.5500186085700989, -0.549301028251648, -0.5634347796440125, -0.2798025608062744, 10.13676643371582, 0.004374091979116201, -3.1531925201416016, 0.0017801914364099503, 12.151113510131836, 36.866783142089844, -1.26416015625, 0.8857421875, 0.39111328125, 0, 
106, 1050837126, 0.5511754751205444, -0.5506144762039185, -0.561344563961029, -0.2791450619697571, 10.323904037475586, -0.049632612615823746, -3.1656131744384766, -0.5371184945106506, 13.481405258178711, 36.99369430541992, -1.2646484375, 0.893310546875, 0.388916015625, 0, 
107, 1050845459, 0.5523543357849121, -0.5519476532936096, -0.5591686367988586, -0.2785484492778778, 10.474543571472168, 0.08814924210309982, -3.42546010017395, -1.3901762962341309, 14.61391544342041, 37.170406341552734, -1.261474609375, 0.8984375, 0.391357421875, 0, 
108, 1050853792, 0.5535577535629272, -0.553241491317749, -0.5569315552711487, -0.27807408571243286, 10.596617698669434, 0.30753031373023987, -3.455366373062134, -1.9977977275848389, 16.41595458984375, 36.75558090209961, -1.25634765625, 0.903076171875, 0.386474609375, 0, 
109, 1050862125, 0.5548220276832581, -0.5544899702072144, -0.5546211004257202, -0.27768561244010925, 10.714532852172852, 0.6531360745429993, -3.317669630050659, -2.2088723182678223, 18.199951171875, 36.28936767578125, -1.253662109375, 0.90869140625, 0.382568359375, 0, 
110, 1050870458, 0.5561196804046631, -0.5556367039680481, -0.5523210763931274, -0.2773817181587219, 10.787751197814941, 1.087891936302185, -3.14915132522583, -1.689504623413086, 19.473403930664062, 35.18998718261719, -1.2470703125, 0.915283203125, 0.37646484375, 0, 
111, 1050878791, 0.5575668811798096, -0.5566338896751404, -0.5499621629714966, -0.27716395258903503, 10.736898422241211, 1.458285927772522, -3.0776450634002686, -0.3767475485801697, 22.22194480895996, 34.140445709228516, -1.252685546875, 0.921875, 0.370849609375, 0, 
112, 1050887124, 0.5592108964920044, -0.557306170463562, -0.5477036237716675, -0.2769729793071747, 10.337752342224121, 1.8217074871063232, -2.848478317260742, 3.891166925430298, 24.452129364013672, 31.759113311767578, -1.25, 0.923095703125, 0.371337890625, 0, 
113, 1050895457, 0.5609483122825623, -0.5576562881469727, -0.5456479787826538, -0.27681243419647217, 10.2700834274292, 1.8950092792510986, -3.113377094268799, 7.5379838943481445, 24.987089157104492, 27.599977493286133, -1.248291015625, 0.923828125, 0.369140625, 0, 
114, 1050903790, 0.5627215504646301, -0.5576958060264587, -0.5437611937522888, -0.2768460214138031, 10.258597373962402, 2.093353033065796, -3.209850311279297, 9.489343643188477, 26.698720932006836, 22.94057273864746, -1.246826171875, 0.928466796875, 0.36279296875, 0, 
115, 1050912123, 0.5645268559455872, -0.5573882460594177, -0.5421459078788757, -0.2769584357738495, 10.312318801879883, 2.3948609828948975, -3.472907066345215, 12.771500587463379, 26.690210342407227, 17.447101593017578, -1.249267578125, 0.931640625, 0.361572265625, 0, 
116, 1050920456, 0.5662969946861267, -0.5567377209663391, -0.5408535599708557, -0.27717944979667664, 10.570667266845703, 2.835444211959839, -3.887834072113037, 15.686199188232422, 26.134048461914062, 11.791447639465332, -1.247314453125, 0.933837890625, 0.355712890625, 0, 
117, 1050928789, 0.5680238604545593, -0.5557167530059814, -0.5399170517921448, -0.27752041816711426, 10.931488990783691, 3.430724620819092, -4.1379780769348145, 18.604095458984375, 25.297767639160156, 4.859588146209717, -1.25341796875, 0.93896484375, 0.3525390625, 0, 
118, 1050937122, 0.5696092844009399, -0.5543378591537476, -0.5393394827842712, -0.2781510353088379, 11.131034851074219, 4.058039665222168, -4.062517166137695, 19.634788513183594, 25.105966567993164, -2.9583826065063477, -1.255859375, 0.9375, 0.34765625, 0, 
119, 1050945455, 0.5709792971611023, -0.5526689291000366, -0.5389530658721924, -0.2794096767902374, 11.22900104522705, 4.4394354820251465, -3.559659957885742, 16.239084243774414, 27.824771881103516, -12.694466590881348, -1.256591796875, 0.933349609375, 0.33447265625, 0, 
120, 1050953788, 0.5719010233879089, -0.5507522225379944, -0.538804829120636, -0.2815861701965332, 11.067045211791992, 4.800119400024414, -3.0532705783843994, 8.997550010681152, 30.654441833496094, -24.84857177734375, -1.26318359375, 0.926025390625, 0.3369140625, 0, 
121, 1050962121, 0.5723924040794373, -0.5484904050827026, -0.5389476418495178, -0.2847120463848114, 10.879714965820312, 5.1309990882873535, -2.652737855911255, 2.438263416290283, 33.60993576049805, -39.16510009765625, -1.27197265625, 0.92529296875, 0.332275390625, 0, 
122, 1050970454, 0.5723986625671387, -0.5457795262336731, -0.5395021438598633, -0.28882887959480286, 10.526344299316406, 5.284635543823242, -1.9776475429534912, -3.3092563152313232, 36.10478210449219, -54.83302688598633, -1.2841796875, 0.915283203125, 0.330322265625, 0, 
123, 1050978787, 0.5718711614608765, -0.5426275730133057, -0.5405252575874329, -0.293856143951416, 10.50605297088623, 5.378195762634277, -1.1955419778823853, -8.846784591674805, 36.94172668457031, -71.37100982666016, -1.294921875, 0.90673828125, 0.327880859375, 0, 
124, 1050987120, 0.5708357095718384, -0.5389249920845032, -0.5420730710029602, -0.29977238178253174, 10.679520606994629, 5.198984146118164, -0.7358459234237671, -12.67309284210205, 37.994834899902344, -87.92098999023438, -1.30712890625, 0.8916015625, 0.318115234375, 0, 
125, 1050995453, 0.5694634914398193, -0.5346077680587769, -0.5441465377807617, -0.3062853217124939, 11.153414726257324, 4.677566051483154, -0.6177914142608643, -12.746125221252441, 38.21848678588867, -102.9743881225586, -1.324462890625, 0.8779296875, 0.317138671875, 0, 
126, 1051003786, 0.5677854418754578, -0.5297175645828247, -0.5467444062232971, -0.31319302320480347, 11.540708541870117, 3.706400156021118, -0.9177349805831909, -11.15427303314209, 37.2388916015625, -114.94365692138672, -1.340087890625, 0.853759765625, 0.318359375, 0, 
127, 1051012119, 0.5658607482910156, -0.524372935295105, -0.5498678088188171, -0.32012563943862915, 12.168813705444336, 2.6892635822296143, -1.717218041419983, -7.425200462341309, 33.32017135620117, -123.9991226196289, -1.359619140625, 0.830078125, 0.3134765625, 0, 
128, 1051020452, 0.5638424158096313, -0.5185208916664124, -0.553467333316803, -0.3269435167312622, 13.151283264160156, 1.9219844341278076, -2.6112537384033203, -1.0828585624694824, 30.39838218688965, -130.20162963867188, -1.377685546875, 0.8095703125, 0.308349609375, 0, 
129, 1051028785, 0.5619029998779297, -0.5122724771499634, -0.5574951171875, -0.3332289457321167, 13.510191917419434, 0.8380325436592102, -3.0560503005981445, 8.425066947937012, 25.579526901245117, -132.37660217285156, -1.393798828125, 0.787109375, 0.305908203125, 0, 
130, 1051037118, 0.5599139928817749, -0.5057788491249084, -0.5618512034416199, -0.3391273617744446, 14.380807876586914, -0.10109243541955948, -3.6601014137268066, 14.536954879760742, 21.152193069458008, -133.1920928955078, -1.412841796875, 0.759033203125, 0.30615234375, 0, 
131, 1051045451, 0.5579806566238403, -0.49936532974243164, -0.5663217902183533, -0.3443424701690674, 14.685431480407715, -1.1123405694961548, -3.9142568111419678, 20.026639938354492, 15.480246543884277, -128.46241760253906, -1.42578125, 0.741455078125, 0.300048828125, 0, 
132, 1051053784, 0.5562000274658203, -0.4930473864078522, -0.5708137154579163, -0.3488803803920746, 14.824874877929688, -2.031515121459961, -3.8577158451080322, 25.806028366088867, 11.51224422454834, -121.3172607421875, -1.440185546875, 0.718505859375, 0.296142578125, 0, 
133, 1051062117, 0.5547862648963928, -0.4866810739040375, -0.5752338767051697, -0.3527887761592865, 14.208216667175293, -2.8829681873321533, -2.918154239654541, 33.170597076416016, 10.796639442443848, -115.26233673095703, -1.455078125, 0.6953125, 0.29345703125, 0, 
134, 1051070450, 0.5536137819290161, -0.48009687662124634, -0.5798362493515015, -0.3561024069786072, 13.352825164794922, -3.115140199661255, -1.9719843864440918, 42.13063049316406, 8.515202522277832, -111.8689956665039, -1.46435546875, 0.677978515625, 0.293701171875, 0, 
135, 1051078783, 0.5529201030731201, -0.47290346026420593, -0.5847187638282776, -0.3588119149208069, 13.05215072631836, -2.7745907306671143, -1.2428040504455566, 56.02498245239258, 9.070716857910156, -112.26045227050781, -1.477294921875, 0.65771484375, 0.285400390625, 0, 
136, 1051087116, 0.5526413321495056, -0.46507006883621216, -0.5900091528892517, -0.36081430315971375, 12.906274795532227, -2.062074899673462, -0.8503149747848511, 71.34117126464844, 8.008338928222656, -112.01780700683594, -1.49072265625, 0.64404296875, 0.27978515625, 0, 
137, 1051095449, 0.5524716973304749, -0.4569703936576843, -0.5957177877426147, -0.36204126477241516, 13.29015827178955, -1.0259153842926025, -0.708940863609314, 82.37680053710938, 1.933958649635315, -111.03570556640625, -1.5009765625, 0.6142578125, 0.2802734375, 0, 
138, 1051103782, 0.5521814823150635, -0.4487638771533966, -0.6017895936965942, -0.3627067804336548, 13.49229907989502, -0.07142013311386108, -0.3886827528476715, 88.91499328613281, -4.656020641326904, -109.92242431640625, -1.51708984375, 0.59765625, 0.26806640625, 0, 
139, 1051112115, 0.5514863133430481, -0.4408929944038391, -0.6078847050666809, -0.36325299739837646, 13.0681791305542, 0.516036331653595, -0.10314126312732697, 84.89443969726562, -10.748642921447754, -109.0088882446289, -1.519775390625, 0.58349609375, 0.2705078125, 0, 
140, 1051120448, 0.5501725673675537, -0.43338897824287415, -0.6139796376228333, -0.3640238642692566, 12.466972351074219, 0.7339666485786438, -0.19130545854568481, 76.55497741699219, -16.22645378112793, -110.1353988647461, -1.52978515625, 0.56591796875, 0.27001953125, 0, 
141, 1051128781, 0.5480730533599854, -0.42654070258140564, -0.6198703646659851, -0.3652944266796112, 11.360405921936035, 0.446970671415329, -0.3684883415699005, 61.597713470458984, -21.782039642333984, -111.69468688964844, -1.542236328125, 0.54345703125, 0.267333984375, 0, 
142, 1051137114, 0.5449594259262085, -0.42051246762275696, -0.6254045963287354, -0.3675019145011902, 10.851515769958496, -0.08842050284147263, -0.7146741151809692, 39.76546096801758, -26.19868278503418, -114.16958618164062, -1.538818359375, 0.528076171875, 0.2734375, 0, 
143, 1051145447, 0.5408834218978882, -0.4154609739780426, -0.6303249597549438, -0.3708477318286896, 10.549118041992188, -0.44760552048683167, -0.8996375203132629, 13.911961555480957, -28.394319534301758, -116.21402740478516, -1.55517578125, 0.500244140625, 0.276611328125, 0, 
144, 1051153780, 0.5358307361602783, -0.411365270614624, -0.6347177624702454, -0.375230073928833, 10.367353439331055, -0.4817003905773163, -1.0656630992889404, -10.37001895904541, -31.72508430480957, -117.00821685791016, -1.558837890625, 0.4716796875, 0.288818359375, 0, 
145, 1051162113, 0.530029296875, -0.40795841813087463, -0.6387256979942322, -0.3803534507751465, 10.478647232055664, -0.5858809351921082, -1.5951932668685913, -28.217182159423828, -34.94841003417969, -118.73954772949219, -1.568359375, 0.449462890625, 0.293701171875, 0, 
146, 1051170446, 0.5237286686897278, -0.40492281317710876, -0.6425555944442749, -0.3858347535133362, 10.485443115234375, -0.45176392793655396, -2.0362820625305176, -37.72275924682617, -37.8129768371582, -119.10897827148438, -1.57080078125, 0.421142578125, 0.308349609375, 0, 
147, 1051178779, 0.5171931982040405, -0.4021206796169281, -0.6463591456413269, -0.39119088649749756, 10.711346626281738, -0.6858758926391602, -2.3048713207244873, -39.82186508178711, -41.79119110107422, -117.8349838256836, -1.571533203125, 0.39453125, 0.316650390625, 0, 
148, 1051187112, 0.510564923286438, -0.3994346261024475, -0.6501105427742004, -0.3963988423347473, 10.749964714050293, -0.8101249933242798, -2.53564715385437, -40.03096389770508, -43.53573226928711, -115.37811279296875, -1.57421875, 0.362548828125, 0.33349609375, 0, 
149, 1051195445, 0.5038185119628906, -0.3969871997833252, -0.6536726951599121, -0.40159735083580017, 10.449663162231445, -1.001994252204895, -2.502190113067627, -43.395084381103516, -44.76967239379883, -113.36519622802734, -1.58349609375, 0.337158203125, 0.340087890625, 0, 
150, 1051203778, 0.4967917501926422, -0.3948659896850586, -0.6569243669509888, -0.4070988595485687, 10.098852157592773, -1.3126871585845947, -2.202681303024292, -51.557308197021484, -45.13589859008789, -111.81233215332031, -1.5810546875, 0.311279296875, 0.351318359375, 0, 
151, 1051212111, 0.4896400570869446, -0.3930296301841736, -0.6598286628723145, -0.412803590297699, 9.798844337463379, -1.4730777740478516, -1.8956305980682373, -58.02866744995117, -44.53290939331055, -110.01355743408203, -1.578125, 0.2802734375, 0.36279296875, 0, 
152, 1051220444, 0.4822728633880615, -0.3912699222564697, -0.6626570820808411, -0.41857677698135376, 9.193208694458008, -1.4335190057754517, -1.559500813484192, -60.68455123901367, -45.89516830444336, -110.03233337402344, -1.58056640625, 0.25439453125, 0.375, 0, 
153, 1051228777, 0.4749853014945984, -0.38953813910484314, -0.6654135584831238, -0.42411550879478455, 9.204124450683594, -1.5728838443756104, -1.5179734230041504, -58.79636764526367, -46.26182556152344, -107.93684387207031, -1.583740234375, 0.224853515625, 0.38916015625, 0, 
154, 1051237110, 0.4677054286003113, -0.3879130482673645, -0.6679922938346863, -0.42960628867149353, 8.925325393676758, -1.631752610206604, -1.293044924736023, -59.98835754394531, -45.77250671386719, -105.1111831665039, -1.578857421875, 0.19677734375, 0.3935546875, 0, 
155, 1051245443, 0.4604482054710388, -0.38665905594825745, -0.6702898144721985, -0.43496444821357727, 8.76478385925293, -1.6276969909667969, -1.2036287784576416, -62.758140563964844, -46.79253005981445, -99.75586700439453, -1.57763671875, 0.1689453125, 0.403076171875, 0, 
156, 1051253776, 0.45321476459503174, -0.3856765031814575, -0.6723253726959229, -0.4402599036693573, 8.439972877502441, -1.6933012008666992, -1.256484866142273, -65.27291870117188, -46.74791717529297, -94.7979736328125, -1.572021484375, 0.142333984375, 0.417236328125, 0, 
157, 1051262109, 0.4460712969303131, -0.38505616784095764, -0.6740943193435669, -0.4453643560409546, 8.265487670898438, -1.9038841724395752, -1.232057809829712, -66.96851348876953, -47.58374786376953, -88.8215560913086, -1.572998046875, 0.1220703125, 0.4287109375, 0, 
158, 1051270442, 0.4388754069805145, -0.38475683331489563, -0.6756927371025085, -0.45032215118408203, 8.333222389221191, -2.4188320636749268, -1.486016869544983, -68.83672332763672, -49.651702880859375, -83.86265563964844, -1.5712890625, 0.0947265625, 0.436279296875, 0, 
159, 1051278775, 0.43197497725486755, -0.38472992181777954, -0.6770223379135132, -0.4549962282180786, 8.503846168518066, -2.752845287322998, -1.453061580657959, -68.0098876953125, -48.5866813659668, -76.86931610107422, -1.56494140625, 0.0712890625, 0.448486328125, 0, 
160, 1051287108, 0.4254900813102722, -0.38475391268730164, -0.6782847046852112, -0.4591870903968811, 8.175475120544434, -2.9823765754699707, -1.741149663925171, -61.97074508666992, -47.09149932861328, -70.0949935913086, -1.564208984375, 0.051513671875, 0.4580078125, 0, 
161, 1051295441, 0.41969892382621765, -0.3843044936656952, -0.6796759366989136, -0.4628216624259949, 7.744833946228027, -3.346886157989502, -2.050623893737793, -49.5913200378418, -41.42964172363281, -68.02986907958984, -1.55908203125, 0.028564453125, 0.464599609375, 0, 
162, 1051303774, 0.4138384461402893, -0.3837091028690338, -0.6816707253456116, -0.4656505882740021, 6.975841045379639, -3.589951515197754, -2.402909755706787, -37.67654037475586, -48.79496383666992, -67.92897033691406, -1.548583984375, 0.014892578125, 0.47021484375, 0, 
163, 1051312107, 0.40857648849487305, -0.3826119303703308, -0.6841768026351929, -0.46752113103866577, 7.17317008972168, -3.969668388366699, -2.836048126220703, -19.471912384033203, -48.035396575927734, -66.49138641357422, -1.548583984375, -0.0048828125, 0.4833984375, 0, 
164, 1051320440, 0.4036719501018524, -0.3813185691833496, -0.6870903372764587, -0.46856385469436646, 7.172486782073975, -4.322538375854492, -2.7212769985198975, -6.01127290725708, -49.961612701416016, -63.11449432373047, -1.54248046875, -0.0166015625, 0.490478515625, 0, 
165, 1051328773, 0.39891430735588074, -0.38031911849975586, -0.6900099515914917, -0.4691600203514099, 6.743762016296387, -4.431460380554199, -2.3222217559814453, -2.682990074157715, -52.936546325683594, -57.36098861694336, -1.537353515625, -0.033935546875, 0.500244140625, 0, 
166, 1051337106, 0.394436240196228, -0.3795927166938782, -0.6926657557487488, -0.46962106227874756, 6.776188373565674, -4.214795112609863, -1.8396453857421875, -3.07429838180542, -51.20151138305664, -50.462379455566406, -1.531982421875, -0.04736328125, 0.51220703125, 0, 
167, 1051345439, 0.39032599329948425, -0.3791981637477875, -0.6950219869613647, -0.4698927402496338, 6.526880741119385, -3.4271087646484375, -1.432008981704712, -3.14957594871521, -49.3065185546875, -42.71822738647461, -1.525146484375, -0.055908203125, 0.519287109375, 0, 
168, 1051353772, 0.38647669553756714, -0.37918922305107117, -0.6973387598991394, -0.4696491062641144, 6.459238052368164, -2.7133655548095703, -1.088906168937683, 0.8686839938163757, -51.681236267089844, -34.031070709228516, -1.5166015625, -0.065673828125, 0.528076171875, 0, 
169, 1051362105, 0.3830620348453522, -0.3796198070049286, -0.6995731592178345, -0.4687749445438385, 6.369361877441406, -2.14623761177063, -0.690285861492157, 6.255590915679932, -53.30059051513672, -23.57261848449707, -1.510498046875, -0.072509765625, 0.539306640625, 0, 
170, 1051370438, 0.3799421191215515, -0.38059383630752563, -0.7017210721969604, -0.46731144189834595, 6.305849075317383, -1.7110921144485474, -0.3974370062351227, 10.093088150024414, -56.49076461791992, -12.57364273071289, -1.5068359375, -0.072509765625, 0.554931640625, 0, 
171, 1051378771, 0.3769976794719696, -0.38239315152168274, -0.7037022709846497, -0.46524345874786377, 6.347926139831543, -1.6733537912368774, -0.07350727915763855, 11.411974906921387, -62.492713928222656, 0.2334233522415161, -1.50439453125, -0.076904296875, 0.557373046875, 0, 
172, 1051387104, 0.37439823150634766, -0.3850901424884796, -0.7051427364349365, -0.46293145418167114, 6.834936141967773, -1.1913682222366333, 0.6286315321922302, 7.520265579223633, -63.28570556640625, 15.529738426208496, -1.4970703125, -0.076416015625, 0.574951171875, 0, 
173, 1051395437, 0.3727327585220337, -0.3885335326194763, -0.7056117653846741, -0.4606783092021942, 7.661656379699707, -0.12057793140411377, 1.5149855613708496, 1.8228178024291992, -53.75741195678711, 33.26260757446289, -1.4912109375, -0.075439453125, 0.586669921875, 0, 
174, 1051403770, 0.37216269969940186, -0.3923121690750122, -0.705375075340271, -0.45829302072525024, 7.744420051574707, 0.9820287823677063, 1.9872621297836304, 2.8183441162109375, -42.26016616821289, 48.174835205078125, -1.48974609375, -0.065185546875, 0.598388671875, 0, 
175, 1051412103, 0.37243562936782837, -0.39617598056793213, -0.704685389995575, -0.45580175518989563, 7.4215898513793945, 1.4486256837844849, 1.8890104293823242, 5.052285671234131, -32.95539855957031, 57.02606964111328, -1.48779296875, -0.05810546875, 0.599853515625, 0, 
176, 1051420436, 0.373196005821228, -0.4001637101173401, -0.7033324241638184, -0.45378127694129944, 7.548848628997803, 1.740225076675415, 1.561501383781433, -1.5827096700668335, -22.99030113220215, 62.74102020263672, -1.482421875, -0.04248046875, 0.60302734375, 0, 
177, 1051428769, 0.3744538128376007, -0.4045794606208801, -0.7008292078971863, -0.45270124077796936, 8.099794387817383, 2.318127155303955, 1.919883370399475, -17.377893447875977, -9.828241348266602, 71.23403930664062, -1.48291015625, -0.04052734375, 0.603759765625, 0, 
178, 1051437102, 0.37641462683677673, -0.409482479095459, -0.6967686414718628, -0.4529346823692322, 8.538248062133789, 3.68281888961792, 1.9967883825302124, -38.26491165161133, 9.269911766052246, 82.45510864257812, -1.486572265625, -0.02978515625, 0.607421875, 0, 
179, 1051445435, 0.37946808338165283, -0.41479119658470154, -0.6911957263946533, -0.4540937542915344, 8.363014221191406, 5.463595867156982, 1.1262409687042236, -52.56611633300781, 30.224185943603516, 96.62516784667969, -1.493408203125, -0.024169921875, 0.6025390625, 0, 
180, 1051453768, 0.3833233714103699, -0.42019063234329224, -0.6853245496749878, -0.4547896683216095, 8.151678085327148, 7.538599967956543, -1.1719048023223877, -45.86388397216797, 36.201412200927734, 106.862548828125, -1.5, -0.008544921875, 0.595458984375, 0, 
181, 1051462101, 0.38763532042503357, -0.4251698851585388, -0.6804753541946411, -0.4537874758243561, 8.114492416381836, 9.216517448425293, -3.947035312652588, -18.67749786376953, 27.92561149597168, 108.55448150634766, -1.505126953125, 0.010498046875, 0.5869140625, 0, 
182, 1051470434, 0.3921947479248047, -0.4289545714855194, -0.67697674036026, -0.45153510570526123, 9.66604995727539, 10.57361888885498, -5.566570281982422, 9.34716510772705, 23.18125343322754, 97.94623565673828, -1.50732421875, 0.024169921875, 0.580322265625, 0, 
183, 1051478767, 0.39563441276550293, -0.4324364960193634, -0.6742318272590637, -0.44931480288505554, 10.879873275756836, 11.91457462310791, -5.665948867797852, 8.672754287719727, 10.765833854675293, 83.29771423339844, -1.513916015625, 0.0390625, 0.5732421875, 0, 
184, 1051487100, 0.39630448818206787, -0.43644118309020996, -0.6716012954711914, -0.44879141449928284, 11.7318115234375, 13.800187110900879, -6.314418792724609, -25.578283309936523, -8.674769401550293, 61.410804748535156, -1.514892578125, 0.0478515625, 0.57421875, 0, 
185, 1051495433, 0.3939560651779175, -0.4405176639556885, -0.6691209673881531, -0.4505777060985565, 12.252325057983398, 16.03614044189453, -7.002303123474121, -64.5791015625, -23.95050048828125, 29.6661319732666, -1.509765625, 0.051513671875, 0.575927734375, 0, 
186, 1051503766, 0.3896248936653137, -0.443123996257782, -0.6679610013961792, -0.45349955558776855, 12.217704772949219, 16.928449630737305, -6.368599891662598, -70.80286407470703, -33.35868835449219, -9.957319259643555, -1.508056640625, 0.046142578125, 0.584716796875, 0, 
187, 1051512099, 0.3850914537906647, -0.4429214298725128, -0.6684457063674927, -0.4568433165550232, 11.701689720153809, 15.47061538696289, -4.570348739624023, -50.69406509399414, -23.941987991333008, -49.643463134765625, -1.5009765625, 0.0263671875, 0.5908203125, 0, 
188, 1051520432, 0.3805120587348938, -0.44056904315948486, -0.6698523163795471, -0.46087682247161865, 10.377070426940918, 12.427599906921387, -2.674675703048706, -40.03932189941406, -11.53670597076416, -78.56204223632812, -1.501953125, 0.006103515625, 0.586181640625, 0, 
189, 1051528765, 0.3758460581302643, -0.43672868609428406, -0.6721846461296082, -0.46494704484939575, 10.027024269104004, 9.96286392211914, -2.186079263687134, -27.348215103149414, -7.527992248535156, -99.01830291748047, -1.5, -0.012451171875, 0.591552734375, 0, 
190, 1051537098, 0.3707837164402008, -0.43170690536499023, -0.6763073801994324, -0.46771472692489624, 10.636781692504883, 7.4185895919799805, -3.074831962585449, -0.001447221846319735, -20.700611114501953, -116.04399871826172, -1.501220703125, -0.038330078125, 0.591064453125, 0, 
191, 1051545431, 0.36470291018486023, -0.4269222021102905, -0.6825522780418396, -0.46781590580940247, 13.547131538391113, 4.3721723556518555, -4.751805305480957, 31.059175491333008, -58.362518310546875, -119.84384155273438, -1.49365234375, -0.06298828125, 0.60400390625, 0, 
192, 1051553764, 0.357990562915802, -0.4236031174659729, -0.6898829936981201, -0.4652577340602875, 18.541675567626953, 0.8180826306343079, -8.71451187133789, 52.087684631347656, -94.76655578613281, -102.71483612060547, -1.477783203125, -0.07958984375, 0.620361328125, 0, 
193, 1051562097, 0.3517521619796753, -0.4206685721874237, -0.6964940428733826, -0.4628223776817322, 17.281850814819336, -2.2015130519866943, -12.69328784942627, 47.046119689941406, -88.48457336425781, -92.91867065429688, -1.463134765625, -0.0966796875, 0.634765625, 0, 
194, 1051570430, 0.3479573428630829, -0.41554099321365356, -0.7006317377090454, -0.46407631039619446, 13.455831527709961, -2.583932876586914, -8.695621490478516, 20.862651824951172, -17.780576705932617, -101.45851135253906, -1.460205078125, -0.113525390625, 0.64453125, 0, 
195, 1051578763, 0.3461832106113434, -0.4122127294540405, -0.7015766501426697, -0.46693509817123413, 9.154088020324707, 0.4735514521598816, 7.310546875, -12.189077377319336, 14.620402336120605, -61.110633850097656, -1.45166015625, -0.126220703125, 0.63623046875, 0, 
196, 1051587096, 0.3424571752548218, -0.41448017954826355, -0.701748788356781, -0.46741658449172974, 12.607796669006348, 4.5302605628967285, 9.355917930603027, -31.78852081298828, -49.886749267578125, -3.546865940093994, -1.44580078125, -0.140625, 0.64013671875, 0, 
197, 1051595429, 0.3442898392677307, -0.41236603260040283, -0.7037986516952515, -0.46485134959220886, 13.34054946899414, 7.208866596221924, -1.1264134645462036, 61.86887741088867, 5.658550262451172, -6.868173599243164, -1.447021484375, -0.137939453125, 0.647705078125, 0, 
198, 1051603762, 0.3473617732524872, -0.4063757061958313, -0.7082784175872803, -0.4610212445259094, 8.367603302001953, -1.100128412246704, -4.736401081085205, 115.15145874023438, 23.753252029418945, -43.84455108642578, -1.44384765625, -0.1337890625, 0.641845703125, 0, 
199, 1051612095, 0.3453007638454437, -0.4035781919956207, -0.710555374622345, -0.46152305603027344, 5.78110933303833, -9.047258377075195, -3.068341016769409, 14.92922306060791, -11.753111839294434, -54.078651428222656, -1.44140625, -0.138671875, 0.64501953125, 0, 
200, 1051620428, 0.34208735823631287, -0.4036974310874939, -0.7112539410591125, -0.46273401379585266, 6.7073211669921875, -10.513432502746582, -3.7122130393981934, -22.118921279907227, -30.088626861572266, -27.11460304260254, -1.43798828125, -0.153564453125, 0.6484375, 0, 
201, 1051628761, 0.3412953019142151, -0.40531301498413086, -0.7120303511619568, -0.46070829033851624, 8.648046493530273, -7.629725456237793, -7.613901138305664, 16.29244613647461, -34.26763153076172, 17.338430404663086, -1.429931640625, -0.15673828125, 0.65087890625, 0, 
202, 1051637094, 0.3444876968860626, -0.4071425497531891, -0.7126445770263672, -0.45574235916137695, 11.079792976379395, -4.9951019287109375, -7.439884185791016, 65.38057708740234, -12.223594665527344, 59.70442581176758, -1.43212890625, -0.1416015625, 0.653564453125, 0, 
203, 1051645427, 0.34881502389907837, -0.41034597158432007, -0.7116290926933289, -0.45114150643348694, 12.486189842224121, -2.651698350906372, -4.569222927093506, 51.31388473510742, 0.039561547338962555, 87.3525161743164, -1.42529296875, -0.12353515625, 0.6591796875, 0, 
204, 1051653760, 0.3540310859680176, -0.4143008589744568, -0.7090410590171814, -0.44752398133277893, 12.366073608398438, 0.41452789306640625, -3.8372020721435547, 33.4232292175293, 17.184368133544922, 104.66564178466797, -1.43115234375, -0.102783203125, 0.65576171875, 0, 
205, 1051662093, 0.3592875599861145, -0.4189867675304413, -0.7055511474609375, -0.44447773694992065, 11.369695663452148, 2.230323553085327, -3.2975571155548096, 18.8941593170166, 20.709718704223633, 114.110107421875, -1.43896484375, -0.084716796875, 0.650634765625, 0, 
206, 1051670426, 0.3631889820098877, -0.42405325174331665, -0.7018184661865234, -0.4424065947532654, 10.83039379119873, 2.1624982357025146, -2.6153838634490967, -1.6373296976089478, 12.079782485961914, 106.34180450439453, -1.4404296875, -0.068603515625, 0.64453125, 0, 
207, 1051678759, 0.3657144010066986, -0.4287717044353485, -0.6983397006988525, -0.44128191471099854, 10.736126899719238, 1.301403522491455, -2.180283546447754, -15.612602233886719, 5.142235279083252, 88.1638412475586, -1.447509765625, -0.052490234375, 0.639404296875, 0, 
208, 1051687092, 0.36716538667678833, -0.4332703649997711, -0.6951375007629395, -0.4407385587692261, 10.134782791137695, 0.23262567818164825, -1.9006599187850952, -24.671842575073242, -1.795465111732483, 75.21752166748047, -1.44482421875, -0.0380859375, 0.63623046875, 0, 
209, 1051695425, 0.36820656061172485, -0.4377518892288208, -0.6921966075897217, -0.4400697946548462, 9.581628799438477, -0.819711446762085, -2.168247938156128, -24.31934356689453, -7.6861162185668945, 71.40755462646484, -1.44970703125, -0.032958984375, 0.6376953125, 0, 
210, 1051703758, 0.36954379081726074, -0.44203320145606995, -0.6895012855529785, -0.43889909982681274, 9.712056159973145, -1.8145979642868042, -2.4483988285064697, -15.18443489074707, -7.923916816711426, 72.58052062988281, -1.445068359375, -0.02294921875, 0.642333984375, 0, 
211, 1051712091, 0.371709406375885, -0.44566595554351807, -0.6873045563697815, -0.43683743476867676, 9.716714859008789, -2.6046290397644043, -2.6772196292877197, 4.529539585113525, -4.102868556976318, 72.70398712158203, -1.4453125, -0.01513671875, 0.63330078125, 0, 
212, 1051720424, 0.37496471405029297, -0.44822731614112854, -0.6858195662498474, -0.4337572157382965, 9.316912651062012, -3.1424524784088135, -3.421431541442871, 30.656526565551758, 2.7426581382751465, 70.16590118408203, -1.44580078125, 0.000244140625, 0.640380859375, 0, 
213, 1051728757, 0.3792737126350403, -0.4497807025909424, -0.6849330067634583, -0.42978593707084656, 9.234790802001953, -3.4168508052825928, -4.010644435882568, 54.25141525268555, 10.126169204711914, 67.6529769897461, -1.447265625, 0.013916015625, 0.6357421875, 0, 
214, 1051737090, 0.384596049785614, -0.4504601061344147, -0.6845243573188782, -0.4249686002731323, 9.483297348022461, -3.315030097961426, -4.347702503204346, 75.92642211914062, 17.102832794189453, 67.03960418701172, -1.4462890625, 0.03369140625, 0.626953125, 0, 
215, 1051745423, 0.39094793796539307, -0.4503869414329529, -0.6844770908355713, -0.4192885458469391, 9.671405792236328, -2.644070625305176, -4.600394248962402, 96.46340942382812, 23.941661834716797, 68.12310791015625, -1.451416015625, 0.054443359375, 0.62646484375, 0, 
216, 1051753756, 0.3981694281101227, -0.4497475326061249, -0.6846206784248352, -0.4128957688808441, 9.644939422607422, -1.601453423500061, -4.604580402374268, 112.75515747070312, 29.951353073120117, 70.60332489013672, -1.448974609375, 0.077392578125, 0.622802734375, 0, 
217, 1051762089, 0.40591365098953247, -0.4488902986049652, -0.68476402759552, -0.405992716550827, 9.249798774719238, -0.5349072813987732, -4.700827121734619, 121.93065643310547, 32.95794677734375, 74.17082977294922, -1.457275390625, 0.095947265625, 0.613037109375, 0, 
218, 1051770422, 0.4136197566986084, -0.44819799065589905, -0.6846609711647034, -0.3990950584411621, 8.747231483459473, 0.1292414367198944, -4.462243556976318, 119.40618896484375, 33.093849182128906, 77.12116241455078, -1.45849609375, 0.12890625, 0.604736328125, 0, 
219, 1051778755, 0.4209420680999756, -0.44801878929138184, -0.6840955018997192, -0.39255666732788086, 8.580424308776855, 0.6603612303733826, -4.039397716522217, 108.14437103271484, 31.500709533691406, 80.5339126586914, -1.46484375, 0.14697265625, 0.601318359375, 0, 
220, 1051787088, 0.42786380648612976, -0.44839295744895935, -0.6831042170524597, -0.3863227963447571, 8.758501052856445, 1.131282091140747, -3.6615772247314453, 97.34300994873047, 29.09823226928711, 84.54778289794922, -1.46435546875, 0.171142578125, 0.593017578125, 0, 
221, 1051795421, 0.4345095157623291, -0.4492177367210388, -0.6817358136177063, -0.3803178668022156, 8.997933387756348, 1.3775728940963745, -3.62229323387146, 88.8013916015625, 27.7304630279541, 88.18206024169922, -1.46435546875, 0.196044921875, 0.583740234375, 0, 
222, 1051803754, 0.44093114137649536, -0.45036232471466064, -0.6800237894058228, -0.37459510564804077, 9.097485542297363, 1.337449312210083, -3.8905649185180664, 81.09422302246094, 27.7711124420166, 90.55365753173828, -1.46240234375, 0.220703125, 0.575439453125, 0, 
223, 1051812087, 0.44699737429618835, -0.45177018642425537, -0.6780192255973816, -0.36930668354034424, 9.06229305267334, 0.9422051906585693, -3.8406689167022705, 71.69734191894531, 27.537267684936523, 90.25481414794922, -1.46337890625, 0.23974609375, 0.5654296875, 0, 
224, 1051820420, 0.45266014337539673, -0.4534006416797638, -0.6757423281669617, -0.36455345153808594, 9.015016555786133, 0.6502939462661743, -3.7216997146606445, 61.47629165649414, 27.663190841674805, 88.78868865966797, -1.466552734375, 0.26025390625, 0.557373046875, 0, 
225, 1051828753, 0.45801275968551636, -0.4551510512828827, -0.673262894153595, -0.360248863697052, 9.10279655456543, 0.47740545868873596, -3.4831161499023438, 53.584991455078125, 28.21773910522461, 86.71318054199219, -1.468505859375, 0.28515625, 0.550537109375, 0, 
226, 1051837086, 0.463174968957901, -0.4568687081336975, -0.6706420183181763, -0.3563416004180908, 9.30452823638916, 0.4216950535774231, -3.288390874862671, 48.27582931518555, 30.02311134338379, 83.94483947753906, -1.465576171875, 0.299072265625, 0.541259765625, 0, 
227, 1051845419, 0.4683355689048767, -0.4583883285522461, -0.6679144501686096, -0.35274985432624817, 9.143976211547852, 0.4300154149532318, -3.2742130756378174, 46.03761291503906, 33.61234664916992, 80.67501068115234, -1.46630859375, 0.321533203125, 0.534423828125, 0, 
228, 1051853752, 0.4732820391654968, -0.45986616611480713, -0.6650821566581726, -0.3495613932609558, 8.872154235839844, 0.5736872553825378, -3.336879014968872, 40.76170349121094, 35.09294891357422, 77.42636108398438, -1.466552734375, 0.338134765625, 0.5244140625, 0, 
229, 1051862085, 0.47805288434028625, -0.46132853627204895, -0.6622585654258728, -0.34648993611335754, 8.686409950256348, 0.8545790314674377, -3.3442137241363525, 38.70690155029297, 34.21623229980469, 75.51234436035156, -1.468017578125, 0.35595703125, 0.51708984375, 0, 
230, 1051870418, 0.4828113913536072, -0.462680459022522, -0.6594299077987671, -0.3434709906578064, 8.727356910705566, 1.0477209091186523, -3.456773519515991, 38.88185119628906, 35.02652359008789, 74.23843383789062, -1.464111328125, 0.364990234375, 0.506591796875, 0, 
231, 1051878751, 0.4874151647090912, -0.46410131454467773, -0.6565127372741699, -0.3406284749507904, 8.677118301391602, 1.2721940279006958, -3.3655178546905518, 35.39230728149414, 34.97796630859375, 73.42124938964844, -1.46875, 0.38037109375, 0.5, 0, 
232, 1051887084, 0.4917972981929779, -0.4654954969882965, -0.6536378860473633, -0.3379453718662262, 8.383213996887207, 1.4271354675292969, -3.527200222015381, 32.95464324951172, 33.86804962158203, 70.90949249267578, -1.469482421875, 0.39453125, 0.489013671875, 0, 
233, 1051895417, 0.49580293893814087, -0.46726900339126587, -0.6506623029708862, -0.3353773355484009, 8.20695686340332, 1.243617296218872, -3.4925646781921387, 26.43764877319336, 30.10675621032715, 72.32981872558594, -1.46728515625, 0.407470703125, 0.48095703125, 0, 
234, 1051903750, 0.4993438124656677, -0.4694961607456207, -0.6474788188934326, -0.33316731452941895, 8.165122032165527, 1.0626550912857056, -3.547529935836792, 16.258737564086914, 27.609365463256836, 73.24949645996094, -1.462646484375, 0.42333984375, 0.475341796875, 0, 
235, 1051912083, 0.5026382207870483, -0.47196340560913086, -0.6442163586616516, -0.3310452103614807, 8.167757987976074, 0.8761129975318909, -3.4304111003875732, 11.8118257522583, 25.389493942260742, 74.0557632446289, -1.462890625, 0.437744140625, 0.46923828125, 0, 
236, 1051920416, 0.5057840943336487, -0.4745370149612427, -0.6409747004508972, -0.32885992527008057, 8.337836265563965, 0.5675737261772156, -3.176190137863159, 10.804475784301758, 23.07578468322754, 74.74182891845703, -1.46142578125, 0.4443359375, 0.46533203125, 0, 
237, 1051928749, 0.508764922618866, -0.4771890342235565, -0.6377620100975037, -0.3266633152961731, 8.636727333068848, 0.32576289772987366, -3.0281410217285156, 9.375243186950684, 20.949941635131836, 74.45734405517578, -1.4580078125, 0.456787109375, 0.46044921875, 0, 
238, 1051937082, 0.5114513039588928, -0.4800497889518738, -0.6345345973968506, -0.32455459237098694, 8.827831268310547, 0.16408565640449524, -2.7225403785705566, 5.183579444885254, 18.1566162109375, 74.57515716552734, -1.453857421875, 0.475830078125, 0.457275390625, 0, 
239, 1051945415, 0.5139357447624207, -0.48311713337898254, -0.6312167644500732, -0.3225420117378235, 8.906282424926758, 0.013186252675950527, -2.5896084308624268, 1.1173627376556396, 16.696250915527344, 75.26849365234375, -1.44775390625, 0.486328125, 0.450439453125, 0, 
240, 1051953748, 0.5163741111755371, -0.4862309694290161, -0.6278864741325378, -0.32046207785606384, 8.82720947265625, 0.2043883204460144, -2.824275493621826, 1.0538904666900635, 15.777721405029297, 76.15929412841797, -1.4443359375, 0.50048828125, 0.444091796875, 0, 
241, 1051962081, 0.518878698348999, -0.489348828792572, -0.624527633190155, -0.31822633743286133, 8.82218074798584, 0.591636598110199, -2.9081501960754395, 2.6463873386383057, 15.44735050201416, 77.65042877197266, -1.444580078125, 0.512939453125, 0.443115234375, 0, 
242, 1051970414, 0.5211175680160522, -0.49272817373275757, -0.6210984587669373, -0.31605762243270874, 9.004796981811523, 0.8570941686630249, -2.905564785003662, -1.8536354303359985, 13.020004272460938, 78.86129760742188, -1.438720703125, 0.524658203125, 0.44140625, 0, 
243, 1051978747, 0.5230660438537598, -0.4965343773365021, -0.6173557639122009, -0.3142097592353821, 9.149002075195312, 1.102515697479248, -2.990490674972534, -11.022588729858398, 13.057023048400879, 80.93619537353516, -1.432861328125, 0.534423828125, 0.43408203125, 0, 
244, 1051987080, 0.5244414806365967, -0.5009486079216003, -0.6134182214736938, -0.3126175105571747, 9.02069091796875, 1.4634613990783691, -2.921463966369629, -22.29580307006836, 8.76183032989502, 83.26649475097656, -1.425537109375, 0.54638671875, 0.4365234375, 0, 
245, 1051995413, 0.5253218412399292, -0.5059849619865417, -0.6091968417167664, -0.31128060817718506, 8.986382484436035, 1.9415888786315918, -2.6713805198669434, -33.59238815307617, 5.668447017669678, 86.34907531738281, -1.4267578125, 0.5556640625, 0.4345703125, 0, 
246, 1052003746, 0.5257225632667542, -0.5114378929138184, -0.6048664450645447, -0.3101356327533722, 8.921709060668945, 2.4631688594818115, -2.227771043777466, -41.9618034362793, 2.034069061279297, 87.30904388427734, -1.420166015625, 0.56494140625, 0.433837890625, 0, 
247, 1052012079, 0.5258387327194214, -0.5169374346733093, -0.6006292700767517, -0.3090539276599884, 9.11169719696045, 2.7554914951324463, -1.8443740606307983, -44.47995376586914, -0.8032561540603638, 85.21935272216797, -1.409912109375, 0.57373046875, 0.44091796875, 0, 
248, 1052020412, 0.5260260701179504, -0.5220270156860352, -0.5966699123382568, -0.3078465759754181, 9.396021842956543, 2.8771841526031494, -1.7077118158340454, -38.732601165771484, -1.3352411985397339, 81.2446060180664, -1.40771484375, 0.58984375, 0.4365234375, 0, 
249, 1052028745, 0.5265917778015137, -0.5264237523078918, -0.5930917263031006, -0.30630290508270264, 9.956011772155762, 3.047388792037964, -1.923609733581543, -26.689687728881836, -0.5119419097900391, 76.6808090209961, -1.398193359375, 0.595703125, 0.443603515625, 0, 
250, 1052037078, 0.5276696681976318, -0.5299779176712036, -0.5898936986923218, -0.30448898673057556, 10.270492553710938, 3.336472988128662, -2.3439114093780518, -13.018352508544922, 2.5442733764648438, 71.36610412597656, -1.3935546875, 0.606689453125, 0.44189453125, 0, 
251, 1052045411, 0.5292462110519409, -0.532780647277832, -0.5869483351707458, -0.30254778265953064, 10.114749908447266, 3.641523599624634, -2.4424357414245605, -1.8974970579147339, 6.93718147277832, 66.24861145019531, -1.387451171875, 0.618408203125, 0.4375, 0, 
252, 1052053744, 0.5312228798866272, -0.5348866581916809, -0.5842510461807251, -0.30058205127716064, 10.010769844055176, 3.7172272205352783, -2.6370065212249756, 7.400259971618652, 11.110980987548828, 60.86808395385742, -1.383544921875, 0.6240234375, 0.435302734375, 0, 
253, 1052062077, 0.533475399017334, -0.5364100933074951, -0.5817687511444092, -0.2986863851547241, 9.817936897277832, 3.6786110401153564, -3.2416155338287354, 13.946133613586426, 14.6493501663208, 55.01383972167969, -1.383544921875, 0.62646484375, 0.43408203125, 0, 
254, 1052070410, 0.5357596278190613, -0.5375645160675049, -0.579409122467041, -0.29710492491722107, 9.586201667785645, 3.5656633377075195, -3.722095012664795, 14.966628074645996, 17.861915588378906, 49.230186462402344, -1.382080078125, 0.637451171875, 0.4306640625, 0, 
255, 1052078743, 0.5379309058189392, -0.5385137796401978, -0.5770382881164551, -0.2960750162601471, 9.518261909484863, 3.627115488052368, -3.915431022644043, 11.111863136291504, 21.934642791748047, 42.90634536743164, -1.375, 0.642822265625, 0.425048828125, 0, 
256, 1052087076, 0.5398542881011963, -0.5392981171607971, -0.5747392773628235, -0.29561787843704224, 9.583157539367676, 3.77148699760437, -4.1882829666137695, 6.33054256439209, 24.38248634338379, 36.096431732177734, -1.376220703125, 0.64453125, 0.41943359375, 0, 
257, 1052095409, 0.5416959524154663, -0.5397597551345825, -0.5725085139274597, -0.29573503136634827, 9.998647689819336, 3.732365131378174, -3.730335235595703, 3.772892713546753, 28.767629623413086, 28.1673583984375, -1.37158203125, 0.652099609375, 0.41845703125, 0, 
258, 1052103742, 0.5433843731880188, -0.539759635925293, -0.5705334544181824, -0.2964535057544708, 10.424534797668457, 3.797459840774536, -3.5560641288757324, 2.458700656890869, 32.03813171386719, 17.836225509643555, -1.37158203125, 0.655517578125, 0.407470703125, 0, 
259, 1052112075, 0.5449919700622559, -0.5391717553138733, -0.568902313709259, -0.29770466685295105, 10.743975639343262, 4.065677642822266, -3.0060412883758545, 3.3965537548065186, 35.14246368408203, 6.05797815322876, -1.3701171875, 0.654541015625, 0.401123046875, 0, 
260, 1052120408, 0.54642254114151, -0.5379230380058289, -0.5678447484970093, -0.29935595393180847, 11.182331085205078, 4.728593826293945, -2.885073661804199, 6.325531482696533, 35.18189239501953, -6.7484869956970215, -1.368408203125, 0.64990234375, 0.393798828125, 0, 
261, 1052128741, 0.5476168990135193, -0.5360442399978638, -0.5674033761024475, -0.30137374997138977, 11.803672790527344, 5.671621322631836, -3.4359166622161865, 8.91535472869873, 33.9617805480957, -20.29438018798828, -1.374267578125, 0.642333984375, 0.385986328125, 0, 
262, 1052137074, 0.5483446717262268, -0.5336741805076599, -0.5677629113197327, -0.30357110500335693, 12.419158935546875, 6.897388935089111, -4.222010612487793, 11.1771240234375, 27.69833755493164, -32.94538497924805, -1.380615234375, 0.636962890625, 0.378173828125, 0, 
263, 1052145407, 0.5491921901702881, -0.5303663015365601, -0.5687687993049622, -0.30594393610954285, 13.511130332946777, 8.260191917419434, -4.266847610473633, 20.37222671508789, 28.913089752197266, -46.20634460449219, -1.3828125, 0.626220703125, 0.3701171875, 0, 
264, 1052153740, 0.5502806901931763, -0.5260214805603027, -0.5702802538871765, -0.30866366624832153, 13.55477237701416, 9.602325439453125, -3.1412153244018555, 29.47222900390625, 33.92674255371094, -59.19718933105469, -1.39111328125, 0.617919921875, 0.361328125, 0, 
265, 1052162073, 0.5517945885658264, -0.5204995274543762, -0.5722432732582092, -0.31167444586753845, 13.061182975769043, 10.970023155212402, -3.2606089115142822, 40.99470138549805, 40.89282989501953, -72.50348663330078, -1.398193359375, 0.605224609375, 0.357421875, 0, 
266, 1052170406, 0.5538926720619202, -0.5139055252075195, -0.5741196274757385, -0.31542202830314636, 12.543007850646973, 11.320401191711426, -2.480616569519043, 47.243186950683594, 56.08454895019531, -82.93651580810547, -1.399169921875, 0.58984375, 0.34326171875, 0, 
267, 1052178739, 0.5554086565971375, -0.5074129700660706, -0.5756524801254272, -0.3204342722892761, 12.070195198059082, 10.16523551940918, 0.07860982418060303, 30.778676986694336, 62.53447341918945, -92.3380355834961, -1.413818359375, 0.57373046875, 0.325439453125, 0, 
268, 1052187072, 0.5551123023033142, -0.5016281604766846, -0.5772402882575989, -0.32712897658348083, 11.665719985961914, 8.217580795288086, 0.8751077651977539, -0.24737267196178436, 56.466461181640625, -107.41687774658203, -1.41943359375, 0.55078125, 0.314208984375, 0, 
269, 1052195405, 0.5530561208724976, -0.49623051285743713, -0.5792498588562012, -0.3351927399635315, 11.826763153076172, 6.060473918914795, -0.33402058482170105, -24.41416358947754, 46.90251541137695, -126.15908813476562, -1.423828125, 0.52392578125, 0.308837890625, 0, 
270, 1052203738, 0.5496907830238342, -0.49071192741394043, -0.581932783126831, -0.34408777952194214, 12.159334182739258, 3.192352294921875, -2.171516180038452, -35.848876953125, 37.64327621459961, -143.48056030273438, -1.4326171875, 0.499267578125, 0.302734375, 0, 
271, 1052212071, 0.5452139973640442, -0.48494860529899597, -0.5854394435882568, -0.3533092141151428, 13.030033111572266, 0.5850895643234253, -4.097710609436035, -40.31003952026367, 25.8234920501709, -159.31861877441406, -1.437744140625, 0.46484375, 0.298828125, 0, 
272, 1052220404, 0.5403918027877808, -0.4784333407878876, -0.5900170803070068, -0.3618816137313843, 14.985928535461426, -1.2836198806762695, -5.3142008781433105, -26.4450626373291, 14.393651008605957, -168.70106506347656, -1.447265625, 0.432373046875, 0.296142578125, 0, 
273, 1052228737, 0.5365116596221924, -0.47095242142677307, -0.5953627824783325, -0.36864981055259705, 18.242843627929688, -3.145989179611206, -4.6012372970581055, 5.287544250488281, 9.20899772644043, -164.1189727783203, -1.45068359375, 0.396728515625, 0.2998046875, 0, 
274, 1052237070, 0.5343161225318909, -0.4628615081310272, -0.6008052229881287, -0.37322741746902466, 20.148962020874023, -4.94704532623291, -2.46081805229187, 39.21630096435547, 11.264751434326172, -144.40879821777344, -1.45361328125, 0.36962890625, 0.29296875, 0, 
275, 1052245403, 0.5334744453430176, -0.4546756148338318, -0.606147050857544, -0.37584710121154785, 18.179643630981445, -6.286925315856934, -1.1815801858901978, 64.1003189086914, 11.142460823059082, -123.845458984375, -1.456787109375, 0.34619140625, 0.287353515625, 0, 
276, 1052253736, 0.5326216220855713, -0.44644787907600403, -0.611914336681366, -0.3775704503059387, 15.262308120727539, -5.759496212005615, -1.3003058433532715, 74.0828857421875, 2.62839937210083, -119.72586822509766, -1.45458984375, 0.3310546875, 0.281982421875, 0, 
277, 1052262069, 0.5316159129142761, -0.43783628940582275, -0.6184462904930115, -0.37842869758605957, 14.782831192016602, -3.5826313495635986, -3.0477988719940186, 87.13043975830078, -7.664637088775635, -122.71937561035156, -1.449462890625, 0.310546875, 0.2861328125, 0, 
278, 1052270402, 0.5306747555732727, -0.42875349521636963, -0.6254149079322815, -0.3786967396736145, 15.190397262573242, -1.4308313131332397, -3.9671974182128906, 98.34131622314453, -11.313483238220215, -124.12580871582031, -1.450927734375, 0.292236328125, 0.280517578125, 0, 
279, 1052278735, 0.5299638509750366, -0.4194328188896179, -0.6322601437568665, -0.37876346707344055, 15.846698760986328, 0.11014394462108612, -3.918264150619507, 102.43894958496094, -8.476518630981445, -123.35600280761719, -1.453857421875, 0.27392578125, 0.277099609375, 0, 
280, 1052287068, 0.5292196869850159, -0.4099419116973877, -0.6389629244804382, -0.37894681096076965, 15.497420310974121, 1.5710575580596924, -3.277714729309082, 101.80498504638672, -6.0475687980651855, -124.47953033447266, -1.451171875, 0.255615234375, 0.277587890625, 0, 
281, 1052295401, 0.5279973149299622, -0.40074968338012695, -0.6455682516098022, -0.3792893588542938, 14.088735580444336, 2.612199306488037, -2.7362430095672607, 94.95584869384766, -10.32123851776123, -125.51280212402344, -1.447265625, 0.2392578125, 0.27587890625, 0, 
282, 1052303734, 0.5256500840187073, -0.3925391137599945, -0.6518303155899048, -0.3804241418838501, 12.588433265686035, 2.9059226512908936, -2.382101535797119, 72.87476348876953, -18.425113677978516, -125.97199249267578, -1.442626953125, 0.222900390625, 0.274169921875, 0, 
283, 1052312067, 0.5217123627662659, -0.38635507225990295, -0.6570677757263184, -0.3831556439399719, 11.523382186889648, 2.284832239151001, -2.130333185195923, 29.896944046020508, -27.400144577026367, -122.69241333007812, -1.437255859375, 0.201171875, 0.2822265625, 0, 
284, 1052320400, 0.5160212516784668, -0.38272586464881897, -0.6607597470283508, -0.3881233334541321, 10.997269630432129, 0.8888669610023499, -2.1272482872009277, -26.016637802124023, -33.58541488647461, -116.12183380126953, -1.43994140625, 0.17626953125, 0.28857421875, 0, 
285, 1052328733, 0.5090850591659546, -0.3809831440448761, -0.6631051301956177, -0.39493823051452637, 10.901256561279297, -0.8817652463912964, -2.075410842895508, -70.0099868774414, -35.84171676635742, -112.20393371582031, -1.4326171875, 0.16015625, 0.291259765625, 0, 
286, 1052337066, 0.5013492703437805, -0.3799770772457123, -0.6648384928703308, -0.40281060338020325, 10.854690551757812, -2.517012119293213, -1.850819706916809, -92.2496337890625, -37.16571807861328, -113.46550750732422, -1.423095703125, 0.1357421875, 0.2978515625, 0, 
287, 1052345399, 0.4932411015033722, -0.3788640797138214, -0.6665143966674805, -0.41101616621017456, 10.909573554992676, -4.052772521972656, -1.5106430053710938, -96.89674377441406, -37.98416519165039, -119.0627670288086, -1.422607421875, 0.1083984375, 0.30224609375, 0, 
288, 1052353732, 0.48499172925949097, -0.37714868783950806, -0.6686899662017822, -0.41880300641059875, 10.628293991088867, -4.862163066864014, -1.3997544050216675, -86.8123550415039, -41.31341552734375, -124.60274505615234, -1.418701171875, 0.086181640625, 0.314208984375, 0, 
289, 1052362065, 0.47698265314102173, -0.3744441568851471, -0.6716912388801575, -0.42557063698768616, 10.106213569641113, -5.5018792152404785, -1.5265378952026367, -64.91215515136719, -44.33150100708008, -130.34283447265625, -1.4111328125, 0.059814453125, 0.317626953125, 0, 
290, 1052370398, 0.4691421687602997, -0.3709605634212494, -0.6754094362258911, -0.43141210079193115, 9.368112564086914, -5.724838733673096, -1.5806108713150024, -46.10380172729492, -47.56586456298828, -133.65834045410156, -1.40234375, 0.03173828125, 0.32568359375, 0, 
291, 1052378731, 0.46146824955940247, -0.3671703338623047, -0.6795167922973633, -0.43645212054252625, 8.54495906829834, -5.4524946212768555, -1.5794137716293335, -33.60337448120117, -50.91853713989258, -132.84185791015625, -1.395263671875, 0.01123046875, 0.333984375, 0, 
292, 1052387064, 0.45388105511665344, -0.3634580969810486, -0.6838146448135376, -0.44078120589256287, 7.761101245880127, -4.988323211669922, -1.5402379035949707, -25.820026397705078, -55.264156341552734, -127.56932830810547, -1.388427734375, -0.010986328125, 0.34326171875, 0, 
293, 1052395397, 0.4464374780654907, -0.3601263463497162, -0.6879613399505615, -0.44464847445487976, 7.206576824188232, -4.606377601623535, -1.439782977104187, -24.104814529418945, -57.69522476196289, -119.95684051513672, -1.37744140625, -0.03369140625, 0.3466796875, 0, 
294, 1052403730, 0.43890276551246643, -0.35737502574920654, -0.6917272806167603, -0.4485098123550415, 7.138331413269043, -4.047862529754639, -1.206669569015503, -30.34249496459961, -59.68939971923828, -112.66641235351562, -1.374755859375, -0.05224609375, 0.353271484375, 0, 
295, 1052412063, 0.4314822256565094, -0.35542190074920654, -0.694610059261322, -0.452786386013031, 7.306634902954102, -3.14402174949646, -0.7980797290802002, -44.04470443725586, -56.26414108276367, -102.96879577636719, -1.359619140625, -0.069580078125, 0.36328125, 0, 
296, 1052420396, 0.4237031936645508, -0.35455700755119324, -0.6969751119613647, -0.4571551978588104, 6.570913314819336, -2.19731068611145, -0.741044282913208, -56.298030853271484, -62.839271545410156, -92.41990661621094, -1.353759765625, -0.08642578125, 0.370361328125, 0, 
297, 1052428729, 0.4157496988773346, -0.3544163107872009, -0.6990038752555847, -0.4614490568637848, 6.09446382522583, -2.331244945526123, -1.2061347961425781, -62.82420349121094, -67.57440185546875, -84.90129089355469, -1.343505859375, -0.1083984375, 0.37548828125, 0, 
298, 1052437062, 0.4075736999511719, -0.3552083373069763, -0.7007885575294495, -0.4654097259044647, 5.892090320587158, -2.9774961471557617, -1.75740647315979, -67.537353515625, -75.76443481445312, -73.87556457519531, -1.335205078125, -0.12744140625, 0.388916015625, 0, 
299, 1052445395, 0.3997351825237274, -0.3566914498806, -0.7021043300628662, -0.4690764844417572, 6.194063663482666, -3.2602763175964355, -2.1482250690460205, -69.9817123413086, -75.83696746826172, -61.49711990356445, -1.321044921875, -0.140380859375, 0.39697265625, 0, 
300, 1052453728, 0.3925919234752655, -0.3582424819469452, -0.7030268907546997, -0.47253307700157166, 5.905772686004639, -3.5448198318481445, -2.20003080368042, -67.39775085449219, -68.34454345703125, -52.916969299316406, -1.31689453125, -0.149169921875, 0.4033203125, 0, 
301, 1052462061, 0.386181116104126, -0.359736829996109, -0.7034248113632202, -0.47607511281967163, 5.744318962097168, -3.8752174377441406, -1.8851163387298584, -67.77043151855469, -57.72894287109375, -46.93698501586914, -1.306396484375, -0.16455078125, 0.412841796875, 0, 
302, 1052470394, 0.3803595006465912, -0.3612832725048065, -0.7034505009651184, -0.4795401394367218, 5.667904853820801, -3.9358503818511963, -1.788756251335144, -66.7853012084961, -50.692527770996094, -39.99468994140625, -1.307373046875, -0.17431640625, 0.418212890625, 0, 
303, 1052478727, 0.37499308586120605, -0.36317574977874756, -0.7034177184104919, -0.4823768734931946, 5.441564559936523, -4.465336799621582, -2.1440114974975586, -60.682857513427734, -51.468379974365234, -30.399078369140625, -1.29248046875, -0.178955078125, 0.421630859375, 0, 
304, 1052487060, 0.3700523376464844, -0.3655652105808258, -0.7033442854881287, -0.4844897389411926, 5.307084083557129, -4.94308614730835, -2.124255657196045, -54.35133743286133, -53.975318908691406, -18.533958435058594, -1.2900390625, -0.18701171875, 0.426025390625, 0, 
305, 1052495393, 0.3654547333717346, -0.3686622381210327, -0.7030481696128845, -0.48606032133102417, 5.202550888061523, -5.350138187408447, -1.7733858823776245, -52.50093078613281, -57.04148864746094, -5.823683738708496, -1.283935546875, -0.193115234375, 0.42919921875, 0, 
306, 1052503726, 0.3611092269420624, -0.37251147627830505, -0.7023972868919373, -0.4873124659061432, 5.155186653137207, -5.8511762619018555, -1.2533183097839355, -54.27400588989258, -59.393070220947266, 6.80360221862793, -1.277587890625, -0.19482421875, 0.435302734375, 0, 
307, 1052512059, 0.357126384973526, -0.37713342905044556, -0.7012538909912109, -0.4883383810520172, 5.294941425323486, -6.139123439788818, -0.44742652773857117, -57.390281677246094, -59.85234069824219, 20.07477378845215, -1.268310546875, -0.199951171875, 0.44140625, 0, 
308, 1052520392, 0.3537837862968445, -0.38238099217414856, -0.6998038291931152, -0.48877063393592834, 5.9853363037109375, -5.5518059730529785, 0.5925055146217346, -53.45537185668945, -59.38762283325195, 35.14738464355469, -1.265869140625, -0.19921875, 0.445068359375, 0, 
309, 1052528725, 0.3520056903362274, -0.3877216577529907, -0.6985800862312317, -0.48759639263153076, 7.3058624267578125, -4.589205741882324, 1.5492331981658936, -28.721492767333984, -54.57050323486328, 52.95112228393555, -1.26220703125, -0.1982421875, 0.452392578125, 0, 
310, 1052537058, 0.35213974118232727, -0.3926191031932831, -0.698142945766449, -0.4841945171356201, 8.019872665405273, -3.5052578449249268, 2.2977566719055176, 10.32062816619873, -48.851295471191406, 68.29375457763672, -1.2568359375, -0.184814453125, 0.46142578125, 0, 
311, 1052545391, 0.35358187556266785, -0.3969482481479645, -0.6987096667289734, -0.47876593470573425, 7.782746315002441, -2.4275190830230713, 2.7231297492980957, 46.250343322753906, -48.37525177001953, 75.75041198730469, -1.255859375, -0.1708984375, 0.468017578125, 0, 
312, 1052553724, 0.3559924066066742, -0.40067729353904724, -0.6994739770889282, -0.47271937131881714, 7.6525492668151855, -1.2494155168533325, 2.900325059890747, 61.71689987182617, -39.412193298339844, 78.44570922851562, -1.253662109375, -0.15771484375, 0.471923828125, 0, 
313, 1052562057, 0.3596403896808624, -0.4041271507740021, -0.6991862058639526, -0.4674176573753357, 8.500343322753906, 0.545717179775238, 3.9188342094421387, 55.873207092285156, -16.481491088867188, 85.79668426513672, -1.250244140625, -0.139404296875, 0.47900390625, 0, 
314, 1052570390, 0.36462298035621643, -0.40772169828414917, -0.6970660090446472, -0.4635864496231079, 9.358050346374512, 2.8042802810668945, 4.854698181152344, 36.695316314697266, 12.674766540527344, 98.81214904785156, -1.2529296875, -0.122314453125, 0.479736328125, 0, 
315, 1052578723, 0.37111562490463257, -0.41165703535079956, -0.6936705708503723, -0.4600359797477722, 9.43488883972168, 5.1462249755859375, 4.7470173835754395, 32.59572219848633, 32.92707061767578, 117.31268310546875, -1.25634765625, -0.104248046875, 0.476318359375, 0, 
316, 1052587056, 0.3792351186275482, -0.4158843159675598, -0.6901401877403259, -0.45489296317100525, 9.331034660339355, 7.175948619842529, 1.7007039785385132, 54.69809341430664, 38.26345443725586, 139.40310668945312, -1.270263671875, -0.079833984375, 0.468017578125, 0, 
317, 1052595389, 0.3892686665058136, -0.41966816782951355, -0.6870818734169006, -0.4475121796131134, 10.218714714050293, 11.19313907623291, -4.723909378051758, 92.10356140136719, 43.952579498291016, 156.0200958251953, -1.268798828125, -0.0537109375, 0.463623046875, 0, 
318, 1052603722, 0.3986720144748688, -0.42310163378715515, -0.6856325268745422, -0.4381255805492401, 11.925628662109375, 17.286752700805664, -11.758201599121094, 119.2531509399414, 19.928081512451172, 150.41905212402344, -1.273681640625, -0.018310546875, 0.455810546875, 0, 
319, 1052612055, 0.4041336178779602, -0.42586466670036316, -0.6862654089927673, -0.4293663501739502, 14.040607452392578, 20.58349609375, -13.589859962463379, 106.567138671875, -20.92829704284668, 104.65558624267578, -1.279296875, 0.010009765625, 0.459716796875, 0, 
320, 1052620388, 0.4023205637931824, -0.42915061116218567, -0.687308669090271, -0.4261159896850586, 14.151534080505371, 21.735790252685547, -13.339198112487793, 11.547335624694824, -62.697906494140625, 33.80428695678711, -1.26953125, 0.025146484375, 0.462890625, 0, 
321, 1052628721, 0.39289984107017517, -0.43338438868522644, -0.6879253387451172, -0.42961230874061584, 14.432607650756836, 24.708023071289062, -14.171985626220703, -104.91900634765625, -97.97057342529297, -36.81352996826172, -1.260986328125, 0.015380859375, 0.4765625, 0, 
322, 1052637054, 0.3850608468055725, -0.4314342737197876, -0.6913179159164429, -0.43321189284324646, 13.359833717346191, 22.59733009338379, -9.525466918945312, -46.572486877441406, -60.83149719238281, -102.80867004394531, -1.254638671875, -0.000732421875, 0.484375, 0, 
323, 1052645387, 0.3808383047580719, -0.4244524836540222, -0.6965326070785522, -0.43548253178596497, 10.005026817321777, 17.559362411499023, -3.62809419631958, 24.933612823486328, -14.032130241394043, -133.13426208496094, -1.244384765625, -0.019287109375, 0.493896484375, 0, 
324, 1052653720, 0.3770933449268341, -0.4167384207248688, -0.7012433409690857, -0.4386202394962311, 7.719141960144043, 12.10999870300293, -1.50031578540802, 20.33289337158203, 2.6838674545288086, -138.53700256347656, -1.2421875, -0.038330078125, 0.4892578125, 0, 
325, 1052662053, 0.37257930636405945, -0.40955519676208496, -0.7063097953796387, -0.44110777974128723, 5.460236549377441, 9.08704948425293, -2.778735399246216, 21.48831558227539, -13.561664581298828, -137.07484436035156, -1.2412109375, -0.053955078125, 0.489501953125, 0, 
326, 1052670386, 0.36496004462242126, -0.40389347076416016, -0.7141580581665039, -0.44006025791168213, 5.249973297119141, 5.257458209991455, -8.612653732299805, 47.541038513183594, -87.05294036865234, -138.29074096679688, -1.2265625, -0.072021484375, 0.4951171875, 0, 
327, 1052678719, 0.3550993502140045, -0.3992433547973633, -0.723842978477478, -0.43653303384780884, 14.249664306640625, -3.7672507762908936, -21.357576370239258, 65.35718536376953, -138.24411010742188, -140.076171875, -1.20947265625, -0.0859375, 0.516357421875, 0, 
328, 1052687052, 0.349833220243454, -0.3966105878353119, -0.7285787463188171, -0.43530455231666565, 22.605459213256836, -14.442678451538086, -13.843658447265625, 28.268970489501953, -67.73868560791016, -76.04509735107422, -1.1982421875, -0.09326171875, 0.53125, 0, 
329, 1052695385, 0.34374579787254333, -0.40286657214164734, -0.7218896746635437, -0.44543570280075073, 15.804089546203613, -22.710962295532227, 21.715181350708008, -201.31471252441406, -12.347288131713867, 15.341507911682129, -1.198486328125, -0.103271484375, 0.531005859375, 0, 
330, 1052703718, 0.333344966173172, -0.4174629747867584, -0.7064509391784668, -0.4642554521560669, 14.39186954498291, -7.404747009277344, 27.269573211669922, -404.4494934082031, -16.655681610107422, 79.4820556640625, -1.194580078125, -0.128173828125, 0.52001953125, 0, 
331, 1052712051, 0.3347443640232086, -0.4252831041812897, -0.6989866495132446, -0.46743813157081604, 15.016802787780762, 8.238120079040527, 3.1618738174438477, -102.85182189941406, 14.81588077545166, 114.52667236328125, -1.19921875, -0.134765625, 0.5078125, 0, 
332, 1052720384, 0.348321795463562, -0.4236038029193878, -0.7053298354148865, -0.4491570293903351, 20.768823623657227, 18.532119750976562, -22.67024040222168, 307.3170471191406, 3.8229453563690186, 119.80933380126953, -1.197998046875, -0.103759765625, 0.516357421875, 0, 
333, 1052728717, 0.3661355972290039, -0.4135761857032776, -0.7086470723152161, -0.43899795413017273, 17.751480102539062, 14.896452903747559, -13.449108123779297, 274.3863220214844, 158.32386779785156, 43.46589279174805, -1.20751953125, -0.0634765625, 0.501708984375, 0, 
334, 1052737050, 0.3701441287994385, -0.4084468185901642, -0.7076761722564697, -0.4419945478439331, 3.530209541320801, 5.008403778076172, 0.5668054819107056, 17.2170352935791, 90.6227798461914, -33.7154426574707, -1.216796875, -0.052490234375, 0.4853515625, 0, 
335, 1052745383, 0.36239492893218994, -0.4092274606227875, -0.7068172097206116, -0.4490126371383667, -0.8840320706367493, -5.7860260009765625, -1.794797658920288, -117.48343658447266, -37.70936584472656, -69.04586029052734, -1.221923828125, -0.0625, 0.482666015625, 0, 
336, 1052753716, 0.35180994868278503, -0.41366735100746155, -0.7049236297607422, -0.45628082752227783, 4.282383918762207, -5.146415710449219, -6.486213207244873, -160.38204956054688, -81.29922485351562, -46.107505798339844, -1.21435546875, -0.08837890625, 0.485107421875, 0, 
337, 1052762049, 0.3442389667034149, -0.4200202524662018, -0.7034741044044495, -0.45848363637924194, 12.355953216552734, -6.121448993682861, -5.1718902587890625, -100.71688842773438, -95.05305480957031, 13.026124000549316, -1.200927734375, -0.10107421875, 0.49755859375, 0, 
338, 1052770382, 0.3410985767841339, -0.42639783024787903, -0.7009318470954895, -0.45883727073669434, 14.95119571685791, -10.5724458694458, -2.601076126098633, -64.14127349853516, -57.84524154663086, 56.538291931152344, -1.1953125, -0.098388671875, 0.509765625, 0, 
339, 1052778715, 0.3413572311401367, -0.43074145913124084, -0.6991094350814819, -0.45736587047576904, 12.09951114654541, -10.003480911254883, 0.03752154856920242, -12.637386322021484, -26.335424423217773, 62.44640350341797, -1.195068359375, -0.093994140625, 0.510986328125, 0, 
340, 1052787048, 0.3443605303764343, -0.432905375957489, -0.6989758014678955, -0.4532569944858551, 12.198814392089844, -8.674196243286133, -1.497662901878357, 49.92853546142578, -9.78444766998291, 61.338233947753906, -1.1923828125, -0.078857421875, 0.512451171875, 0, 
341, 1052795381, 0.3500383496284485, -0.43342116475105286, -0.6989337801933289, -0.4484543204307556, 11.387979507446289, -5.345414161682129, -4.322929382324219, 80.79621887207031, 21.626220703125, 64.69959259033203, -1.1962890625, -0.064453125, 0.511474609375, 0, 
342, 1052803714, 0.35745182633399963, -0.43311232328414917, -0.6988210678100586, -0.44304758310317993, 9.625772476196289, -2.439281940460205, -5.364612579345703, 100.54804229736328, 40.122764587402344, 70.9582748413086, -1.19970703125, -0.049560546875, 0.506103515625, 0, 
343, 1052812047, 0.36499232053756714, -0.43290188908576965, -0.6984965205192566, -0.4375835359096527, 9.413047790527344, -1.1530603170394897, -5.0636887550354, 100.01437377929688, 41.4556884765625, 74.06932830810547, -1.206787109375, -0.025146484375, 0.500732421875, 0, 
344, 1052820380, 0.3717738389968872, -0.4333495795726776, -0.6979917287826538, -0.4322040379047394, 9.760271072387695, -0.4644315242767334, -4.420591831207275, 90.3403549194336, 31.601266860961914, 76.59342193603516, -1.208984375, -0.009765625, 0.49169921875, 0, 
345, 1052828713, 0.3777746558189392, -0.4347076117992401, -0.6972101330757141, -0.42686542868614197, 10.041156768798828, -0.2517687976360321, -3.8901538848876953, 78.95230102539062, 20.36808967590332, 82.01014709472656, -1.209716796875, 0.00830078125, 0.49169921875, 0, 
346, 1052837046, 0.3833156228065491, -0.43684864044189453, -0.6959867477416992, -0.42170509696006775, 9.90466594696045, -0.10343988239765167, -3.830033779144287, 67.86224365234375, 14.71474838256836, 88.64322662353516, -1.21240234375, 0.02587890625, 0.48828125, 0, 
347, 1052845379, 0.38886284828186035, -0.4391355514526367, -0.694712221622467, -0.4163183271884918, 9.79650592803955, -0.17021526396274567, -3.881103277206421, 68.97280883789062, 12.847381591796875, 91.46713256835938, -1.215087890625, 0.04443359375, 0.4833984375, 0, 
348, 1052853712, 0.39468538761138916, -0.4410254955291748, -0.6936168670654297, -0.41062861680984497, 10.04397201538086, -0.7721554040908813, -4.166240692138672, 76.71394348144531, 14.961116790771484, 89.87413787841797, -1.213134765625, 0.072509765625, 0.480224609375, 0, 
349, 1052862045, 0.400810182094574, -0.4424036145210266, -0.6925593018531799, -0.4049595892429352, 10.309576034545898, -1.4825143814086914, -4.083160400390625, 81.30313110351562, 20.65717124938965, 86.27253723144531, -1.21484375, 0.0888671875, 0.482421875, 0, 
350, 1052870378, 0.4073067903518677, -0.4433498978614807, -0.6913954615592957, -0.3993930518627167, 10.388917922973633, -1.724527359008789, -3.913029670715332, 84.40503692626953, 27.810152053833008, 84.38337707519531, -1.21484375, 0.10791015625, 0.47119140625, 0, 
351, 1052878711, 0.41427919268608093, -0.4439997971057892, -0.6900572776794434, -0.3937745690345764, 10.173118591308594, -1.3461217880249023, -3.9277334213256836, 88.47633361816406, 34.623077392578125, 85.46058654785156, -1.219970703125, 0.131103515625, 0.467041015625, 0, 
352, 1052887044, 0.4215678572654724, -0.4444698393344879, -0.6885432004928589, -0.3881181478500366, 9.746381759643555, -0.8236622214317322, -3.9401657581329346, 90.85553741455078, 39.36445236206055, 86.81201171875, -1.216552734375, 0.14599609375, 0.4619140625, 0, 
353, 1052895377, 0.4288662374019623, -0.4448970854282379, -0.6868639588356018, -0.38256871700286865, 9.173284530639648, -0.10315930843353271, -4.070586681365967, 89.25054931640625, 41.30068588256836, 86.79228210449219, -1.2236328125, 0.162109375, 0.454345703125, 0, 
354, 1052903710, 0.4359583258628845, -0.4453135132789612, -0.6851411461830139, -0.37711822986602783, 8.500669479370117, 0.6068326234817505, -4.256836414337158, 86.90519714355469, 40.270145416259766, 85.33071899414062, -1.226318359375, 0.18310546875, 0.445068359375, 0, 
355, 1052912043, 0.4427298903465271, -0.4457700848579407, -0.683412492275238, -0.3717890977859497, 8.139690399169922, 0.8937157392501831, -4.566912651062012, 83.5126724243164, 37.82030487060547, 83.3128433227539, -1.23095703125, 0.200439453125, 0.4384765625, 0, 
356, 1052920376, 0.44900551438331604, -0.4465245008468628, -0.6814271211624146, -0.3669702410697937, 8.164715766906738, 0.71540766954422, -4.41277551651001, 72.56236267089844, 36.333274841308594, 82.07847595214844, -1.23291015625, 0.2216796875, 0.432861328125, 0, 
357, 1052928709, 0.45486781001091003, -0.4477548897266388, -0.679008960723877, -0.36270901560783386, 8.219042778015137, 0.4810621738433838, -3.978248357772827, 59.66612243652344, 36.14995574951172, 83.6321029663086, -1.2275390625, 0.238525390625, 0.420166015625, 0, 
358, 1052937042, 0.4603515863418579, -0.4494721293449402, -0.6762550473213196, -0.35879039764404297, 8.442696571350098, 0.4202832281589508, -3.5481033325195312, 49.42819595336914, 34.40909194946289, 86.24468994140625, -1.228271484375, 0.255859375, 0.41162109375, 0, 
359, 1052945375, 0.46569323539733887, -0.4513908922672272, -0.6732525825500488, -0.355116069316864, 8.730557441711426, 0.2755768895149231, -3.5970635414123535, 43.76237106323242, 35.1645393371582, 87.37689208984375, -1.231201171875, 0.27001953125, 0.39990234375, 0, 
360, 1052953708, 0.4709208607673645, -0.4534231126308441, -0.6699698567390442, -0.35182613134384155, 8.965767860412598, 0.012044542469084263, -3.7269372940063477, 37.40610885620117, 37.75102996826172, 87.18162536621094, -1.2255859375, 0.287353515625, 0.39794921875, 0, 
361, 1052962041, 0.47625288367271423, -0.45526444911956787, -0.6666385531425476, -0.348583847284317, 8.995474815368652, 0.17883408069610596, -3.655674457550049, 38.613555908203125, 40.23134231567383, 85.88893127441406, -1.2333984375, 0.30224609375, 0.394775390625, 0, 
362, 1052970374, 0.48177868127822876, -0.4567904770374298, -0.663412868976593, -0.34513112902641296, 8.997415542602539, 0.25703418254852295, -3.146156072616577, 44.34305953979492, 41.53276824951172, 84.67406463623047, -1.233642578125, 0.317626953125, 0.379150390625, 0, 
363, 1052978707, 0.48723340034484863, -0.45819318294525146, -0.6602039933204651, -0.3417510688304901, 8.880180358886719, 0.2074735313653946, -2.786388397216797, 44.11347579956055, 41.79206466674805, 82.5950927734375, -1.232666015625, 0.331298828125, 0.378173828125, 0, 
364, 1052987040, 0.4924164116382599, -0.4596591293811798, -0.6569831967353821, -0.3385452628135681, 8.7645902633667, 0.27633363008499146, -2.9103641510009766, 40.32463073730469, 40.230472564697266, 80.83806610107422, -1.228515625, 0.345703125, 0.363037109375, 0, 
365, 1052995373, 0.4970841407775879, -0.4614254832267761, -0.6536830067634583, -0.3356972932815552, 8.614791870117188, 0.20957279205322266, -3.0395092964172363, 31.446819305419922, 36.9512825012207, 79.19231414794922, -1.2333984375, 0.358154296875, 0.356689453125, 0, 
366, 1053003706, 0.5009580254554749, -0.463840514421463, -0.650198757648468, -0.3333691358566284, 8.599032402038574, 0.19887569546699524, -3.0109734535217285, 16.425325393676758, 31.402191162109375, 79.0140380859375, -1.226806640625, 0.37353515625, 0.353515625, 0, 
367, 1053012039, 0.5041257739067078, -0.46690043807029724, -0.6465825438499451, -0.3313494622707367, 8.426718711853027, 0.16934259235858917, -2.7220966815948486, 4.143794059753418, 24.985149383544922, 80.22007751464844, -1.22900390625, 0.384521484375, 0.345703125, 0, 
368, 1053020372, 0.5066953897476196, -0.47053423523902893, -0.642853319644928, -0.3295406103134155, 8.291998863220215, 0.11792150884866714, -2.393981695175171, -6.0622735023498535, 19.215635299682617, 81.89556884765625, -1.22802734375, 0.395751953125, 0.339111328125, 0, 
369, 1053028705, 0.5089924335479736, -0.4744683802127838, -0.6390734910964966, -0.32770657539367676, 8.557428359985352, 0.22425256669521332, -2.349558115005493, -9.928719520568848, 15.606547355651855, 83.78373718261719, -1.22265625, 0.407470703125, 0.339111328125, 0, 
370, 1053037038, 0.5112648010253906, -0.47846439480781555, -0.6352413296699524, -0.3258048892021179, 8.653885841369629, 0.44504472613334656, -2.270386219024658, -10.142983436584473, 15.063164710998535, 85.06349182128906, -1.215576171875, 0.416748046875, 0.338134765625, 0, 
371, 1053045371, 0.513605535030365, -0.4824081361293793, -0.6314018368721008, -0.3237650990486145, 8.473895072937012, 0.7717170715332031, -2.1114463806152344, -8.17408275604248, 15.009455680847168, 85.90060424804688, -1.21337890625, 0.430419921875, 0.33447265625, 0, 
372, 1053053704, 0.5159342885017395, -0.48633405566215515, -0.6275821328163147, -0.3216083347797394, 8.43249797821045, 1.1067230701446533, -1.8362014293670654, -7.006091594696045, 14.096992492675781, 86.42485809326172, -1.2080078125, 0.444580078125, 0.330810546875, 0, 
373, 1053062037, 0.5182086229324341, -0.49020275473594666, -0.6238442659378052, -0.319342702627182, 8.514198303222656, 1.4019678831100464, -1.856315016746521, -5.68085241317749, 12.54460334777832, 85.87749481201172, -1.2109375, 0.457763671875, 0.331787109375, 0, 
374, 1053070370, 0.5204344987869263, -0.4939741790294647, -0.6201998591423035, -0.3170016407966614, 8.787492752075195, 1.4871976375579834, -2.033233165740967, -4.231716632843018, 11.404683113098145, 84.78384399414062, -1.203125, 0.463134765625, 0.32373046875, 0, 
375, 1053078703, 0.5226817727088928, -0.4976218640804291, -0.6165761947631836, -0.3146594762802124, 8.955029487609863, 1.5023419857025146, -2.1788110733032227, -3.124917984008789, 11.947195053100586, 83.64181518554688, -1.197265625, 0.476806640625, 0.3212890625, 0, 
376, 1053087036, 0.5248759984970093, -0.5011866688728333, -0.6129711866378784, -0.31238409876823425, 9.088821411132812, 1.7105642557144165, -2.302635669708252, -3.3372223377227783, 12.194768905639648, 82.15451049804688, -1.1943359375, 0.489990234375, 0.3232421875, 0, 
377, 1053095369, 0.526957094669342, -0.5047462582588196, -0.6093740463256836, -0.31017938256263733, 9.111523628234863, 2.0068509578704834, -2.3731536865234375, -4.682104110717773, 11.677637100219727, 81.00749969482422, -1.1865234375, 0.5009765625, 0.3232421875, 0, 
378, 1053103702, 0.5288380980491638, -0.5083632469177246, -0.6057529449462891, -0.30815744400024414, 8.979560852050781, 2.377548933029175, -2.2045156955718994, -8.091877937316895, 11.220610618591309, 79.55133819580078, -1.185791015625, 0.51025390625, 0.31982421875, 0, 
379, 1053112035, 0.5304020047187805, -0.5120638608932495, -0.6022236347198486, -0.306254506111145, 8.666430473327637, 2.817932605743408, -2.3178374767303467, -11.546716690063477, 8.366703987121582, 77.32311248779297, -1.179931640625, 0.51953125, 0.31689453125, 0, 
380, 1053120368, 0.5318022966384888, -0.5156610608100891, -0.598842442035675, -0.3044143617153168, 8.60654067993164, 3.198561191558838, -2.3986988067626953, -11.836821556091309, 6.832631587982178, 74.36715698242188, -1.179443359375, 0.535888671875, 0.31640625, 0, 
381, 1053128701, 0.5331875085830688, -0.5189533233642578, -0.5957395434379578, -0.3024786412715912, 8.808215141296387, 3.5800390243530273, -2.6078805923461914, -7.7667694091796875, 5.2476887702941895, 70.42818450927734, -1.176025390625, 0.54248046875, 0.31298828125, 0, 
382, 1053137034, 0.5346774458885193, -0.5218260884284973, -0.5929412245750427, -0.30039751529693604, 9.223957061767578, 3.8616387844085693, -2.817858934402466, -1.4774988889694214, 4.605483531951904, 66.43577575683594, -1.164794921875, 0.5478515625, 0.310546875, 0, 
383, 1053145367, 0.5363486409187317, -0.5242636799812317, -0.5904199481010437, -0.29813164472579956, 9.630507469177246, 4.03078031539917, -3.2474944591522217, 5.666554927825928, 4.494648456573486, 62.89059829711914, -1.15869140625, 0.56298828125, 0.311767578125, 0, 
384, 1053153700, 0.5383217334747314, -0.526147186756134, -0.5881778597831726, -0.2956792116165161, 9.841654777526855, 3.983246326446533, -3.8024327754974365, 14.628337860107422, 5.829920768737793, 59.12455749511719, -1.160400390625, 0.566162109375, 0.311279296875, 0, 
385, 1053162033, 0.5404132604598999, -0.5276550650596619, -0.5860385298728943, -0.2934163808822632, 10.063396453857422, 3.8867027759552, -4.257443904876709, 17.110639572143555, 8.909424781799316, 54.28980255126953, -1.156982421875, 0.580078125, 0.304443359375, 0, 
386, 1053170366, 0.5425485372543335, -0.5288825631141663, -0.5838098526000977, -0.29170292615890503, 9.858020782470703, 3.9936275482177734, -4.2793378829956055, 14.762543678283691, 15.067841529846191, 48.93260955810547, -1.155029296875, 0.5849609375, 0.299072265625, 0, 
387, 1053178699, 0.5444757342338562, -0.5299739241600037, -0.581545889377594, -0.2906520366668701, 9.652848243713379, 4.204219818115234, -3.9486870765686035, 8.763941764831543, 19.000383377075195, 42.156646728515625, -1.146728515625, 0.586181640625, 0.29736328125, 0, 
388, 1053187032, 0.5460300445556641, -0.5309228897094727, -0.579383373260498, -0.2903226912021637, 9.698240280151367, 4.5467023849487305, -3.360532283782959, 1.7950608730316162, 21.117982864379883, 33.57781219482422, -1.146484375, 0.597900390625, 0.295166015625, 0, 
389, 1053195365, 0.5473863482475281, -0.5314632058143616, -0.5774335861206055, -0.2906644344329834, 10.041136741638184, 4.85204553604126, -2.584872007369995, -1.125183343887329, 24.443111419677734, 22.746856689453125, -1.14453125, 0.6015625, 0.2900390625, 0, 
390, 1053203698, 0.5486387610435486, -0.5312889218330383, -0.5759073495864868, -0.2916477918624878, 10.64887809753418, 5.141192436218262, -1.8890289068222046, 0.15044531226158142, 28.012348175048828, 8.955268859863281, -1.14453125, 0.6044921875, 0.286865234375, 0, 
391, 1053212031, 0.5498062968254089, -0.5302663445472717, -0.5749666690826416, -0.2931623160839081, 10.904781341552734, 5.703453063964844, -1.9422770738601685, 4.012549877166748, 30.168115615844727, -6.611667633056641, -1.15087890625, 0.599365234375, 0.28271484375, 0, 
392, 1053220364, 0.5506666302680969, -0.5284305214881897, -0.5749306678771973, -0.2949277460575104, 11.228282928466797, 6.694043159484863, -3.120816469192505, 9.626531600952148, 26.046043395996094, -22.511980056762695, -1.147705078125, 0.599853515625, 0.27490234375, 0, 
393, 1053228697, 0.5514415502548218, -0.5255840420722961, -0.5759478807449341, -0.29657652974128723, 12.027735710144043, 7.864804267883301, -4.762569427490234, 21.812000274658203, 20.609050750732422, -37.88075256347656, -1.1484375, 0.596435546875, 0.267578125, 0, 
394, 1053237030, 0.5524612665176392, -0.5214343667030334, -0.5778027772903442, -0.29839062690734863, 13.32177448272705, 8.485319137573242, -4.81162166595459, 35.650550842285156, 22.7427921295166, -54.211483001708984, -1.15478515625, 0.5908203125, 0.264892578125, 0, 
395, 1053245363, 0.553856372833252, -0.5160258412361145, -0.579919695854187, -0.30108779668807983, 13.425939559936523, 9.277054786682129, -4.667566776275635, 41.8852653503418, 35.19364929199219, -71.56157684326172, -1.156005859375, 0.587890625, 0.256591796875, 0, 
396, 1053253696, 0.554956316947937, -0.5099796652793884, -0.5822239518165588, -0.3048928678035736, 12.521452903747559, 10.28341293334961, -3.548754930496216, 36.64916229248047, 41.96821212768555, -87.28771209716797, -1.165771484375, 0.571533203125, 0.246826171875, 0, 
397, 1053262029, 0.5551048517227173, -0.5040945410728455, -0.5846143364906311, -0.30979639291763306, 12.064372062683105, 10.660347938537598, -1.378678798675537, 20.25279998779297, 40.66958236694336, -99.32402038574219, -1.1728515625, 0.563232421875, 0.2421875, 0, 
398, 1053270362, 0.5545400977134705, -0.4984738826751709, -0.5865862965583801, -0.31611061096191406, 12.27834701538086, 10.161948204040527, 1.1532626152038574, 0.26860693097114563, 46.83672332763672, -107.70106506347656, -1.185791015625, 0.545654296875, 0.233154296875, 0, 
399, 1053278695, 0.5530831217765808, -0.49298709630966187, -0.5884824395179749, -0.3236534595489502, 11.995631217956543, 8.618544578552246, 0.14182326197624207, -17.211856842041016, 48.00281524658203, -119.75298309326172, -1.195068359375, 0.533203125, 0.232421875, 0, 
400, 1053287028, 0.5507786273956299, -0.4870959520339966, -0.5908046364784241, -0.3321603536605835, 12.249860763549805, 5.686051845550537, -1.7847039699554443, -25.696060180664062, 46.29020690917969, -136.55352783203125, -1.197998046875, 0.51220703125, 0.218505859375, 0, 
401, 1053295361, 0.5473889708518982, -0.4809582531452179, -0.5937439799308777, -0.34133973717689514, 12.836665153503418, 2.0646514892578125, -3.1876673698425293, -33.833763122558594, 38.38035583496094, -153.2071075439453, -1.21337890625, 0.49169921875, 0.216552734375, 0, 
402, 1053303694, 0.5429797768592834, -0.4744274616241455, -0.5976417064666748, -0.35059425234794617, 14.90655517578125, -1.2087806463241577, -4.766878128051758, -33.62439727783203, 25.222972869873047, -167.60104370117188, -1.22412109375, 0.4677734375, 0.215087890625, 0, 
403, 1053312027, 0.538802981376648, -0.46725332736968994, -0.602160632610321, -0.35884347558021545, 18.67803382873535, -3.3463094234466553, -4.995964527130127, -16.155824661254883, 18.996782302856445, -168.8210906982422, -1.234130859375, 0.4423828125, 0.215576171875, 0, 
404, 1053320360, 0.5363203883171082, -0.4594525396823883, -0.6065205931663513, -0.36523517966270447, 20.938119888305664, -4.9283552169799805, -2.841654062271118, 14.069741249084473, 25.412267684936523, -150.34788513183594, -1.24267578125, 0.42041015625, 0.2119140625, 0, 
405, 1053328693, 0.535436749458313, -0.451251357793808, -0.611005425453186, -0.3692590892314911, 18.324974060058594, -6.386013984680176, -0.37055858969688416, 47.40198516845703, 24.826412200927734, -129.498291015625, -1.24951171875, 0.397705078125, 0.20703125, 0, 
406, 1053337026, 0.5349506735801697, -0.4425578713417053, -0.6165055632591248, -0.3713373839855194, 15.851309776306152, -6.604494571685791, 0.32849928736686707, 75.06804656982422, 11.183151245117188, -123.08495330810547, -1.25244140625, 0.3837890625, 0.197509765625, 0, 
407, 1053345359, 0.5342646241188049, -0.4331958591938019, -0.6231552958488464, -0.37226393818855286, 15.301446914672852, -5.067446231842041, -1.2640105485916138, 94.33456420898438, -2.6313581466674805, -128.80335998535156, -1.257568359375, 0.372314453125, 0.19287109375, 0, 
408, 1053353692, 0.5335440635681152, -0.4229123890399933, -0.6306734681129456, -0.3724606931209564, 15.61756706237793, -2.756038188934326, -3.818476915359497, 111.64464569091797, -8.870784759521484, -136.2120819091797, -1.269287109375, 0.355712890625, 0.192626953125, 0, 
409, 1053362025, 0.533165454864502, -0.4122432470321655, -0.6382908821105957, -0.3719881474971771, 15.17894172668457, -0.7801173329353333, -4.9267473220825195, 122.7297592163086, -8.616714477539062, -133.94969177246094, -1.274169921875, 0.33740234375, 0.19189453125, 0, 
410, 1053370358, 0.5330424904823303, -0.4017750918865204, -0.645423173904419, -0.3713104724884033, 14.750288963317871, 0.5589945316314697, -4.340296745300293, 122.08888244628906, -4.923381328582764, -126.17488098144531, -1.275146484375, 0.31982421875, 0.188720703125, 0, 
411, 1053378691, 0.532604992389679, -0.39255180954933167, -0.6515710353851318, -0.3710666000843048, 14.197057723999023, 1.4291014671325684, -2.9873485565185547, 102.28377532958984, -4.54134464263916, -114.92003631591797, -1.2822265625, 0.31298828125, 0.1884765625, 0, 
412, 1053387024, 0.5310505628585815, -0.3850574195384979, -0.6566920280456543, -0.3721182644367218, 12.934616088867188, 2.188347578048706, -1.8070489168167114, 66.78187561035156, -8.751395225524902, -108.63062286376953, -1.28564453125, 0.296875, 0.1865234375, 0, 
413, 1053395357, 0.5277068614959717, -0.3798058032989502, -0.6607547402381897, -0.3750688433647156, 11.805299758911133, 2.096497058868408, -0.8928790092468262, 18.32581901550293, -18.709152221679688, -106.2391357421875, -1.289306640625, 0.28173828125, 0.185791015625, 0, 
414, 1053403690, 0.522524356842041, -0.3767235279083252, -0.6639161705970764, -0.37981995940208435, 11.010021209716797, 1.0429022312164307, -1.362496256828308, -27.98329734802246, -30.54987335205078, -103.93026733398438, -1.28955078125, 0.266845703125, 0.186279296875, 0, 
415, 1053412023, 0.5163137316703796, -0.3746625781059265, -0.6664354205131531, -0.3858913779258728, 11.054161071777344, -1.5495872497558594, -2.2908294200897217, -56.102638244628906, -33.93021011352539, -106.57481384277344, -1.292724609375, 0.24072265625, 0.192138671875, 0, 
416, 1053420356, 0.5096631646156311, -0.37234190106391907, -0.669108510017395, -0.39229971170425415, 11.202741622924805, -4.07891321182251, -2.6985538005828857, -58.73091125488281, -35.83416748046875, -114.03528594970703, -1.298828125, 0.225341796875, 0.200927734375, 0, 
417, 1053428689, 0.5028849244117737, -0.369245707988739, -0.6721537113189697, -0.398715615272522, 10.985366821289062, -6.06009578704834, -2.281773328781128, -52.078067779541016, -35.49833297729492, -124.25849151611328, -1.291015625, 0.206298828125, 0.2119140625, 0, 
418, 1053437022, 0.49598339200019836, -0.3654109835624695, -0.6757516264915466, -0.40476563572883606, 10.59504222869873, -6.505815505981445, -1.8940091133117676, -41.143856048583984, -38.170833587646484, -131.61239624023438, -1.2919921875, 0.1875, 0.215576171875, 0, 
419, 1053445355, 0.48916998505592346, -0.36108458042144775, -0.6797298789024353, -0.4102416932582855, 9.955035209655762, -5.882319927215576, -1.605090856552124, -29.9366512298584, -40.192161560058594, -134.11181640625, -1.299560546875, 0.163818359375, 0.2177734375, 0, 
420, 1053453688, 0.4824020266532898, -0.3566339612007141, -0.6840029954910278, -0.41501906514167786, 9.277758598327637, -4.911376953125, -1.5868703126907349, -20.646902084350586, -44.42344665527344, -131.3970489501953, -1.299072265625, 0.137451171875, 0.230224609375, 0, 
421, 1053462021, 0.47566190361976624, -0.35265758633613586, -0.688198447227478, -0.41923946142196655, 8.668599128723145, -4.068235874176025, -1.5166747570037842, -18.8946475982666, -49.18146896362305, -123.08621215820312, -1.295654296875, 0.123046875, 0.236328125, 0, 
422, 1053470354, 0.46885183453559875, -0.3495131731033325, -0.6921072602272034, -0.4230912923812866, 8.169490814208984, -3.060042142868042, -1.623282551765442, -22.800304412841797, -54.45156478881836, -111.47216033935547, -1.29736328125, 0.104248046875, 0.24951171875, 0, 
423, 1053478687, 0.4619041085243225, -0.3474058508872986, -0.6956033706665039, -0.42671999335289, 7.916606903076172, -2.3598718643188477, -1.5363162755966187, -30.464536666870117, -60.306854248046875, -99.32202911376953, -1.288330078125, 0.08056640625, 0.256103515625, 0, 
424, 1053487020, 0.4547325670719147, -0.34639060497283936, -0.6984692215919495, -0.43054962158203125, 7.8692708015441895, -1.7123024463653564, -1.3155674934387207, -44.04878234863281, -63.798057556152344, -88.13750457763672, -1.28564453125, 0.068359375, 0.26708984375, 0, 
425, 1053495353, 0.44742605090141296, -0.3462078869342804, -0.7005964517593384, -0.43487370014190674, 7.731388092041016, -1.4969737529754639, -1.0613245964050293, -59.06425857543945, -63.144744873046875, -80.82923126220703, -1.2880859375, 0.04736328125, 0.277099609375, 0, 
426, 1053503686, 0.43997323513031006, -0.34660983085632324, -0.7019527554512024, -0.43994060158729553, 7.249580383300781, -1.690210223197937, -0.7896054983139038, -75.08497619628906, -59.685848236083984, -76.67327880859375, -1.281982421875, 0.036865234375, 0.285400390625, 0, 
427, 1053512019, 0.4322323203086853, -0.3474827706813812, -0.7026848196983337, -0.4457188546657562, 6.5589447021484375, -2.0568745136260986, -0.8138062357902527, -89.99105834960938, -58.234535217285156, -75.49927520751953, -1.278076171875, 0.018798828125, 0.291259765625, 0, 
428, 1053520352, 0.42402011156082153, -0.3490489721298218, -0.7029292583465576, -0.4519541263580322, 6.168762683868408, -2.828610420227051, -1.0371993780136108, -103.73269653320312, -61.87761306762695, -71.79105377197266, -1.275146484375, 0.0029296875, 0.3017578125, 0, 
429, 1053528685, 0.4155329763889313, -0.3514489531517029, -0.7026021480560303, -0.45843952894210815, 6.019162654876709, -3.405457019805908, -1.4300307035446167, -115.921875, -65.26062774658203, -64.43846893310547, -1.271240234375, -0.013916015625, 0.305908203125, 0, 
430, 1053537018, 0.40734153985977173, -0.35414713621139526, -0.7018576264381409, -0.4648103713989258, 5.983301639556885, -4.147524833679199, -1.7647898197174072, -117.68472290039062, -62.38687515258789, -56.76091003417969, -1.265380859375, -0.030517578125, 0.3193359375, 0, 
431, 1053545351, 0.39983171224594116, -0.35680076479911804, -0.7008652091026306, -0.47076109051704407, 6.021306037902832, -4.662558078765869, -1.8436144590377808, -111.68153381347656, -56.24808883666992, -49.533599853515625, -1.26513671875, -0.046630859375, 0.321533203125, 0, 
432, 1053553684, 0.39318567514419556, -0.3593537211418152, -0.6998558640480042, -0.4758906662464142, 6.0747785568237305, -4.871826648712158, -2.0269412994384766, -99.05491638183594, -51.149940490722656, -40.07923126220703, -1.26416015625, -0.06201171875, 0.328369140625, 0, 
433, 1053562017, 0.3876018524169922, -0.3616020083427429, -0.6992315649986267, -0.4796711504459381, 5.879456520080566, -5.10968542098999, -2.400120496749878, -76.68412780761719, -47.73745346069336, -30.90277099609375, -1.260009765625, -0.06884765625, 0.3359375, 0, 
434, 1053570350, 0.3830069601535797, -0.36351919174194336, -0.6992154121398926, -0.481931209564209, 5.57271671295166, -5.35353422164917, -2.4710030555725098, -51.36323547363281, -46.795654296875, -22.278160095214844, -1.252197265625, -0.083740234375, 0.341552734375, 0, 
435, 1053578683, 0.3790898025035858, -0.36550334095954895, -0.6995669007301331, -0.48301631212234497, 5.2897210121154785, -5.4705328941345215, -1.8125479221343994, -34.59904479980469, -48.5822868347168, -12.99410629272461, -1.24853515625, -0.0869140625, 0.343994140625, 0, 
436, 1053587016, 0.37553444504737854, -0.36789289116859436, -0.7001546621322632, -0.4831278324127197, 5.07595157623291, -5.372177600860596, -1.2077690362930298, -23.922090530395508, -53.85736083984375, -2.642641544342041, -1.251708984375, -0.089599609375, 0.3525390625, 0, 
437, 1053595349, 0.3725353479385376, -0.37052926421165466, -0.701107382774353, -0.482052206993103, 4.862466335296631, -5.30342435836792, -0.9894053339958191, -8.5643892288208, -58.09437942504883, 7.551868915557861, -1.244140625, -0.08837890625, 0.356689453125, 0, 
438, 1053603682, 0.3702307641506195, -0.3732220232486725, -0.702782154083252, -0.4793035686016083, 4.900024890899658, -5.218107223510742, -0.7071973085403442, 15.605128288269043, -63.94065856933594, 17.724611282348633, -1.240478515625, -0.08984375, 0.368408203125, 0, 
439, 1053612015, 0.3689192831516266, -0.3759942054748535, -0.7052218914031982, -0.4745411276817322, 5.637020587921143, -4.85777473449707, 0.030206896364688873, 44.798683166503906, -69.15210723876953, 31.23078155517578, -1.23974609375, -0.082763671875, 0.3740234375, 0, 
440, 1053620348, 0.3687840700149536, -0.3790401518344879, -0.7082733511924744, -0.4676281213760376, 7.198540210723877, -3.958625555038452, 0.7638153433799744, 74.31666564941406, -73.7114028930664, 49.41986846923828, -1.234375, -0.072998046875, 0.38818359375, 0, 
441, 1053628681, 0.37017908692359924, -0.3820355236530304, -0.71127849817276, -0.45945557951927185, 8.332314491271973, -2.6830942630767822, 1.2170747518539429, 94.54379272460938, -64.85591125488281, 65.28622436523438, -1.229248046875, -0.058837890625, 0.400146484375, 0, 
442, 1053637014, 0.37323182821273804, -0.3844829201698303, -0.7134799957275391, -0.4514615833759308, 8.09865665435791, -1.5262718200683594, 2.3103904724121094, 99.21378326416016, -40.103233337402344, 73.78005981445312, -1.226806640625, -0.037353515625, 0.40771484375, 0, 
443, 1053645347, 0.3768905699253082, -0.3872619569301605, -0.7143593430519104, -0.4446040689945221, 7.702715873718262, -0.3509508967399597, 3.9307374954223633, 81.36036682128906, -23.46596336364746, 81.88854217529297, -1.227783203125, -0.021484375, 0.4130859375, 0, 
