PacketCounter,SampleTimeFine,Quat_W,Quat_X,Quat_Y,Quat_Z,Acc_X,Acc_Y,Acc_Z,Gyr_X,Gyr_Y,Gyr_Z,Mag_X,Mag_Y,Mag_Z,Status,
0, 1031112915, 0.48102855682373047, -0.4827883243560791, -0.6572327017784119, -0.3218262791633606, 0, 0, 0, 0, 0, 0, -1.36328125, 0.60791015625, 0.470947265625, 0, 
1, 1031121248, 0.48110517859458923, -0.4828454256057739, -0.6571540832519531, -0.3217869699001312, 9.456130981445312, -0.16031427681446075, -3.3386902809143066, 3.726038932800293, -0.6411243081092834, 2.982560157775879, -1.364501953125, 0.610595703125, 0.472412109375, 0, 
2, 1031129581, 0.4810592532157898, -0.4829704165458679, -0.6570734977722168, -0.321832537651062, 9.466819763183594, -0.2617988884449005, -3.3055262565612793, 1.635635495185852, -1.47312593460083, 2.515817403793335, -1.364013671875, 0.606689453125, 0.472412109375, 0, 
3, 1031137914, 0.4809277653694153, -0.48315533995628357, -0.6569668650627136, -0.32196903228759766, 9.466670989990234, -0.3029453754425049, -3.179699420928955, -0.2613292336463928, -1.731484055519104, 2.259969472885132, -1.3671875, 0.609375, 0.47314453125, 0, 
4, 1031146247, 0.4808136224746704, -0.483290433883667, -0.6568935513496399, -0.322086364030838, 9.395598411560059, -0.3161351978778839, -3.2762985229492188, 0.5003997087478638, -1.706817388534546, 1.7829301357269287, -1.36572265625, 0.611083984375, 0.472412109375, 0, 
5, 1031154580, 0.48083505034446716, -0.4832685589790344, -0.6568982005119324, -0.32207781076431274, 9.412747383117676, -0.32465308904647827, -3.340064525604248, 3.951892375946045, -1.1353638172149658, 1.2796103954315186, -1.362548828125, 0.610595703125, 0.47607421875, 0, 
6, 1031162913, 0.4809587001800537, -0.48313871026039124, -0.6569496989250183, -0.3219829201698303, 9.41834831237793, -0.3425113260746002, -3.421755075454712, 6.300538539886475, -0.619826078414917, 1.0158350467681885, -1.364501953125, 0.609130859375, 0.470947265625, 0, 
7, 1031171246, 0.48101720213890076, -0.483053058385849, -0.6569943428039551, -0.321932852268219, 9.465919494628906, -0.36375677585601807, -3.3490753173828125, 5.192056655883789, -1.0596994161605835, 0.8738808035850525, -1.36572265625, 0.608642578125, 0.474853515625, 0, 
8, 1031179579, 0.4810940623283386, -0.48296406865119934, -0.6570119857788086, -0.32191577553749084, 9.489988327026367, -0.37009161710739136, -3.441274642944336, 4.86721658706665, -0.4833790063858032, 0.8879942297935486, -1.3671875, 0.605712890625, 0.474365234375, 0, 
9, 1031187912, 0.48119592666625977, -0.48285388946533203, -0.6570299863815308, -0.32189205288887024, 9.501792907714844, -0.3646596670150757, -3.392596960067749, 5.264519214630127, -0.20613053441047668, 0.852288007736206, -1.368408203125, 0.60693359375, 0.471923828125, 0, 
10, 1031196245, 0.48128944635391235, -0.48278549313545227, -0.6570164561271667, -0.3218824565410614, 9.504318237304688, -0.34736695885658264, -3.343796491622925, 4.634255886077881, -0.16822148859500885, 1.3044562339782715, -1.3671875, 0.608154296875, 0.47314453125, 0, 
11, 1031204578, 0.48136910796165466, -0.48273664712905884, -0.6570079326629639, -0.32185372710227966, 9.451313018798828, -0.3125728964805603, -3.313945770263672, 4.60190486907959, -0.5327121019363403, 1.5308092832565308, -1.3671875, 0.60693359375, 0.4755859375, 0, 
12, 1031212911, 0.4814454913139343, -0.48268115520477295, -0.6570112109184265, -0.32181602716445923, 9.436643600463867, -0.3793940544128418, -3.3004708290100098, 4.765810012817383, -0.677996039390564, 1.4197970628738403, -1.364013671875, 0.60791015625, 0.47119140625, 0, 
13, 1031221244, 0.48147401213645935, -0.48267069458961487, -0.6569772362709045, -0.32185855507850647, 9.439661979675293, -0.4243258833885193, -3.2645483016967773, 3.289252281188965, -0.5250534415245056, 1.3347065448760986, -1.3603515625, 0.606201171875, 0.47412109375, 0, 
14, 1031229577, 0.4814504384994507, -0.4827280640602112, -0.6569322347640991, -0.32189977169036865, 9.366644859313965, -0.4363926649093628, -3.2417211532592773, 2.427666187286377, -1.237180471420288, 1.7965824604034424, -1.362060546875, 0.6103515625, 0.4697265625, 0, 
15, 1031237910, 0.4814009368419647, -0.4827946424484253, -0.6569130420684814, -0.32191261649131775, 9.377135276794434, -0.49113455414772034, -3.1761293411254883, 2.5596561431884766, -1.8659844398498535, 1.7974789142608643, -1.365234375, 0.612060546875, 0.476806640625, 0, 
16, 1031246243, 0.4813840389251709, -0.48283737897872925, -0.6569129824638367, -0.3218737840652466, 9.434924125671387, -0.5133364796638489, -3.2452633380889893, 3.4913742542266846, -1.9414695501327515, 1.92488431930542, -1.365234375, 0.611083984375, 0.4716796875, 0, 
17, 1031254576, 0.4814493954181671, -0.48280757665634155, -0.6569348573684692, -0.32177630066871643, 9.443513870239258, -0.5405163168907166, -3.4258127212524414, 5.19382381439209, -1.4082834720611572, 1.8723238706588745, -1.365234375, 0.608642578125, 0.4716796875, 0, 
18, 1031262909, 0.48159337043762207, -0.4827391803264618, -0.6569501757621765, -0.3216322362422943, 9.45103645324707, -0.5252645015716553, -3.409170627593994, 6.312627792358398, -0.7954628467559814, 2.226773500442505, -1.365234375, 0.610595703125, 0.4736328125, 0, 
19, 1031271242, 0.48169881105422974, -0.4827224910259247, -0.6569358706474304, -0.3215286135673523, 9.464529037475586, -0.5849827527999878, -3.3442931175231934, 5.225099086761475, -0.9039648771286011, 2.4658567905426025, -1.364501953125, 0.6103515625, 0.468505859375, 0, 
20, 1031279575, 0.4817381799221039, -0.48277008533477783, -0.6568901538848877, -0.3214915990829468, 9.451729774475098, -0.617015540599823, -3.329188823699951, 3.614809274673462, -1.1386425495147705, 2.507838726043701, -1.362060546875, 0.611083984375, 0.472900390625, 0, 
21, 1031287908, 0.4818040728569031, -0.48281043767929077, -0.6568398475646973, -0.32143494486808777, 9.472148895263672, -0.6016943454742432, -3.302978992462158, 3.985562324523926, -0.9626854062080383, 2.7356386184692383, -1.365234375, 0.6123046875, 0.4716796875, 0, 
22, 1031296241, 0.48191091418266296, -0.48283329606056213, -0.6567782759666443, -0.3213663697242737, 9.488727569580078, -0.5532518029212952, -3.3166189193725586, 4.440202236175537, -0.5240288376808167, 2.8987629413604736, -1.362060546875, 0.611083984375, 0.472900390625, 0, 
23, 1031304574, 0.4819941222667694, -0.4828789234161377, -0.6567107439041138, -0.32131117582321167, 9.491333961486816, -0.533751368522644, -3.258138418197632, 3.9809134006500244, -0.7040712833404541, 2.964719533920288, -1.364013671875, 0.6103515625, 0.470458984375, 0, 
24, 1031312907, 0.482036292552948, -0.4829568862915039, -0.6566444039344788, -0.321266233921051, 9.500328063964844, -0.5143254399299622, -3.2583377361297607, 3.4110991954803467, -1.1643847227096558, 2.984391450881958, -1.364013671875, 0.609375, 0.47412109375, 0, 
25, 1031321240, 0.48207756876945496, -0.48304834961891174, -0.6565707325935364, -0.32121744751930237, 9.49023151397705, -0.5095313787460327, -3.271087169647217, 3.3026485443115234, -1.2017815113067627, 3.193429470062256, -1.365234375, 0.610595703125, 0.47412109375, 0, 
26, 1031329573, 0.48215657472610474, -0.4831235110759735, -0.6564923524856567, -0.3211461305618286, 9.487678527832031, -0.510563850402832, -3.3112213611602783, 3.8596553802490234, -0.913902997970581, 3.377441644668579, -1.366455078125, 0.6123046875, 0.4697265625, 0, 
27, 1031337906, 0.4822954535484314, -0.4831523895263672, -0.6564254760742188, -0.3210306763648987, 9.44691276550293, -0.4993252456188202, -3.3863155841827393, 5.047823429107666, -0.5363749861717224, 3.4391982555389404, -1.360107421875, 0.611572265625, 0.470947265625, 0, 
28, 1031346239, 0.48246002197265625, -0.48316052556037903, -0.6563836336135864, -0.3208567500114441, 9.436059951782227, -0.4948684275150299, -3.3720622062683105, 5.960842132568359, -0.7692594528198242, 3.5885283946990967, -1.366455078125, 0.613525390625, 0.470458984375, 0, 
29, 1031354572, 0.4826521575450897, -0.48315322399139404, -0.6563431024551392, -0.3206618130207062, 9.427206039428711, -0.47851237654685974, -3.3538975715637207, 6.476303577423096, -0.5979515314102173, 3.69987416267395, -1.365234375, 0.6123046875, 0.4716796875, 0, 
30, 1031362905, 0.4829198122024536, -0.48309028148651123, -0.6563117504119873, -0.32041797041893005, 9.420312881469727, -0.43608856201171875, -3.401628255844116, 7.793438911437988, -0.05995011702179909, 3.7952868938446045, -1.368896484375, 0.6162109375, 0.46923828125, 0, 
31, 1031371238, 0.4831927418708801, -0.48303815722465515, -0.6562815308570862, -0.32014620304107666, 9.428977012634277, -0.41792047023773193, -3.332310914993286, 8.009008407592773, -0.24772807955741882, 4.106167316436768, -1.3681640625, 0.616943359375, 0.47412109375, 0, 
32, 1031379571, 0.4834744930267334, -0.4829753637313843, -0.6562594771385193, -0.31986063718795776, 9.445686340332031, -0.366350382566452, -3.3272342681884766, 8.304878234863281, -0.272394597530365, 4.073380947113037, -1.3681640625, 0.62109375, 0.46826171875, 0, 
33, 1031387904, 0.4837471842765808, -0.4828855097293854, -0.6562562584877014, -0.31959059834480286, 9.46163272857666, -0.3027850389480591, -3.2908577919006348, 8.356107711791992, -0.25290217995643616, 3.5794873237609863, -1.36572265625, 0.617919921875, 0.46826171875, 0, 
34, 1031396237, 0.48396074771881104, -0.48282331228256226, -0.6562570333480835, -0.31935974955558777, 9.4503755569458, -0.3297124207019806, -3.191469192504883, 7.454868793487549, -0.6781240105628967, 3.2639963626861572, -1.366943359375, 0.61669921875, 0.468505859375, 0, 
35, 1031404570, 0.4840337932109833, -0.48285195231437683, -0.6562416553497314, -0.31923750042915344, 9.494056701660156, -0.3684837222099304, -3.1618218421936035, 4.852129936218262, -1.5118929147720337, 2.867769479751587, -1.3642578125, 0.61767578125, 0.462646484375, 0, 
36, 1031412903, 0.4840852916240692, -0.48289182782173157, -0.6562147736549377, -0.319154292345047, 9.528743743896484, -0.34639647603034973, -3.2970714569091797, 4.244637489318848, -1.424522876739502, 2.674715280532837, -1.363037109375, 0.6171875, 0.4658203125, 0, 
37, 1031421236, 0.4841992259025574, -0.48289167881011963, -0.6561921238899231, -0.31902801990509033, 9.490687370300293, -0.28323397040367126, -3.4121034145355225, 5.341413497924805, -0.9952796101570129, 2.851889133453369, -1.36376953125, 0.620361328125, 0.47021484375, 0, 
38, 1031429569, 0.4843344986438751, -0.4828830659389496, -0.656169593334198, -0.31888216733932495, 9.418171882629395, -0.33377355337142944, -3.367947816848755, 5.708273410797119, -0.9018259644508362, 2.9918322563171387, -1.36181640625, 0.618408203125, 0.465087890625, 0, 
39, 1031437902, 0.48438557982444763, -0.48296424746513367, -0.6561074256896973, -0.31880950927734375, 9.466045379638672, -0.4678356945514679, -3.325331687927246, 3.6932783126831055, -1.2984881401062012, 3.233426094055176, -1.365478515625, 0.618408203125, 0.4658203125, 0, 
40, 1031446235, 0.4843927025794983, -0.48309531807899475, -0.6560103893280029, -0.3187996745109558, 9.503281593322754, -0.5278165340423584, -3.335416078567505, 2.3722877502441406, -1.270811915397644, 3.2810044288635254, -1.3623046875, 0.622802734375, 0.467529296875, 0, 
41, 1031454568, 0.48446783423423767, -0.4831883907318115, -0.6559039354324341, -0.3187634348869324, 9.441469192504883, -0.4665440618991852, -3.479569673538208, 3.260590076446533, -0.5964658856391907, 3.495549440383911, -1.363525390625, 0.62158203125, 0.465576171875, 0, 
42, 1031462901, 0.48461729288101196, -0.4832432270050049, -0.6558075547218323, -0.318651407957077, 9.410882949829102, -0.4473235011100769, -3.506059408187866, 4.750979900360107, -0.3350726366043091, 3.8937735557556152, -1.364501953125, 0.61474609375, 0.468994140625, 0, 
43, 1031471234, 0.4847951829433441, -0.4833092987537384, -0.6556919813156128, -0.31851842999458313, 9.406915664672852, -0.3864908516407013, -3.486999273300171, 4.964627742767334, -0.13433384895324707, 4.400038719177246, -1.3623046875, 0.622802734375, 0.46630859375, 0, 
44, 1031479567, 0.48497381806373596, -0.48338621854782104, -0.6555691957473755, -0.3183826804161072, 9.43089771270752, -0.32941246032714844, -3.4106907844543457, 4.894495487213135, -0.15039397776126862, 4.55357027053833, -1.3662109375, 0.623291015625, 0.463134765625, 0, 
45, 1031487900, 0.4851634204387665, -0.4834587275981903, -0.6554385423660278, -0.31825244426727295, 9.38052749633789, -0.3438491225242615, -3.3486123085021973, 4.9197773933410645, 0.061576616019010544, 4.5906853675842285, -1.3623046875, 0.622802734375, 0.468017578125, 0, 
46, 1031496233, 0.48532482981681824, -0.48356226086616516, -0.6552988290786743, -0.318136990070343, 9.393902778625488, -0.35405367612838745, -3.2332005500793457, 4.34712028503418, -0.17462503910064697, 4.695601940155029, -1.36279296875, 0.62646484375, 0.462890625, 0, 
47, 1031504566, 0.48539912700653076, -0.4837307035923004, -0.6551324725151062, -0.31811025738716125, 9.382088661193848, -0.3715556263923645, -3.1773178577423096, 2.4575319290161133, -0.4739273488521576, 4.480262756347656, -1.363525390625, 0.620849609375, 0.465576171875, 0, 
48, 1031512899, 0.4854421317577362, -0.48389050364494324, -0.6549842953681946, -0.31810659170150757, 9.4065523147583, -0.26157668232917786, -3.19726824760437, 2.139326572418213, -0.6882673501968384, 3.994002342224121, -1.361083984375, 0.62109375, 0.46875, 0, 
49, 1031521232, 0.48552900552749634, -0.48396769165992737, -0.6548827886581421, -0.31806570291519165, 9.417670249938965, -0.2447737455368042, -3.2514402866363525, 3.5014150142669678, -0.482328861951828, 3.4033637046813965, -1.36669921875, 0.62109375, 0.46630859375, 0, 
50, 1031529565, 0.4855867326259613, -0.4840349555015564, -0.6547989845275879, -0.3180477023124695, 9.491449356079102, -0.19245631992816925, -3.236176013946533, 3.2668139934539795, -0.6760493516921997, 2.891770601272583, -1.36474609375, 0.623291015625, 0.46240234375, 0, 
51, 1031537898, 0.48565635085105896, -0.4840606451034546, -0.654730498790741, -0.318043053150177, 9.467544555664062, -0.1462634801864624, -3.2977230548858643, 3.5741593837738037, -0.3943951725959778, 2.3894495964050293, -1.36474609375, 0.6220703125, 0.4619140625, 0, 
52, 1031546231, 0.4857763648033142, -0.4840158522129059, -0.654708743095398, -0.31797266006469727, 9.40992259979248, -0.1473434865474701, -3.446575403213501, 5.172103404998779, -0.38819652795791626, 2.092196226119995, -1.3623046875, 0.62353515625, 0.466796875, 0, 
53, 1031554564, 0.48589542508125305, -0.48397815227508545, -0.6546818614006042, -0.3179035186767578, 9.371309280395508, -0.1840488612651825, -3.5715746879577637, 5.086474895477295, -0.3785400092601776, 2.194064140319824, -1.36474609375, 0.6240234375, 0.465576171875, 0, 
54, 1031562897, 0.4860045909881592, -0.483959436416626, -0.6546432971954346, -0.3178444802761078, 9.330196380615234, -0.2067403346300125, -3.630255937576294, 4.749058246612549, -0.4127349555492401, 2.3161416053771973, -1.361572265625, 0.6240234375, 0.463623046875, 0, 
55, 1031571230, 0.48607170581817627, -0.4840039908885956, -0.6545789837837219, -0.3178066909313202, 9.265591621398926, -0.19923913478851318, -3.5651419162750244, 3.75791597366333, -0.7492803931236267, 2.7430286407470703, -1.359619140625, 0.627197265625, 0.466064453125, 0, 
56, 1031579563, 0.48603835701942444, -0.48414626717567444, -0.6544853448867798, -0.3178338408470154, 9.195716857910156, -0.14140263199806213, -3.5581419467926025, 1.7071117162704468, -1.455054759979248, 2.933290481567383, -1.36279296875, 0.629150390625, 0.46923828125, 0, 
57, 1031587896, 0.4858897924423218, -0.4843795597553253, -0.6543737649917603, -0.31793513894081116, 9.264211654663086, -0.07718309015035629, -3.6156551837921143, -0.3734683394432068, -2.272789478302002, 2.8745574951171875, -1.363037109375, 0.622314453125, 0.46826171875, 0, 
58, 1031596229, 0.4857029914855957, -0.4846619963645935, -0.6542221903800964, -0.31810206174850464, 9.303056716918945, -0.03949028626084328, -3.5086588859558105, -1.760786533355713, -2.133345603942871, 2.9744529724121094, -1.3642578125, 0.624755859375, 0.463623046875, 0, 
59, 1031604562, 0.4854685962200165, -0.48496952652931213, -0.6540487408638, -0.3183481991291046, 9.28836441040039, 0.007713560480624437, -3.4629480838775635, -3.033891201019287, -1.9885483980178833, 2.624255657196045, -1.357177734375, 0.623291015625, 0.462890625, 0, 
60, 1031612895, 0.48508360981941223, -0.48537537455558777, -0.6538398265838623, -0.31874561309814453, 9.317595481872559, -0.044355783611536026, -3.2520618438720703, -6.231750965118408, -2.5369489192962646, 2.0620481967926025, -1.3603515625, 0.62353515625, 0.46875, 0, 
61, 1031621228, 0.48450496792793274, -0.48588827252388, -0.6536182165145874, -0.31929758191108704, 9.288064956665039, -0.04582337290048599, -3.1892900466918945, -9.65184211730957, -3.6225829124450684, 1.2367066144943237, -1.3603515625, 0.6220703125, 0.466064453125, 0, 
62, 1031629561, 0.48379889130592346, -0.4864208400249481, -0.6534773707389832, -0.319845050573349, 9.224469184875488, -0.12461382895708084, -3.13030743598938, -10.2703218460083, -5.429769515991211, 0.33628928661346436, -1.358642578125, 0.620361328125, 0.47119140625, 0, 
63, 1031637894, 0.4827696681022644, -0.487142950296402, -0.6533913016319275, -0.3204766511917114, 9.304719924926758, -0.32047683000564575, -3.0594427585601807, -14.207435607910156, -8.960488319396973, -0.2887365221977234, -1.367431640625, 0.62060546875, 0.473388671875, 0, 
64, 1031646227, 0.48172447085380554, -0.4879055321216583, -0.6532471179962158, -0.3211824893951416, 9.438141822814941, -0.37830784916877747, -3.3433287143707275, -15.50656509399414, -8.40837287902832, -0.11945200711488724, -1.354248046875, 0.617431640625, 0.4736328125, 0, 
65, 1031654560, 0.4808577597141266, -0.4885333478450775, -0.6531374454498291, -0.32174935936927795, 9.385611534118652, -0.3766753673553467, -3.4078245162963867, -12.009044647216797, -7.363057613372803, 0.16907963156700134, -1.36181640625, 0.619384765625, 0.47900390625, 0, 
66, 1031662893, 0.47986549139022827, -0.4892656207084656, -0.6530157923698425, -0.3223647475242615, 9.317614555358887, -0.3565559685230255, -3.3606855869293213, -14.039102554321289, -8.554348945617676, 0.28964585065841675, -1.360595703125, 0.614501953125, 0.48095703125, 0, 
67, 1031671226, 0.47876375913619995, -0.4901003837585449, -0.6528405547142029, -0.3230891227722168, 9.383979797363281, -0.3939513564109802, -3.3969008922576904, -16.687002182006836, -8.896121978759766, 0.3946899175643921, -1.36083984375, 0.60693359375, 0.481201171875, 0, 
68, 1031679559, 0.4776671826839447, -0.4909327030181885, -0.6526185274124146, -0.323896199464798, 9.402445793151855, -0.5191243886947632, -3.279905080795288, -17.56610679626465, -7.982922077178955, 0.13959760963916779, -1.359619140625, 0.609130859375, 0.486572265625, 0, 
69, 1031687892, 0.47662025690078735, -0.4917316734790802, -0.6523833870887756, -0.3246983587741852, 9.359696388244629, -0.647917628288269, -3.144216537475586, -17.04649543762207, -7.328273296356201, 0.20217323303222656, -1.35888671875, 0.608642578125, 0.49169921875, 0, 
70, 1031696225, 0.47548142075538635, -0.4926013648509979, -0.6521146893501282, -0.3255886435508728, 9.333431243896484, -0.8384280204772949, -2.673574924468994, -19.05224609375, -7.659389495849609, 0.056095197796821594, -1.357177734375, 0.60546875, 0.4912109375, 0, 
71, 1031704558, 0.4742433428764343, -0.49349677562713623, -0.6518522500991821, -0.3265624940395355, 9.438460350036621, -0.9943894147872925, -2.379507064819336, -20.626089096069336, -8.132716178894043, -0.728379487991333, -1.354736328125, 0.601806640625, 0.49560546875, 0, 
72, 1031712891, 0.47312629222869873, -0.49414557218551636, -0.6517173051834106, -0.32746994495391846, 9.704505920410156, -1.141433596611023, -2.4583678245544434, -17.01619529724121, -7.229734897613525, -2.8461649417877197, -1.352783203125, 0.603271484375, 0.50244140625, 0, 
73, 1031721224, 0.47221890091896057, -0.49448880553245544, -0.6517458558082581, -0.32820364832878113, 9.754608154296875, -1.2178255319595337, -2.7576634883880615, -11.320635795593262, -6.214231967926025, -4.6059136390686035, -1.356689453125, 0.596923828125, 0.502685546875, 0, 
74, 1031729557, 0.471621572971344, -0.49448299407958984, -0.6519873738288879, -0.3285914957523346, 9.64542007446289, -1.0775047540664673, -3.056959390640259, -2.875441312789917, -5.600693225860596, -5.553896427154541, -1.35791015625, 0.603271484375, 0.503173828125, 0, 
75, 1031737890, 0.47133874893188477, -0.4941476285457611, -0.6524863839149475, -0.32851123809814453, 9.534825325012207, -0.9390259385108948, -3.29573392868042, 6.7710723876953125, -6.1382856369018555, -5.783631324768066, -1.357421875, 0.599609375, 0.501953125, 0, 
76, 1031746223, 0.4711844027042389, -0.4936678111553192, -0.6530963182449341, -0.32824182510375977, 9.579560279846191, -0.9073842763900757, -3.362661600112915, 10.768840789794922, -6.342431545257568, -6.044563293457031, -1.35888671875, 0.5927734375, 0.506103515625, 0, 
77, 1031754556, 0.47094401717185974, -0.49320146441459656, -0.6537162065505981, -0.32805415987968445, 9.564338684082031, -0.8550711274147034, -3.19101881980896, 9.418559074401855, -6.683125972747803, -6.8970561027526855, -1.35791015625, 0.59716796875, 0.50390625, 0, 
78, 1031762889, 0.4704384207725525, -0.49293607473373413, -0.6542794704437256, -0.328055739402771, 9.490684509277344, -0.8110855221748352, -3.1896002292633057, 4.35257625579834, -8.324127197265625, -7.139110565185547, -1.356201171875, 0.590087890625, 0.5009765625, 0, 
79, 1031771222, 0.4699793756008148, -0.4926280379295349, -0.6548368334770203, -0.32806405425071716, 9.398839950561523, -0.7602881789207458, -3.349036455154419, 4.874030590057373, -7.62946891784668, -7.310853481292725, -1.35498046875, 0.5927734375, 0.505126953125, 0, 
80, 1031779555, 0.4695884883403778, -0.4922577142715454, -0.655397891998291, -0.32805949449539185, 9.27982234954834, -0.8255546689033508, -3.3038179874420166, 5.853134632110596, -6.848286151885986, -7.512668609619141, -1.356201171875, 0.595703125, 0.501953125, 0, 
81, 1031787888, 0.4691016972064972, -0.4919436573982239, -0.6559008359909058, -0.32822152972221375, 9.309006690979004, -1.1236977577209473, -3.158686399459839, 3.0755269527435303, -6.458975315093994, -8.11298942565918, -1.358154296875, 0.59326171875, 0.5029296875, 0, 
82, 1031796221, 0.46860143542289734, -0.4916142523288727, -0.65634685754776, -0.32853806018829346, 9.30284309387207, -1.3020111322402954, -3.0892367362976074, 1.4339874982833862, -5.102855682373047, -8.930493354797363, -1.361328125, 0.588623046875, 0.511962890625, 0, 
83, 1031804554, 0.46822959184646606, -0.491196870803833, -0.6567792892456055, -0.32882803678512573, 9.366517066955566, -1.2478790283203125, -2.987725257873535, 3.0387704372406006, -3.6346216201782227, -8.86799430847168, -1.361328125, 0.588623046875, 0.510009765625, 0, 
84, 1031812887, 0.4679478108882904, -0.4907289743423462, -0.6572104692459106, -0.32906612753868103, 9.556458473205566, -1.1589804887771606, -2.949106454849243, 4.445274353027344, -2.939246654510498, -8.587980270385742, -1.3564453125, 0.587158203125, 0.509765625, 0, 
85, 1031821220, 0.46779781579971313, -0.49017539620399475, -0.6576263308525085, -0.3292737305164337, 9.788729667663574, -1.146439552307129, -2.9552114009857178, 6.0877366065979, -1.4651472568511963, -8.457886695861816, -1.3564453125, 0.58349609375, 0.5068359375, 0, 
86, 1031829553, 0.4679069221019745, -0.4893847107887268, -0.658079206943512, -0.32939010858535767, 9.762164115905762, -1.0403603315353394, -2.881328821182251, 10.35450553894043, 1.0971859693527222, -9.10131549835205, -1.36083984375, 0.583984375, 0.50634765625, 0, 
87, 1031837886, 0.4679892063140869, -0.4885498881340027, -0.6585335731506348, -0.32960447669029236, 9.655519485473633, -0.9434885382652283, -2.503148317337036, 9.576958656311035, 1.7063437700271606, -10.250934600830078, -1.36767578125, 0.58544921875, 0.504150390625, 0, 
88, 1031846219, 0.46779435873031616, -0.4878578186035156, -0.6589387059211731, -0.3300960063934326, 9.808572769165039, -0.9417982697486877, -2.5707285404205322, 4.066234588623047, 0.7249852418899536, -11.679361343383789, -1.36279296875, 0.578369140625, 0.504638671875, 0, 
89, 1031854552, 0.46764805912971497, -0.4870564639568329, -0.6593644022941589, -0.33063581585884094, 9.925440788269043, -0.7761250138282776, -3.0930423736572266, 4.728747844696045, 1.8548040390014648, -12.882798194885254, -1.35986328125, 0.5771484375, 0.5078125, 0, 
90, 1031862885, 0.4677906036376953, -0.4859369397163391, -0.6599558591842651, -0.33090174198150635, 9.874957084655762, -0.5959393978118896, -3.52005934715271, 11.967805862426758, 3.0193169116973877, -13.817499160766602, -1.3671875, 0.578369140625, 0.5048828125, 0, 
91, 1031871218, 0.4680160582065582, -0.4847038686275482, -0.6606974601745605, -0.3309113383293152, 9.731892585754395, -0.6113031506538391, -3.517465353012085, 16.23296356201172, 1.6080241203308105, -13.81050968170166, -1.364990234375, 0.572265625, 0.505615234375, 0, 
92, 1031879551, 0.4680415987968445, -0.48362353444099426, -0.6614382863044739, -0.3309762179851532, 9.673556327819824, -0.7678235769271851, -3.8734984397888184, 13.440664291381836, -0.5275893211364746, -13.69776725769043, -1.365966796875, 0.5751953125, 0.503662109375, 0, 
93, 1031887884, 0.4680941700935364, -0.4824906587600708, -0.6622398495674133, -0.3309517800807953, 9.498197555541992, -0.6355577111244202, -4.258143424987793, 15.041297912597656, -1.0302945375442505, -13.876016616821289, -1.369873046875, 0.573974609375, 0.501953125, 0, 
94, 1031896217, 0.468173623085022, -0.48131492733955383, -0.6630781888961792, -0.330873042345047, 9.374011993408203, -0.4588245749473572, -4.111178398132324, 16.163101196289062, -1.186848759651184, -14.04658317565918, -1.371337890625, 0.566650390625, 0.504150390625, 0, 
95, 1031904550, 0.4681074917316437, -0.4802440106868744, -0.6638115048408508, -0.3310520350933075, 9.278230667114258, -0.19077634811401367, -3.622302532196045, 11.667991638183594, -0.6073649525642395, -14.700474739074707, -1.37451171875, 0.564697265625, 0.5009765625, 0, 
96, 1031912883, 0.4679412841796875, -0.47915956377983093, -0.6645511388778687, -0.33137449622154236, 9.430371284484863, 0.2754744589328766, -3.523031711578369, 9.842118263244629, -0.5533828735351562, -16.258602142333984, -1.37255859375, 0.567138671875, 0.502685546875, 0, 
97, 1031921216, 0.467923641204834, -0.4778052270412445, -0.6654872894287109, -0.3314763009548187, 9.548518180847168, 0.823152482509613, -3.875049114227295, 15.395186424255371, -0.6837595105171204, -17.89586639404297, -1.376220703125, 0.566650390625, 0.5009765625, 0, 
98, 1031929549, 0.46812909841537476, -0.47619912028312683, -0.6666007041931152, -0.3312602639198303, 9.463791847229004, 1.1296098232269287, -4.301793575286865, 22.273157119750977, -0.7242814302444458, -18.331748962402344, -1.37646484375, 0.56201171875, 0.496826171875, 0, 
99, 1031937882, 0.46848195791244507, -0.4744226038455963, -0.6679064035415649, -0.33067992329597473, 9.191595077514648, 1.1889523267745972, -4.740173816680908, 28.530729293823242, -2.217336893081665, -18.118335723876953, -1.376953125, 0.564453125, 0.495361328125, 0, 
100, 1031946215, 0.4686650037765503, -0.4728247821331024, -0.6692199110984802, -0.3300529420375824, 8.715238571166992, 0.6588220596313477, -4.6502509117126465, 26.754474639892578, -4.946817398071289, -17.016868591308594, -1.377685546875, 0.556396484375, 0.4931640625, 0, 
101, 1031954548, 0.46840500831604004, -0.471713125705719, -0.6703295707702637, -0.32976046204566956, 8.646513938903809, -0.016226891428232193, -4.426321506500244, 16.920385360717773, -7.741328716278076, -15.444147109985352, -1.379638671875, 0.55517578125, 0.498291015625, 0, 
102, 1031962881, 0.4677884578704834, -0.47100862860679626, -0.6712584495544434, -0.32975319027900696, 8.988128662109375, -0.13850311934947968, -4.352808952331543, 8.352649688720703, -9.860342979431152, -13.911771774291992, -1.374755859375, 0.55712890625, 0.5, 0, 
103, 1031971214, 0.46707427501678467, -0.47054141759872437, -0.6720333695411682, -0.32985416054725647, 9.339967727661133, -0.15547724068164825, -3.9068076610565186, 4.5625104904174805, -10.142304420471191, -11.886711120605469, -1.374755859375, 0.550048828125, 0.4951171875, 0, 
104, 1031979547, 0.4664475619792938, -0.47014471888542175, -0.6727096438407898, -0.32992830872535706, 9.641352653503418, -0.20247884094715118, -3.641176223754883, 4.412179946899414, -9.197649955749512, -10.004036903381348, -1.376708984375, 0.547607421875, 0.49462890625, 0, 
105, 1031987880, 0.4658929407596588, -0.46974802017211914, -0.6733355522155762, -0.3299999535083771, 9.706053733825684, -0.10138002038002014, -3.5248594284057617, 4.70989465713501, -8.219135284423828, -9.345086097717285, -1.374755859375, 0.552490234375, 0.49560546875, 0, 
106, 1031996213, 0.46549028158187866, -0.46927720308303833, -0.6739709973335266, -0.32994094491004944, 9.68134880065918, -0.03864818066358566, -3.678037166595459, 7.380026340484619, -7.3855204582214355, -8.558499336242676, -1.380615234375, 0.54541015625, 0.50439453125, 0, 
107, 1032004546, 0.46536701917648315, -0.46868959069252014, -0.6746466755867004, -0.3295693099498749, 9.56147575378418, -0.13014018535614014, -3.6458559036254883, 13.001402854919434, -6.5334625244140625, -6.619218826293945, -1.374755859375, 0.550048828125, 0.49755859375, 0, 
108, 1032012879, 0.46537864208221436, -0.4681312143802643, -0.6753113269805908, -0.328984797000885, 9.359240531921387, -0.30937546491622925, -3.2149388790130615, 15.619331359863281, -6.725107669830322, -4.315474033355713, -1.378662109375, 0.5439453125, 0.50048828125, 0, 
109, 1032021212, 0.46532484889030457, -0.46776583790779114, -0.6758557558059692, -0.32846179604530334, 9.315300941467285, -0.355119913816452, -3.0499114990234375, 12.879096984863281, -7.032249450683594, -2.443176031112671, -1.3798828125, 0.54931640625, 0.50537109375, 0, 
110, 1032029545, 0.46519696712493896, -0.46757611632347107, -0.6763060688972473, -0.327985942363739, 9.396990776062012, -0.18318840861320496, -3.153204917907715, 10.382451057434082, -7.615331649780273, -0.8358054161071777, -1.376708984375, 0.547119140625, 0.4990234375, 0, 
111, 1032037878, 0.4647367298603058, -0.46769770979881287, -0.6766578555107117, -0.3277394771575928, 9.534934043884277, -0.03588021174073219, -2.9724905490875244, 3.800128698348999, -10.00024700164795, -0.3108159899711609, -1.378662109375, 0.551513671875, 0.498291015625, 0, 
112, 1032046211, 0.46418097615242004, -0.46800678968429565, -0.6767233610153198, -0.32795050740242004, 9.63388442993164, 0.08347447216510773, -2.972079038619995, -3.6816368103027344, -6.967687606811523, -0.04277577996253967, -1.37353515625, 0.5478515625, 0.505859375, 0, 
113, 1032054544, 0.4636043906211853, -0.468392550945282, -0.6766945719718933, -0.32827410101890564, 9.734442710876465, 0.12474442273378372, -3.3491549491882324, -5.736448764801025, -6.17417049407959, 0.450400710105896, -1.374755859375, 0.549072265625, 0.505859375, 0, 
114, 1032062877, 0.46336299180984497, -0.46857136487960815, -0.6765258312225342, -0.32870757579803467, 9.76841926574707, 0.053008418530225754, -3.4454333782196045, -3.953953981399536, -0.5279222130775452, 0.25424692034721375, -1.376953125, 0.54248046875, 0.5087890625, 0, 
115, 1032071210, 0.4631807506084442, -0.46861618757247925, -0.6764645576477051, -0.3290262520313263, 9.308402061462402, 0.2543908655643463, -3.6774697303771973, -1.2018327713012695, -0.7913902401924133, -0.6663927435874939, -1.378173828125, 0.54296875, 0.50732421875, 0, 
116, 1032079543, 0.4629640579223633, -0.46869519352912903, -0.6764647960662842, -0.32921841740608215, 9.320826530456543, 0.2420121282339096, -3.95033597946167, -0.1489083617925644, -2.4779083728790283, -0.11494388431310654, -1.38134765625, 0.543701171875, 0.5107421875, 0, 
117, 1032087876, 0.4628276526927948, -0.4687293469905853, -0.6765025854110718, -0.3292839825153351, 9.351055145263672, 0.07515406608581543, -3.9585585594177246, 2.1362526416778564, -2.5787513256073, 0.34487006068229675, -1.376953125, 0.543701171875, 0.50732421875, 0, 
118, 1032096209, 0.4627473056316376, -0.4687587320804596, -0.6765604615211487, -0.3292360305786133, 9.355159759521484, 0.17214538156986237, -4.015536308288574, 3.539477825164795, -2.9001591205596924, 1.1973376274108887, -1.373779296875, 0.541259765625, 0.512939453125, 0, 
119, 1032104542, 0.4627062678337097, -0.4688323438167572, -0.6765405535697937, -0.3292296528816223, 9.674686431884766, 0.09219305962324142, -4.038924217224121, 2.7773516178131104, -1.9638304710388184, 2.0296719074249268, -1.37744140625, 0.544921875, 0.508544921875, 0, 
120, 1032112875, 0.46272847056388855, -0.46889182925224304, -0.6763678789138794, -0.329468697309494, 9.630550384521484, 0.35349348187446594, -3.6068532466888428, 0.29453805088996887, 1.2354769706726074, 1.6033486127853394, -1.373779296875, 0.544189453125, 0.506591796875, 0, 
121, 1032121208, 0.4626466631889343, -0.4689887464046478, -0.6761914491653442, -0.32980722188949585, 9.265066146850586, 0.5486546754837036, -3.236567497253418, -1.5470231771469116, 0.7686192393302917, 0.8682073950767517, -1.373291015625, 0.537841796875, 0.508544921875, 0, 
122, 1032129541, 0.46222802996635437, -0.4692152738571167, -0.6760530471801758, -0.3303552269935608, 9.46370792388916, 0.2957124412059784, -3.019343137741089, -6.3289570808410645, -1.848387360572815, -1.0298075675964355, -1.379638671875, 0.5380859375, 0.513427734375, 0, 
123, 1032137874, 0.46147316694259644, -0.46949630975723267, -0.6759989261627197, -0.3311213254928589, 9.604516983032227, 0.3739427328109741, -3.1858747005462646, -10.521163940429688, -4.342523097991943, -3.9625356197357178, -1.376953125, 0.543701171875, 0.51123046875, 0, 
124, 1032146207, 0.46093446016311646, -0.46945878863334656, -0.6760939955711365, -0.33173033595085144, 9.852953910827637, 0.1860070675611496, -3.656852960586548, -4.9325971603393555, -2.8508002758026123, -5.924687385559082, -1.376953125, 0.53857421875, 0.510009765625, 0, 
125, 1032154540, 0.4605892300605774, -0.46916326880455017, -0.6762838959693909, -0.33224043250083923, 9.652732849121094, -0.05648449435830116, -3.6221425533294678, -0.7197216153144836, -1.1102875471115112, -7.40460205078125, -1.376953125, 0.53759765625, 0.51318359375, 0, 
126, 1032162873, 0.46027520298957825, -0.4686637818813324, -0.6766350865364075, -0.33266541361808777, 9.464953422546387, -0.1773730218410492, -3.4560654163360596, 2.323723554611206, -1.4619966745376587, -9.68163013458252, -1.37841796875, 0.5361328125, 0.509521484375, 0, 
127, 1032171206, 0.460144966840744, -0.46787652373313904, -0.6771003007888794, -0.333006888628006, 9.490041732788086, -0.21349146962165833, -3.6113550662994385, 6.6499433517456055, 0.30911263823509216, -11.728132247924805, -1.38037109375, 0.53125, 0.51171875, 0, 
128, 1032179539, 0.4602769613265991, -0.46683844923973083, -0.6776954531669617, -0.3330707848072052, 9.44781494140625, -0.07356588542461395, -3.765286445617676, 13.084368705749512, 1.2859373092651367, -11.937914848327637, -1.379150390625, 0.52880859375, 0.510498046875, 0, 
129, 1032187872, 0.4605708420276642, -0.46572551131248474, -0.6783565282821655, -0.3328767418861389, 9.516361236572266, -0.1134631335735321, -3.4901933670043945, 17.326881408691406, 1.068267583847046, -10.685120582580566, -1.379638671875, 0.53125, 0.509033203125, 0, 
130, 1032196205, 0.46092191338539124, -0.46464109420776367, -0.678886890411377, -0.33282509446144104, 9.556465148925781, 0.014827093109488487, -3.226196050643921, 15.56175422668457, 3.208132743835449, -10.222477912902832, -1.37841796875, 0.530517578125, 0.509765625, 0, 
131, 1032204538, 0.4614068269729614, -0.4634590446949005, -0.6794178485870361, -0.33271801471710205, 9.399131774902344, 0.28853222727775574, -3.331073760986328, 17.588533401489258, 4.549679279327393, -10.182137489318848, -1.381103515625, 0.528564453125, 0.502197265625, 0, 
132, 1032212871, 0.4620147943496704, -0.46219706535339355, -0.6799625158309937, -0.33251726627349854, 9.372364044189453, 0.6520868539810181, -3.4004955291748047, 19.784931182861328, 5.378018379211426, -9.850611686706543, -1.38037109375, 0.531005859375, 0.506591796875, 0, 
133, 1032221204, 0.4625571370124817, -0.46097782254219055, -0.6804702281951904, -0.33241647481918335, 9.096247673034668, 0.6424427032470703, -3.827970027923584, 17.989334106445312, 5.442629814147949, -10.139476776123047, -1.384765625, 0.528564453125, 0.50048828125, 0, 
134, 1032229537, 0.46305668354034424, -0.45988500118255615, -0.6809098720550537, -0.3323343098163605, 9.193854331970215, 0.680310845375061, -3.9476871490478516, 16.433469772338867, 5.0103888511657715, -8.849567413330078, -1.38232421875, 0.52099609375, 0.501220703125, 0, 
135, 1032237870, 0.4633374512195587, -0.45911893248558044, -0.6811836957931519, -0.3324410319328308, 8.716490745544434, 0.7333856225013733, -4.016330718994141, 10.455015182495117, 3.723567247390747, -6.9426493644714355, -1.388671875, 0.525146484375, 0.49560546875, 0, 
136, 1032246203, 0.4633629620075226, -0.45864737033843994, -0.6813353896141052, -0.33274519443511963, 8.719219207763672, 0.47783297300338745, -3.9271581172943115, 4.545195579528809, 2.00687575340271, -5.840034008026123, -1.390625, 0.523193359375, 0.49462890625, 0, 
137, 1032254536, 0.46308284997940063, -0.4585682451725006, -0.6813369989395142, -0.3332410454750061, 8.50302505493164, 0.5029594302177429, -3.8842127323150635, -2.359161138534546, -0.48186782002449036, -3.8335418701171875, -1.389892578125, 0.522216796875, 0.496337890625, 0, 
138, 1032262869, 0.4626905024051666, -0.4587392210960388, -0.6811434030532837, -0.33394575119018555, 8.947278022766113, 0.3237060308456421, -3.7781999111175537, -7.517177581787109, -0.12447239458560944, -2.1078085899353027, -1.39111328125, 0.524169921875, 0.498291015625, 0, 
139, 1032271202, 0.4620775878429413, -0.45918527245521545, -0.6807690262794495, -0.33494317531585693, 9.088541984558105, 0.371811181306839, -3.4532737731933594, -14.228157997131348, -0.4499780833721161, -1.2599002122879028, -1.385498046875, 0.51953125, 0.49560546875, 0, 
140, 1032279535, 0.4614083766937256, -0.45969897508621216, -0.6803438663482666, -0.33602336049079895, 9.444276809692383, 0.44917669892311096, -3.314115524291992, -16.024768829345703, -0.4499013125896454, -1.0975574254989624, -1.3857421875, 0.51708984375, 0.494384765625, 0, 
141, 1032287868, 0.4607475996017456, -0.46022042632102966, -0.6798945665359497, -0.3371237814426422, 9.608280181884766, 0.41543781757354736, -3.175910711288452, -16.313669204711914, -0.11917024850845337, -0.956013023853302, -1.39013671875, 0.5166015625, 0.499755859375, 0, 
142, 1032296201, 0.4600416421890259, -0.4607904553413391, -0.6793959736824036, -0.3383123576641083, 9.693042755126953, 0.18819324672222137, -3.3604843616485596, -17.967071533203125, 0.09664253890514374, -0.9631083607673645, -1.388916015625, 0.509033203125, 0.499267578125, 0, 
143, 1032304534, 0.4593117833137512, -0.46137747168540955, -0.678892195224762, -0.33951300382614136, 9.587423324584961, -0.06219100579619408, -3.6301262378692627, -18.3513240814209, -0.09067440778017044, -0.955513596534729, -1.386474609375, 0.51025390625, 0.499755859375, 0, 
144, 1032312867, 0.45864370465278625, -0.46194344758987427, -0.6783676743507385, -0.3406932055950165, 9.362605094909668, -0.2551198899745941, -3.78336238861084, -17.746763229370117, 0.5804955363273621, -0.604893147945404, -1.392822265625, 0.509765625, 0.501220703125, 0, 
145, 1032321200, 0.457989364862442, -0.46252888441085815, -0.6778777837753296, -0.3417525589466095, 8.957959175109863, -0.37079936265945435, -3.768312931060791, -16.493202209472656, -0.3648620545864105, 0.19144083559513092, -1.3916015625, 0.50732421875, 0.50634765625, 0, 
146, 1032329533, 0.45727553963661194, -0.4631946086883545, -0.6774221062660217, -0.3427088260650635, 8.661598205566406, -0.34643232822418213, -3.6360654830932617, -16.252172470092773, -2.1728177070617676, 1.0821760892868042, -1.390380859375, 0.505126953125, 0.509521484375, 0, 
147, 1032337866, 0.4565090239048004, -0.4639706313610077, -0.6769371628761292, -0.34363827109336853, 8.59722900390625, -0.09416072070598602, -3.358820676803589, -17.16649627685547, -3.162320852279663, 2.224724531173706, -1.390380859375, 0.5068359375, 0.505126953125, 0, 
148, 1032346199, 0.4557323455810547, -0.4647858738899231, -0.6764506101608276, -0.3445245027542114, 8.742044448852539, 0.3352181315422058, -3.1928212642669678, -17.08655548095703, -3.7152297496795654, 2.815516948699951, -1.391845703125, 0.5, 0.510986328125, 0, 
149, 1032354532, 0.4550357162952423, -0.4655144214630127, -0.6760239601135254, -0.34529799222946167, 9.021162033081055, 0.711707592010498, -3.348452568054199, -14.688292503356934, -3.6494016647338867, 2.716850996017456, -1.38720703125, 0.500732421875, 0.51513671875, 0, 
150, 1032362865, 0.45423704385757446, -0.4662807881832123, -0.6755937337875366, -0.34615665674209595, 9.390188217163086, 0.8908588290214539, -3.170576810836792, -16.398069381713867, -4.215937614440918, 2.0702199935913086, -1.389892578125, 0.498291015625, 0.510986328125, 0, 
151, 1032371198, 0.45335710048675537, -0.46704819798469543, -0.6751852035522461, -0.34707170724868774, 9.744504928588867, 0.9455710649490356, -2.9642815589904785, -17.357223510742188, -4.743898868560791, 1.2084543704986572, -1.388671875, 0.4951171875, 0.5166015625, 0, 
152, 1032379531, 0.4525396525859833, -0.4676559865474701, -0.6748694181442261, -0.3479333221912384, 10.02236270904541, 0.8168908953666687, -2.914201021194458, -15.010367393493652, -4.329382419586182, -0.24493616819381714, -1.389892578125, 0.492431640625, 0.509765625, 0, 
153, 1032387864, 0.4518759846687317, -0.4680379629135132, -0.6746668219566345, -0.3486737906932831, 9.823333740234375, 0.5901163220405579, -2.8644297122955322, -10.947564125061035, -3.301406145095825, -1.5719072818756104, -1.380615234375, 0.4951171875, 0.513916015625, 0, 
154, 1032396197, 0.4513542652130127, -0.4682359993457794, -0.6745396256446838, -0.3493294417858124, 9.567695617675781, 0.33241549134254456, -2.553828716278076, -7.746602535247803, -2.121537208557129, -2.5626657009124756, -1.389892578125, 0.4931640625, 0.51416015625, 0, 
155, 1032404530, 0.45100051164627075, -0.46819570660591125, -0.6745380163192749, -0.3498426079750061, 9.61363410949707, 0.3021240234375, -2.519880533218384, -3.272205352783203, -1.1105947494506836, -3.8809280395507812, -1.38818359375, 0.491455078125, 0.514892578125, 0, 
156, 1032412863, 0.45076003670692444, -0.4679223299026489, -0.674656093120575, -0.35029029846191406, 9.663894653320312, 0.41005533933639526, -2.7809581756591797, 0.09692427515983582, -0.10595329105854034, -5.873664855957031, -1.39208984375, 0.490234375, 0.518310546875, 0, 
157, 1032421196, 0.4506071209907532, -0.46752074360847473, -0.6748313903808594, -0.35068532824516296, 9.44560718536377, 0.6063637733459473, -2.9461002349853516, 2.2269017696380615, 0.6324411630630493, -6.677951812744141, -1.39208984375, 0.48291015625, 0.51904296875, 0, 
158, 1032429529, 0.4504834711551666, -0.4670587182044983, -0.6751068830490112, -0.3509298264980316, 9.146981239318848, 0.7228829860687256, -3.0045530796051025, 4.6617913246154785, -0.39508673548698425, -6.813680648803711, -1.392578125, 0.490234375, 0.516845703125, 0, 
159, 1032437862, 0.4504013955593109, -0.46654391288757324, -0.6754763126373291, -0.35100898146629333, 9.170984268188477, 0.835648775100708, -3.204232692718506, 7.25130033493042, -1.398255467414856, -6.677912712097168, -1.39013671875, 0.48583984375, 0.51953125, 0, 
160, 1032446195, 0.45027613639831543, -0.4660188555717468, -0.6758906841278076, -0.35106974840164185, 9.328361511230469, 1.017338752746582, -3.5434956550598145, 7.419035911560059, -2.1468188762664795, -7.159192085266113, -1.39208984375, 0.482666015625, 0.511474609375, 0, 
161, 1032454528, 0.4501875936985016, -0.46548786759376526, -0.6763129234313965, -0.35107454657554626, 9.223788261413574, 1.2538270950317383, -3.5521023273468018, 8.231006622314453, -2.185880661010742, -6.733867645263672, -1.38916015625, 0.48095703125, 0.51953125, 0, 
162, 1032462861, 0.45006608963012695, -0.46507593989372253, -0.6766982674598694, -0.3510337769985199, 8.978388786315918, 1.369837760925293, -3.1955225467681885, 7.547798156738281, -3.129124402999878, -5.275290012359619, -1.390380859375, 0.481201171875, 0.511474609375, 0, 
163, 1032471194, 0.4497644901275635, -0.46484771370887756, -0.6770426034927368, -0.3510586619377136, 9.385918617248535, 1.488127589225769, -2.9603586196899414, 4.445722579956055, -5.016113758087158, -4.5743184089660645, -1.394775390625, 0.478271484375, 0.515380859375, 0, 
164, 1032479527, 0.4494660794734955, -0.46476468443870544, -0.6773135662078857, -0.35102829337120056, 9.588626861572266, 1.7973116636276245, -3.2280523777008057, 3.7321226596832275, -5.5904998779296875, -2.4020135402679443, -1.38720703125, 0.479736328125, 0.52197265625, 0, 
165, 1032487860, 0.44930633902549744, -0.4648649990558624, -0.6774993538856506, -0.35074087977409363, 9.401402473449707, 1.9318161010742188, -3.2504615783691406, 5.479499816894531, -6.296734809875488, 2.113635301589966, -1.390869140625, 0.482666015625, 0.517822265625, 0, 
166, 1032496193, 0.4491770267486572, -0.4651259779930115, -0.677621066570282, -0.350325345993042, 9.54830551147461, 1.8956007957458496, -3.273033380508423, 5.554549694061279, -7.212521076202393, 4.953255653381348, -1.394775390625, 0.478515625, 0.521728515625, 0, 
167, 1032504526, 0.44920897483825684, -0.46534886956214905, -0.6776615977287292, -0.3499097228050232, 10.023045539855957, 2.113016366958618, -3.579550266265869, 6.438521862030029, -5.025628089904785, 5.898010730743408, -1.3916015625, 0.484130859375, 0.5234375, 0, 
168, 1032512859, 0.449335515499115, -0.4655650556087494, -0.6775903701782227, -0.3495974838733673, 9.867273330688477, 2.0702381134033203, -3.766866445541382, 5.576961994171143, -2.761124849319458, 6.364497184753418, -1.390869140625, 0.482177734375, 0.516357421875, 0, 
169, 1032521192, 0.44951537251472473, -0.46586066484451294, -0.6773611903190613, -0.3494164049625397, 9.417012214660645, 2.079207181930542, -3.67478346824646, 3.453106164932251, -0.8294785022735596, 7.573822021484375, -1.393310546875, 0.4833984375, 0.520263671875, 0, 
170, 1032529525, 0.44954606890678406, -0.4662683606147766, -0.6770644783973694, -0.34940847754478455, 9.099645614624023, 1.997814416885376, -3.4409878253936768, -0.13912369310855865, -1.231545090675354, 7.2515950202941895, -1.39208984375, 0.48486328125, 0.522705078125, 0, 
171, 1032537858, 0.44957995414733887, -0.4666191637516022, -0.6767717003822327, -0.3494635224342346, 8.69173812866211, 1.9423913955688477, -3.698882818222046, -0.3394782543182373, -0.5494893193244934, 6.339138984680176, -1.3876953125, 0.48779296875, 0.518798828125, 0, 
172, 1032546191, 0.4496597647666931, -0.4668273627758026, -0.6766669750213623, -0.3492858409881592, 8.369024276733398, 1.804799199104309, -3.950784921646118, 3.911113977432251, -2.090339183807373, 5.448070049285889, -1.388916015625, 0.48779296875, 0.518798828125, 0, 
173, 1032554524, 0.44976043701171875, -0.46696043014526367, -0.6767148375511169, -0.34888508915901184, 8.539271354675293, 1.7509795427322388, -4.087916374206543, 7.3441267013549805, -3.9124207496643066, 5.257923603057861, -1.38818359375, 0.488525390625, 0.523193359375, 0, 
174, 1032562857, 0.4499446153640747, -0.4669133722782135, -0.6769712567329407, -0.34821245074272156, 8.640156745910645, 1.7504003047943115, -4.429029941558838, 12.499287605285645, -5.306386947631836, 4.317535877227783, -1.3857421875, 0.491455078125, 0.519287109375, 0, 
175, 1032571190, 0.45028814673423767, -0.46666911244392395, -0.6774690747261047, -0.34712597727775574, 8.442505836486816, 1.7558958530426025, -4.661792755126953, 19.761110305786133, -7.0284600257873535, 4.273660182952881, -1.386962890625, 0.490478515625, 0.52294921875, 0, 
176, 1032579523, 0.4506174623966217, -0.4664294719696045, -0.6781535744667053, -0.345681369304657, 8.541101455688477, 1.4472178220748901, -4.570453643798828, 23.857751846313477, -10.637789726257324, 5.248589992523193, -1.387451171875, 0.4921875, 0.519287109375, 0, 
177, 1032587856, 0.4509330689907074, -0.4662800133228302, -0.6788883805274963, -0.3440249562263489, 8.830599784851074, 1.0977516174316406, -4.333083152770996, 25.4345703125, -12.862339973449707, 7.035672187805176, -1.388671875, 0.495361328125, 0.52294921875, 0, 
178, 1032596189, 0.4511408805847168, -0.4663444757461548, -0.6794742345809937, -0.3425053060054779, 8.852056503295898, 0.9834949374198914, -4.096102714538574, 21.42717742919922, -13.082810401916504, 8.607656478881836, -1.38623046875, 0.49658203125, 0.52294921875, 0, 
179, 1032604522, 0.45107999444007874, -0.46671411395072937, -0.6798194050788879, -0.34139472246170044, 8.813356399536133, 0.7279142141342163, -3.1798362731933594, 12.861345291137695, -12.909795761108398, 9.223636627197266, -1.381591796875, 0.500244140625, 0.522705078125, 0, 
180, 1032612855, 0.4507085680961609, -0.467414915561676, -0.679920494556427, -0.34072500467300415, 9.023489952087402, 0.46361055970191956, -2.4116804599761963, 3.5384793281555176, -13.028363227844238, 9.670272827148438, -1.38037109375, 0.503662109375, 0.52685546875, 0, 
181, 1032621188, 0.45016899704933167, -0.46823394298553467, -0.6799879670143127, -0.3401782810688019, 9.466771125793457, 0.48779308795928955, -2.594334125518799, 0.4445607364177704, -14.150266647338867, 9.458108901977539, -1.37841796875, 0.5029296875, 0.529296875, 0, 
182, 1032629521, 0.44974303245544434, -0.4689669907093048, -0.6800628304481506, -0.3395816385746002, 9.69757080078125, 0.7378600239753723, -3.047600746154785, 2.1842799186706543, -13.058971405029297, 9.42931842803955, -1.37841796875, 0.503662109375, 0.533203125, 0, 
183, 1032637854, 0.4494706094264984, -0.4696013033390045, -0.6801414489746094, -0.3389080762863159, 9.499324798583984, 0.8066691160202026, -3.3250062465667725, 4.561972618103027, -11.67587947845459, 9.684231758117676, -1.37353515625, 0.506103515625, 0.532958984375, 0, 
184, 1032646187, 0.4489400088787079, -0.4704972207546234, -0.6801438331604004, -0.3383635878562927, 9.581687927246094, 0.5563033223152161, -2.9461870193481445, -0.3248269557952881, -14.0115385055542, 10.61169719696045, -1.372802734375, 0.5068359375, 0.531005859375, 0, 
185, 1032654520, 0.44810202717781067, -0.4716663658618927, -0.6800685524940491, -0.3379978537559509, 9.716516494750977, 0.2886723279953003, -3.437345266342163, -6.029708385467529, -16.51628303527832, 11.165352821350098, -1.36962890625, 0.50927734375, 0.53515625, 0, 
186, 1032662853, 0.44727349281311035, -0.47282952070236206, -0.6800674200057983, -0.33747196197509766, 9.767688751220703, -0.03612060472369194, -3.912691593170166, -4.093963146209717, -17.900936126708984, 11.630839347839355, -1.36962890625, 0.507080078125, 0.540283203125, 0, 
187, 1032671186, 0.44641733169555664, -0.47405537962913513, -0.679966151714325, -0.3370894491672516, 10.002507209777832, -0.7594552040100098, -4.293113708496094, -6.435616970062256, -16.896728515625, 11.87350845336914, -1.36767578125, 0.509521484375, 0.5419921875, 0, 
188, 1032679519, 0.44556093215942383, -0.4753871560096741, -0.6797465085983276, -0.3367903232574463, 9.8668212890625, -1.2667365074157715, -4.480885028839111, -8.445822715759277, -16.124897003173828, 13.108986854553223, -1.368896484375, 0.511474609375, 0.5458984375, 0, 
189, 1032687852, 0.44461047649383545, -0.47695937752723694, -0.6793467402458191, -0.33662980794906616, 9.830083847045898, -1.5840305089950562, -3.958831787109375, -12.647738456726074, -16.1055850982666, 15.269956588745117, -1.36328125, 0.51220703125, 0.552001953125, 0, 
190, 1032696185, 0.44351738691329956, -0.4787881374359131, -0.6787092089653015, -0.3367617130279541, 9.801419258117676, -1.815509557723999, -3.673332691192627, -18.99897575378418, -15.25560474395752, 16.755794525146484, -1.362060546875, 0.513916015625, 0.559326171875, 0, 
191, 1032704518, 0.4426581859588623, -0.4805702865123749, -0.6779701113700867, -0.3368426263332367, 9.698673248291016, -1.3965940475463867, -3.61387300491333, -17.154542922973633, -12.571179389953613, 18.40253257751465, -1.361328125, 0.51513671875, 0.56005859375, 0, 
192, 1032712851, 0.4421606957912445, -0.4821701943874359, -0.6772956252098083, -0.33656665682792664, 9.72215461730957, -1.0244719982147217, -3.268035411834717, -10.0427827835083, -11.108207702636719, 20.105941772460938, -1.360595703125, 0.51708984375, 0.56103515625, 0, 
193, 1032721184, 0.4418022930622101, -0.48366492986679077, -0.6766402125358582, -0.3362101912498474, 9.877989768981934, -0.9638435244560242, -2.9372506141662598, -7.636157512664795, -9.974534034729004, 20.145145416259766, -1.349365234375, 0.518798828125, 0.561279296875, 0, 
194, 1032729517, 0.4415929913520813, -0.4849839508533478, -0.6760258078575134, -0.3358210325241089, 9.976461410522461, -0.9627796411514282, -2.9935314655303955, -5.08943510055542, -8.242036819458008, 19.114219665527344, -1.35302734375, 0.522705078125, 0.56396484375, 0, 
195, 1032737850, 0.44178506731987, -0.48585832118988037, -0.6756463646888733, -0.3350670337677002, 9.948016166687012, -0.8283405303955078, -3.334117889404297, 4.767553329467773, -6.318943977355957, 17.492300033569336, -1.351806640625, 0.521484375, 0.565673828125, 0, 
196, 1032746183, 0.44230085611343384, -0.4863521158695221, -0.6754400730133057, -0.3340849280357361, 9.855414390563965, -0.8499610424041748, -3.302854061126709, 12.155547142028809, -4.1321024894714355, 15.665698051452637, -1.347900390625, 0.527099609375, 0.566162109375, 0, 
197, 1032754516, 0.4430907666683197, -0.4865230619907379, -0.6753694415092468, -0.3329296410083771, 9.680603981018066, -0.7181437015533447, -3.3617281913757324, 18.17889404296875, -2.0874972343444824, 14.08737564086914, -1.347412109375, 0.525634765625, 0.566650390625, 0, 
198, 1032762849, 0.44408202171325684, -0.4864600896835327, -0.6754467487335205, -0.3315412700176239, 9.529793739318848, -0.2749360501766205, -3.5436935424804688, 23.799482345581055, -1.6067947149276733, 13.252224922180176, -1.347900390625, 0.53076171875, 0.56396484375, 0, 
199, 1032771182, 0.4451693892478943, -0.48623189330101013, -0.6756460070610046, -0.33000820875167847, 9.334211349487305, 0.12261329591274261, -3.723512649536133, 27.378158569335938, -1.6748778820037842, 12.226812362670898, -1.352783203125, 0.534423828125, 0.564697265625, 0, 
200, 1032779515, 0.446276992559433, -0.4858952760696411, -0.6758961081504822, -0.32849258184432983, 9.053561210632324, 0.5359917879104614, -3.9175004959106445, 28.219316482543945, -1.1883479356765747, 10.861047744750977, -1.348876953125, 0.541259765625, 0.559326171875, 0, 
201, 1032787848, 0.4472624957561493, -0.48553574085235596, -0.6762350797653198, -0.32698261737823486, 8.850811958312988, 0.8581501841545105, -4.214032173156738, 27.89570426940918, -2.7308380603790283, 9.475621223449707, -1.3486328125, 0.544189453125, 0.55615234375, 0, 
202, 1032796181, 0.44792163372039795, -0.4852640926837921, -0.6766220927238464, -0.32568058371543884, 8.783404350280762, 0.8017072081565857, -4.399499416351318, 23.455848693847656, -5.063347339630127, 7.219362258911133, -1.34375, 0.546142578125, 0.556640625, 0, 
203, 1032804514, 0.44824883341789246, -0.4850761592388153, -0.6770308613777161, -0.32465919852256775, 8.881610870361328, 0.2989948093891144, -4.551938056945801, 18.20168685913086, -6.792116165161133, 4.651239395141602, -1.345458984375, 0.55029296875, 0.553466796875, 0, 
204, 1032812847, 0.4483908414840698, -0.48489508032798767, -0.6774689555168152, -0.32381895184516907, 9.12282657623291, -0.14999067783355713, -4.5533318519592285, 15.377920150756836, -7.514949798583984, 2.561142683029175, -1.345458984375, 0.55029296875, 0.55517578125, 0, 
205, 1032821180, 0.44855016469955444, -0.48466554284095764, -0.6778648495674133, -0.32311245799064636, 9.13061237335205, -0.4129902720451355, -4.500871181488037, 14.361815452575684, -5.989736557006836, 1.6528486013412476, -1.343505859375, 0.554931640625, 0.558837890625, 0, 
206, 1032829513, 0.44876936078071594, -0.4844265580177307, -0.6781657934188843, -0.3225344717502594, 9.058770179748535, -0.29429110884666443, -4.334773063659668, 13.195446968078613, -3.9446699619293213, 1.6622234582901, -1.343994140625, 0.557373046875, 0.558837890625, 0, 
207, 1032837846, 0.44906631112098694, -0.48416760563850403, -0.6783823370933533, -0.322054386138916, 9.126167297363281, 0.050891295075416565, -3.86757230758667, 12.549517631530762, -1.956786870956421, 1.7913061380386353, -1.34716796875, 0.5537109375, 0.557861328125, 0, 
208, 1032846179, 0.4492943286895752, -0.4839267432689667, -0.6785353422164917, -0.3217759132385254, 9.264518737792969, 0.22346603870391846, -3.604090452194214, 9.816373825073242, -0.9470735192298889, 0.8203727006912231, -1.343505859375, 0.55224609375, 0.552001953125, 0, 
209, 1032854512, 0.4494103193283081, -0.48371410369873047, -0.678653359413147, -0.32168474793434143, 9.451067924499512, 0.19430330395698547, -3.535889148712158, 7.0030341148376465, -0.6524329781532288, -0.32559534907341003, -1.34716796875, 0.560546875, 0.558837890625, 0, 
210, 1032862845, 0.4494447410106659, -0.48344555497169495, -0.6788244247436523, -0.3216797113418579, 9.747740745544434, -0.2314339131116867, -4.012513637542725, 6.228434085845947, -0.9233803153038025, -2.104811429977417, -1.34521484375, 0.557373046875, 0.558837890625, 0, 
211, 1032871178, 0.4495730400085449, -0.48296570777893066, -0.6790977120399475, -0.3216439187526703, 9.954625129699707, -0.8009142875671387, -4.270845413208008, 8.892109870910645, 0.052560415118932724, -4.1380696296691895, -1.33984375, 0.549072265625, 0.556396484375, 0, 
212, 1032879511, 0.44984135031700134, -0.4822990596294403, -0.6794344186782837, -0.32155823707580566, 9.75262451171875, -1.267210841178894, -4.202369213104248, 11.728913307189941, 1.4628292322158813, -5.3901448249816895, -1.34716796875, 0.5546875, 0.553955078125, 0, 
213, 1032887844, 0.45014363527297974, -0.48158711194992065, -0.6798015236854553, -0.3214260935783386, 9.3934326171875, -1.5174825191497803, -3.913760185241699, 12.826165199279785, 1.4821553230285645, -5.568126678466797, -1.343994140625, 0.553466796875, 0.553955078125, 0, 
214, 1032896177, 0.45043668150901794, -0.48088371753692627, -0.680171549320221, -0.32128599286079407, 9.019103050231934, -1.6278467178344727, -3.804224729537964, 12.774898529052734, 1.2900612354278564, -5.506178379058838, -1.3466796875, 0.55322265625, 0.547119140625, 0, 
215, 1032904510, 0.4508358836174011, -0.48011818528175354, -0.6805629134178162, -0.32104167342185974, 8.691288948059082, -1.3163903951644897, -4.278416633605957, 14.933975219726562, 1.7332133054733276, -5.111847877502441, -1.348388671875, 0.55419921875, 0.553466796875, 0, 
216, 1032912843, 0.45126447081565857, -0.4793788194656372, -0.6809918284416199, -0.3206349313259125, 8.579172134399414, -0.8679124116897583, -4.546433925628662, 16.649051666259766, 0.5908181071281433, -3.9800045490264893, -1.350341796875, 0.555908203125, 0.551513671875, 0, 
217, 1032921176, 0.4517521262168884, -0.47866401076316833, -0.6814252734184265, -0.32009467482566833, 8.642744064331055, -0.284924179315567, -4.769084453582764, 18.155963897705078, 0.12556101381778717, -2.6868956089019775, -1.35107421875, 0.555419921875, 0.553466796875, 0, 
218, 1032929509, 0.45214730501174927, -0.47806963324546814, -0.6818321347236633, -0.31955838203430176, 8.637690544128418, 0.18929462134838104, -4.822535514831543, 16.64672088623047, -1.0790127515792847, -1.819417953491211, -1.347900390625, 0.553955078125, 0.547119140625, 0, 
219, 1032937842, 0.45220232009887695, -0.477772057056427, -0.6821323037147522, -0.3192848265171051, 8.837496757507324, 0.3814443051815033, -4.692155838012695, 9.629212379455566, -3.1812756061553955, -1.4624321460723877, -1.353271484375, 0.5595703125, 0.5458984375, 0, 
220, 1032946175, 0.45182445645332336, -0.47786271572113037, -0.6822554469108582, -0.3194209933280945, 8.999810218811035, 0.5746887922286987, -4.55092191696167, -0.2469596564769745, -5.1554155349731445, -1.1083918809890747, -1.350341796875, 0.55517578125, 0.54638671875, 0, 
221, 1032954508, 0.45106202363967896, -0.4783143103122711, -0.6821674108505249, -0.3200100362300873, 9.063926696777344, 0.8725043535232544, -4.448298454284668, -10.182337760925293, -6.054398536682129, -0.8395962715148926, -1.350341796875, 0.55712890625, 0.549072265625, 0, 
222, 1032962841, 0.4500041604042053, -0.47905945777893066, -0.6818857789039612, -0.3209836483001709, 9.071684837341309, 1.206823706626892, -4.095938205718994, -18.41844940185547, -6.392816066741943, -0.49531546235084534, -1.3466796875, 0.55517578125, 0.549560546875, 0, 
223, 1032971174, 0.4485969841480255, -0.48009559512138367, -0.6814708709716797, -0.32228347659111023, 8.961599349975586, 1.4532227516174316, -3.6261842250823975, -26.162229537963867, -7.974137306213379, -0.44272947311401367, -1.34912109375, 0.549072265625, 0.549072265625, 0, 
224, 1032979507, 0.44682440161705017, -0.4813821315765381, -0.6809567213058472, -0.323909729719162, 8.959630012512207, 1.4396001100540161, -3.431151866912842, -33.62156295776367, -9.746893882751465, -1.0801278352737427, -1.34814453125, 0.546875, 0.55859375, 0, 
225, 1032987840, 0.44474461674690247, -0.4828173518180847, -0.6803860664367676, -0.32582926750183105, 9.17721939086914, 1.0374763011932373, -3.346214532852173, -39.559959411621094, -10.990468978881836, -2.479435443878174, -1.344970703125, 0.543701171875, 0.562255859375, 0, 
226, 1032996173, 0.44258567690849304, -0.48416152596473694, -0.6798877120018005, -0.32780855894088745, 9.252635955810547, 0.6213776469230652, -3.518789529800415, -39.7716064453125, -11.375747680664062, -4.537171840667725, -1.343994140625, 0.536376953125, 0.56494140625, 0, 
227, 1033004506, 0.4404832422733307, -0.4853396415710449, -0.6795124411582947, -0.3296712636947632, 9.392080307006836, 0.09843079000711441, -3.369441032409668, -36.70431137084961, -11.617953300476074, -5.941856384277344, -1.343505859375, 0.52880859375, 0.567138671875, 0, 
228, 1033012839, 0.4384891092777252, -0.48630550503730774, -0.6792813539505005, -0.3313780426979065, 9.671396255493164, -0.3574643135070801, -3.138554334640503, -32.621212005615234, -11.562881469726562, -7.455992698669434, -1.347412109375, 0.52587890625, 0.57177734375, 0, 
229, 1033021172, 0.43672043085098267, -0.48695558309555054, -0.6792455911636353, -0.33282920718193054, 9.867361068725586, -0.7915032505989075, -2.996901273727417, -25.921846389770508, -10.902030944824219, -9.133749008178711, -1.345458984375, 0.52490234375, 0.578125, 0, 
230, 1033029505, 0.4352271854877472, -0.4872848391532898, -0.6793513298034668, -0.33408528566360474, 10.055244445800781, -1.0895856618881226, -3.087308645248413, -19.690732955932617, -9.01978874206543, -10.654541015625, -1.340087890625, 0.51806640625, 0.58056640625, 0, 
231, 1033037838, 0.43417584896087646, -0.4871922731399536, -0.6796202063560486, -0.33504006266593933, 9.924751281738281, -0.9757064580917358, -3.255342960357666, -10.644368171691895, -5.9466657638549805, -11.845316886901855, -1.344482421875, 0.515625, 0.583251953125, 0, 
232, 1033046171, 0.43360215425491333, -0.4866645038127899, -0.6800600290298462, -0.33565717935562134, 9.668754577636719, -0.6685370802879333, -3.389636278152466, -0.8986626267433167, -2.7636098861694336, -12.85111141204834, -1.345703125, 0.5107421875, 0.58349609375, 0, 
233, 1033054504, 0.43320348858833313, -0.48590463399887085, -0.6806256771087646, -0.33612528443336487, 9.609582901000977, -0.3752506673336029, -3.4680209159851074, 3.634890556335449, -1.8037418127059937, -14.155951499938965, -1.34716796875, 0.505126953125, 0.583740234375, 0, 
234, 1033062837, 0.43279609084129333, -0.4851180613040924, -0.6811557412147522, -0.3367120921611786, 9.691130638122559, -0.09135108441114426, -3.4760563373565674, 2.458864450454712, -0.7552230358123779, -14.926403999328613, -1.34912109375, 0.50439453125, 0.58251953125, 0, 
235, 1033071170, 0.43250948190689087, -0.48419123888015747, -0.6816473007202148, -0.3374190032482147, 9.996788024902344, -0.16448263823986053, -3.5295822620391846, 2.7775063514709473, 2.0537757873535156, -16.12945556640625, -1.347412109375, 0.50146484375, 0.5869140625, 0, 
236, 1033079503, 0.43262359499931335, -0.4829217493534088, -0.682206392288208, -0.33796167373657227, 9.849286079406738, -0.4234088659286499, -3.446553945541382, 9.354090690612793, 5.906670093536377, -16.965198516845703, -1.3515625, 0.50439453125, 0.581298828125, 0, 
237, 1033087836, 0.4329540729522705, -0.4814904034137726, -0.6829106211662292, -0.33815816044807434, 9.428391456604004, -0.6601172089576721, -3.7934763431549072, 15.675241470336914, 5.522778511047363, -16.379261016845703, -1.354248046875, 0.49951171875, 0.5859375, 0, 
238, 1033096169, 0.4333980083465576, -0.4799613654613495, -0.6837152242660522, -0.33813732862472534, 9.612792015075684, -0.40319380164146423, -4.174971103668213, 19.515499114990234, 5.010557174682617, -16.14078140258789, -1.357421875, 0.497802734375, 0.586181640625, 0, 
239, 1033104502, 0.43404775857925415, -0.478311687707901, -0.6844485402107239, -0.33815816044807434, 9.8121337890625, -0.3225482702255249, -4.099246025085449, 20.8740234375, 8.20040225982666, -16.09449577331543, -1.351806640625, 0.499267578125, 0.57958984375, 0, 
240, 1033112835, 0.43497273325920105, -0.47660645842552185, -0.6849374175071716, -0.33838748931884766, 9.719773292541504, -0.21032178401947021, -4.176966190338135, 19.911828994750977, 13.88448715209961, -14.977741241455078, -1.358154296875, 0.49169921875, 0.57568359375, 0, 
241, 1033121168, 0.43592384457588196, -0.474847674369812, -0.6854419112205505, -0.33861425518989563, 9.402589797973633, 0.2873844504356384, -4.082038402557373, 20.506364822387695, 14.266167640686035, -15.446741104125977, -1.353759765625, 0.49462890625, 0.571533203125, 0, 
242, 1033129501, 0.43702709674835205, -0.4730686545372009, -0.6859124302864075, -0.3387296795845032, 9.143193244934082, 0.5190600156784058, -2.938641309738159, 22.50568389892578, 15.275317192077637, -14.038955688476562, -1.358642578125, 0.49462890625, 0.568603515625, 0, 
243, 1033137834, 0.43771788477897644, -0.4716247618198395, -0.6863597631454468, -0.33894479274749756, 9.426712036132812, 1.039951205253601, -2.8281402587890625, 16.748977661132812, 10.606679916381836, -13.241837501525879, -1.363037109375, 0.49462890625, 0.565673828125, 0, 
244, 1033146167, 0.4385652244091034, -0.46987804770469666, -0.6869710087776184, -0.3390370309352875, 10.588788032531738, 1.402498483657837, -3.919471025466919, 21.523284912109375, 11.71535873413086, -15.69969367980957, -1.3701171875, 0.493408203125, 0.562744140625, 0, 
245, 1033154500, 0.4397434592247009, -0.4678124189376831, -0.6876590251922607, -0.3389725089073181, 10.29947566986084, 1.3596513271331787, -4.179565906524658, 27.43036651611328, 14.848870277404785, -16.728382110595703, -1.366943359375, 0.48974609375, 0.552734375, 0, 
246, 1033162833, 0.4408089518547058, -0.4656637907028198, -0.6883468627929688, -0.33915117383003235, 9.809343338012695, 1.1287323236465454, -4.096325874328613, 24.900699615478516, 15.739273071289062, -19.50014877319336, -1.371337890625, 0.48681640625, 0.55224609375, 0, 
247, 1033171166, 0.4417036771774292, -0.4636094570159912, -0.6889767050743103, -0.33952248096466064, 9.407391548156738, 1.2769185304641724, -4.060644626617432, 21.176128387451172, 15.264819145202637, -20.211458206176758, -1.37646484375, 0.48486328125, 0.550537109375, 0, 
248, 1033179499, 0.4424034655094147, -0.46163108944892883, -0.6896450519561768, -0.3399500250816345, 9.101991653442383, 1.2528661489486694, -4.171318054199219, 19.084285736083984, 13.19290542602539, -20.978370666503906, -1.37451171875, 0.48583984375, 0.544677734375, 0, 
249, 1033187832, 0.443206787109375, -0.4596434235572815, -0.6903133392333984, -0.3402401804924011, 9.096089363098145, 1.2280654907226562, -4.388987064361572, 21.090341567993164, 13.338470458984375, -19.744558334350586, -1.381591796875, 0.48291015625, 0.543212890625, 0, 
250, 1033196165, 0.4439084529876709, -0.4577504098415375, -0.6910117268562317, -0.3404599130153656, 8.863778114318848, 1.2134532928466797, -4.412100315093994, 20.690221786499023, 11.309972763061523, -19.084476470947266, -1.379638671875, 0.47900390625, 0.538330078125, 0, 
251, 1033204498, 0.4445585608482361, -0.4559594690799713, -0.6916342973709106, -0.34075039625167847, 8.870863914489746, 0.9501234292984009, -4.17899227142334, 18.713197708129883, 11.245463371276855, -18.304866790771484, -1.383544921875, 0.4814453125, 0.53759765625, 0, 
252, 1033212831, 0.44511541724205017, -0.4543610215187073, -0.6921403408050537, -0.3411311209201813, 8.797981262207031, 1.0221374034881592, -4.038374900817871, 15.548872947692871, 10.73762035369873, -16.73794937133789, -1.383544921875, 0.47705078125, 0.53662109375, 0, 
253, 1033221164, 0.44578927755355835, -0.4528483748435974, -0.6925324201583862, -0.34146642684936523, 9.026182174682617, 0.972234308719635, -4.27891206741333, 15.654841423034668, 11.859448432922363, -14.379775047302246, -1.387939453125, 0.473876953125, 0.532470703125, 0, 
254, 1033229497, 0.446522057056427, -0.45134279131889343, -0.6929202079772949, -0.341715931892395, 9.051070213317871, 1.0762797594070435, -4.538591384887695, 16.772733688354492, 11.885355949401855, -13.484235763549805, -1.389404296875, 0.468017578125, 0.5244140625, 0, 
255, 1033237830, 0.44729316234588623, -0.4498138427734375, -0.6932939291000366, -0.34196531772613525, 8.929372787475586, 1.1893996000289917, -4.508936882019043, 17.077993392944336, 12.438995361328125, -13.430305480957031, -1.389892578125, 0.4697265625, 0.52490234375, 0, 
256, 1033246163, 0.44799453020095825, -0.44846469163894653, -0.6935280561447144, -0.3423442542552948, 8.923025131225586, 1.3663116693496704, -4.265809535980225, 13.66120433807373, 12.593011856079102, -11.988016128540039, -1.391357421875, 0.4677734375, 0.521240234375, 0, 
257, 1033254496, 0.4485657513141632, -0.4472392499446869, -0.6937552094459534, -0.3427387475967407, 8.739862442016602, 1.4806737899780273, -4.156863689422607, 11.923250198364258, 10.908644676208496, -11.468123435974121, -1.39697265625, 0.4658203125, 0.51513671875, 0, 
258, 1033262829, 0.4490376114845276, -0.44609522819519043, -0.6940558552742004, -0.3430030941963196, 8.480314254760742, 1.4271876811981201, -4.252713203430176, 12.390555381774902, 8.323501586914062, -10.814395904541016, -1.39990234375, 0.468994140625, 0.513916015625, 0, 
259, 1033271162, 0.4494059979915619, -0.4450549781322479, -0.694368839263916, -0.3432384133338928, 8.598681449890137, 1.3669105768203735, -3.971167802810669, 11.450028419494629, 6.5917229652404785, -10.200091361999512, -1.398681640625, 0.4677734375, 0.5146484375, 0, 
260, 1033279495, 0.4497029185295105, -0.44405388832092285, -0.6946006417274475, -0.34367677569389343, 8.668192863464355, 1.347064733505249, -3.4545321464538574, 8.449420928955078, 7.467884063720703, -10.92914867401123, -1.4033203125, 0.46533203125, 0.513671875, 0, 
261, 1033287828, 0.44978928565979004, -0.4431793987751007, -0.6948258876800537, -0.3442365825176239, 8.773512840270996, 1.144154667854309, -3.3143956661224365, 5.180300712585449, 5.645737171173096, -11.418584823608398, -1.3994140625, 0.4619140625, 0.510986328125, 0, 
262, 1033296161, 0.4498315751552582, -0.44232073426246643, -0.695074200630188, -0.3447842001914978, 8.799605369567871, 0.9522271156311035, -3.553187847137451, 5.048131465911865, 4.928025722503662, -11.548961639404297, -1.404052734375, 0.458251953125, 0.510009765625, 0, 
263, 1033304494, 0.45001474022865295, -0.44138097763061523, -0.6953418850898743, -0.3452090322971344, 8.785584449768066, 0.7848998308181763, -3.8647334575653076, 7.678738594055176, 5.796245574951172, -11.006193161010742, -1.404052734375, 0.458984375, 0.510009765625, 0, 
264, 1033312827, 0.4503084123134613, -0.44043487310409546, -0.695608377456665, -0.34549781680107117, 8.642753601074219, 0.5662723183631897, -3.8794937133789062, 9.676497459411621, 6.060918807983398, -9.700254440307617, -1.40283203125, 0.45556640625, 0.508056640625, 0, 
265, 1033321160, 0.45061638951301575, -0.4395846128463745, -0.6957987546920776, -0.34579557180404663, 8.526777267456055, 0.5063477754592896, -3.8991143703460693, 8.71037769317627, 6.270083427429199, -8.298154830932617, -1.408447265625, 0.454345703125, 0.504638671875, 0, 
266, 1033329493, 0.45094090700149536, -0.4388529062271118, -0.6959624290466309, -0.34597256779670715, 8.48087215423584, 0.7750023603439331, -3.9961512088775635, 9.116874694824219, 5.298381328582764, -6.188438415527344, -1.406005859375, 0.449951171875, 0.506591796875, 0, 
267, 1033337826, 0.45132118463516235, -0.4381730854511261, -0.6961784958839417, -0.3459033966064453, 8.423768997192383, 0.9333233833312988, -4.05316686630249, 11.747700691223145, 3.7792141437530518, -4.20826530456543, -1.4052734375, 0.454345703125, 0.50390625, 0, 
268, 1033346159, 0.45167845487594604, -0.4375430941581726, -0.6964399218559265, -0.3457081615924835, 8.459860801696777, 1.000186562538147, -4.408009052276611, 12.711589813232422, 2.277758836746216, -3.3390207290649414, -1.40966796875, 0.454345703125, 0.50390625, 0, 
269, 1033354492, 0.45192888379096985, -0.43701988458633423, -0.6966935396194458, -0.3455319404602051, 8.460899353027344, 1.103154182434082, -4.471846580505371, 11.183444023132324, 0.912699282169342, -2.8872363567352295, -1.408447265625, 0.453125, 0.502685546875, 0, 
270, 1033362825, 0.4521067440509796, -0.4366135895252228, -0.6968764662742615, -0.3454439043998718, 8.54259204864502, 1.3120287656784058, -4.119295597076416, 8.843635559082031, 0.6263065338134766, -2.243269205093384, -1.412841796875, 0.451171875, 0.50244140625, 0, 
271, 1033371158, 0.4522031843662262, -0.43634775280952454, -0.6969656348228455, -0.3454737067222595, 8.735827445983887, 1.5451470613479614, -3.8124120235443115, 5.919821262359619, 0.47569477558135986, -1.4485620260238647, -1.41162109375, 0.453125, 0.5009765625, 0, 
272, 1033379491, 0.45213863253593445, -0.4363722503185272, -0.6968724727630615, -0.3457150161266327, 9.165996551513672, 1.68795645236969, -3.496044874191284, 0.23972360789775848, -0.049397047609090805, 0.34233424067497253, -1.410400390625, 0.4560546875, 0.500732421875, 0, 
273, 1033387824, 0.4519413113594055, -0.4366689920425415, -0.6966220736503601, -0.34610283374786377, 9.59213638305664, 1.8043022155761719, -3.391075849533081, -4.397259712219238, -0.7515087723731995, 2.3650646209716797, -1.410400390625, 0.454833984375, 0.495849609375, 0, 
274, 1033396157, 0.45171672105789185, -0.437148779630661, -0.6962373852729797, -0.34656408429145813, 9.979592323303223, 1.8483716249465942, -3.2190372943878174, -7.043235778808594, -0.6147544384002686, 4.327934265136719, -1.411865234375, 0.447509765625, 0.501220703125, 0, 
275, 1033404490, 0.4514974355697632, -0.4377427101135254, -0.6957228779792786, -0.3471330404281616, 9.921137809753418, 1.6397066116333008, -2.7460837364196777, -9.367115020751953, 0.3525799810886383, 5.566153526306152, -1.410888671875, 0.452880859375, 0.495849609375, 0, 
276, 1033412823, 0.45125648379325867, -0.438372403383255, -0.6951575875282288, -0.3477834463119507, 9.763481140136719, 1.283381700515747, -2.490586519241333, -10.746696472167969, 0.771500825881958, 5.594815254211426, -1.416015625, 0.453125, 0.50244140625, 0, 
277, 1033421156, 0.45108041167259216, -0.4389044940471649, -0.6946207284927368, -0.3484131395816803, 9.809412002563477, 0.9358888864517212, -2.5306951999664307, -9.424617767333984, 1.5641591548919678, 4.9478254318237305, -1.4091796875, 0.450439453125, 0.499755859375, 0, 
278, 1033429489, 0.450989305973053, -0.4392942488193512, -0.6941917538642883, -0.3488943576812744, 9.68727970123291, 0.6209447979927063, -2.637403726577759, -6.083086967468262, 1.485600233078003, 4.246379375457764, -1.4111328125, 0.451904296875, 0.50341796875, 0, 
279, 1033437822, 0.4510262906551361, -0.43952271342277527, -0.6938679218292236, -0.3492026925086975, 9.749688148498535, 0.38017427921295166, -2.8469574451446533, -2.1562960147857666, 1.7900253534317017, 3.776102066040039, -1.4150390625, 0.44677734375, 0.50244140625, 0, 
280, 1033446155, 0.45128780603408813, -0.43960821628570557, -0.6935685276985168, -0.3493521809577942, 9.719755172729492, 0.35681596398353577, -3.125227928161621, 1.7210972309112549, 3.5043601989746094, 4.310568332672119, -1.4091796875, 0.448486328125, 0.497314453125, 0, 
281, 1033454488, 0.4517912268638611, -0.4395376443862915, -0.6933681964874268, -0.3491877615451813, 9.482328414916992, 0.5472002029418945, -3.309309482574463, 7.618289947509766, 4.0507636070251465, 5.347638130187988, -1.412353515625, 0.449951171875, 0.50244140625, 0, 
282, 1033462821, 0.45248427987098694, -0.4394417405128479, -0.693215012550354, -0.3487150967121124, 9.329255104064941, 0.7261073589324951, -3.0855042934417725, 12.091663360595703, 3.8224642276763916, 7.631685256958008, -1.4072265625, 0.45166015625, 0.49755859375, 0, 
283, 1033471154, 0.4533624053001404, -0.4392434358596802, -0.6931476593017578, -0.3479574918746948, 9.472007751464844, 1.148240566253662, -3.445913076400757, 16.972551345825195, 3.8244500160217285, 8.811311721801758, -1.410400390625, 0.455322265625, 0.4931640625, 0, 
284, 1033479487, 0.45433640480041504, -0.4388751983642578, -0.6932206153869629, -0.34700533747673035, 9.664051055908203, 1.6601933240890503, -3.7425804138183594, 21.13886070251465, 3.497868537902832, 8.00146770477295, -1.408935546875, 0.45654296875, 0.4951171875, 0, 
285, 1033487820, 0.45545047521591187, -0.4384556710720062, -0.6932469606399536, -0.34602105617523193, 9.678214073181152, 2.1179888248443604, -3.575045585632324, 22.39772605895996, 5.178675651550293, 8.67563533782959, -1.415283203125, 0.459716796875, 0.491455078125, 0, 
286, 1033496153, 0.4563407301902771, -0.43821510672569275, -0.6932390332221985, -0.3451676070690155, 9.575371742248535, 2.4925293922424316, -3.3487586975097656, 18.508007049560547, 3.191995859146118, 8.691476821899414, -1.412109375, 0.4609375, 0.491943359375, 0, 
287, 1033504486, 0.4571160078048706, -0.4381212592124939, -0.6931794881820679, -0.3443795442581177, 9.36178207397461, 2.5024752616882324, -3.57843017578125, 16.012821197509766, 2.1223702430725098, 9.466510772705078, -1.413818359375, 0.462646484375, 0.48828125, 0, 
288, 1033512819, 0.45772120356559753, -0.4381023645401001, -0.6930569410324097, -0.3438461720943451, 9.21379566192627, 2.4207048416137695, -3.5416533946990967, 11.804858207702637, 2.0744714736938477, 8.13377571105957, -1.4150390625, 0.468994140625, 0.488037109375, 0, 
289, 1033521152, 0.458212673664093, -0.43827590346336365, -0.6927985548973083, -0.34349051117897034, 8.988081932067871, 1.8567341566085815, -3.2530555725097656, 7.589857578277588, 2.0066964626312256, 9.143104553222656, -1.4130859375, 0.46875, 0.486083984375, 0, 
290, 1033529485, 0.4587802290916443, -0.4383719861507416, -0.6925471425056458, -0.34311726689338684, 8.989754676818848, 1.642808437347412, -3.4442801475524902, 8.718138694763184, 2.9469947814941406, 8.817855834960938, -1.407470703125, 0.467529296875, 0.489013671875, 0, 
291, 1033537818, 0.4595871567726135, -0.4381461441516876, -0.6924147009849548, -0.3425924479961395, 8.900202751159668, 1.503374695777893, -3.990553140640259, 14.209244728088379, 5.082301616668701, 7.1407647132873535, -1.414306640625, 0.47265625, 0.486083984375, 0, 
292, 1033546151, 0.46046993136405945, -0.4377872943878174, -0.6923691034317017, -0.34195733070373535, 8.550436973571777, 1.4583899974822998, -4.227547645568848, 16.955093383789062, 5.2163405418396, 6.386988639831543, -1.411865234375, 0.47314453125, 0.4833984375, 0, 
293, 1033554484, 0.4614233076572418, -0.4373377859592438, -0.6923807263374329, -0.34122365713119507, 8.5271635055542, 1.4594824314117432, -4.548287391662598, 19.178974151611328, 5.363213539123535, 6.1536431312561035, -1.4130859375, 0.474365234375, 0.48095703125, 0, 
294, 1033562817, 0.46246442198753357, -0.436755508184433, -0.6925922632217407, -0.3401290476322174, 8.399657249450684, 1.7096374034881592, -4.82411527633667, 24.905864715576172, 3.3773927688598633, 6.3703155517578125, -1.414794921875, 0.4775390625, 0.48095703125, 0, 
295, 1033571150, 0.463498592376709, -0.43618327379226685, -0.6929295063018799, -0.3387658894062042, 8.504083633422852, 1.7411785125732422, -4.8609700202941895, 27.95839500427246, 0.8574371933937073, 7.405951023101807, -1.408935546875, 0.484619140625, 0.474853515625, 0, 
296, 1033579483, 0.4643976390361786, -0.4358813762664795, -0.6931689977645874, -0.33743083477020264, 8.456378936767578, 1.602706789970398, -4.628357887268066, 24.68992042541504, -0.9011604189872742, 9.742315292358398, -1.412109375, 0.4833984375, 0.4755859375, 0, 
297, 1033587816, 0.46504366397857666, -0.43601712584495544, -0.6932500004768372, -0.3361968398094177, 8.331099510192871, 1.4848883152008057, -4.10120964050293, 18.699682235717773, -3.721583127975464, 13.060012817382812, -1.415283203125, 0.4873046875, 0.476318359375, 0, 
298, 1033596149, 0.465420663356781, -0.43655282258987427, -0.6932284832000732, -0.33502236008644104, 8.861014366149902, 1.4097648859024048, -4.131903171539307, 13.466995239257812, -7.128737926483154, 15.846841812133789, -1.417724609375, 0.4912109375, 0.4755859375, 0, 
299, 1033604482, 0.4656965732574463, -0.4372462332248688, -0.6931523084640503, -0.3338905870914459, 9.17085075378418, 1.4579925537109375, -4.490270137786865, 11.206847190856934, -8.20228385925293, 16.960294723510742, -1.41259765625, 0.4921875, 0.471435546875, 0, 
300, 1033612815, 0.4657272696495056, -0.43825456500053406, -0.6929466128349304, -0.33295154571533203, 8.973824501037598, 1.2621656656265259, -3.885505199432373, 5.269132137298584, -10.007805824279785, 18.357988357543945, -1.40869140625, 0.499267578125, 0.4775390625, 0, 
301, 1033621148, 0.46543020009994507, -0.43972963094711304, -0.6924666166305542, -0.33241966366767883, 9.034872055053711, 0.637905478477478, -2.962977886199951, -4.796998023986816, -11.044646263122559, 20.3674259185791, -1.406005859375, 0.50244140625, 0.479248046875, 0, 
302, 1033629481, 0.46494317054748535, -0.44145676493644714, -0.6918087601661682, -0.3321816325187683, 9.300362586975098, 0.2681354880332947, -3.0429110527038574, -11.203070640563965, -11.104430198669434, 21.078786849975586, -1.40673828125, 0.503662109375, 0.47802734375, 0, 
303, 1033637814, 0.4644736349582672, -0.4431461989879608, -0.6911957263946533, -0.33186525106430054, 9.523621559143066, 0.12798193097114563, -3.7387194633483887, -9.905915260314941, -11.515181541442871, 21.057758331298828, -1.40283203125, 0.50439453125, 0.484130859375, 0, 
304, 1033646147, 0.464108407497406, -0.4447169005870819, -0.6906461715698242, -0.33141931891441345, 9.613740921020508, -0.0329374261200428, -3.7443976402282715, -6.9929327964782715, -11.188522338867188, 20.816879272460938, -1.40478515625, 0.50634765625, 0.484130859375, 0, 
305, 1033654480, 0.4636577069759369, -0.44638246297836304, -0.6900608539581299, -0.33102959394454956, 9.344990730285645, -0.07512765377759933, -3.3320751190185547, -8.813695907592773, -11.850265502929688, 21.215898513793945, -1.402099609375, 0.509521484375, 0.490234375, 0, 
306, 1033662813, 0.46305203437805176, -0.4481157958507538, -0.6896215677261353, -0.33045071363449097, 8.877039909362793, -0.1106351837515831, -4.148868560791016, -7.741087913513184, -15.731836318969727, 21.43560791015625, -1.397705078125, 0.51318359375, 0.491943359375, 0, 
307, 1033671146, 0.4623541533946991, -0.4498423933982849, -0.6893367171287537, -0.32967519760131836, 8.479214668273926, -0.42465105652809143, -5.006730556488037, -5.683239936828613, -18.75895881652832, 21.27554702758789, -1.392578125, 0.5126953125, 0.49560546875, 0, 
308, 1033679479, 0.46158653497695923, -0.45170196890830994, -0.6890286207199097, -0.3288514018058777, 8.27880573272705, -0.4603149890899658, -5.6151509284973145, -6.624230861663818, -20.18515968322754, 22.64726448059082, -1.390625, 0.513427734375, 0.49658203125, 0, 
309, 1033687812, 0.4605434536933899, -0.4540359079837799, -0.6885694265365601, -0.32806044816970825, 8.181236267089844, -0.3211468756198883, -5.410470008850098, -12.321602821350098, -23.765134811401367, 26.649595260620117, -1.389892578125, 0.526123046875, 0.50146484375, 0, 
310, 1033696145, 0.45909616351127625, -0.4571095108985901, -0.6876928210258484, -0.3276594579219818, 8.319103240966797, -0.33120137453079224, -4.713753700256348, -25.124052047729492, -25.863386154174805, 31.944000244140625, -1.38671875, 0.52490234375, 0.507568359375, 0, 
311, 1033704478, 0.457254558801651, -0.46086743474006653, -0.6863441467285156, -0.32779785990715027, 8.743783950805664, -0.27222439646720886, -3.8252415657043457, -39.131317138671875, -26.290122985839844, 36.21875762939453, -1.38037109375, 0.525146484375, 0.517578125, 0, 
312, 1033712811, 0.45516908168792725, -0.4650782346725464, -0.6846028566360474, -0.32839393615722656, 9.321815490722656, 0.09799417853355408, -3.092041015625, -49.63447952270508, -25.279033660888672, 38.98625564575195, -1.37353515625, 0.528564453125, 0.524169921875, 0, 
313, 1033721144, 0.45286503434181213, -0.469524621963501, -0.6824849247932434, -0.3296582102775574, 10.625961303710938, 0.275496244430542, -1.6519744396209717, -60.48085403442383, -21.75267791748047, 38.459938049316406, -1.368408203125, 0.528564453125, 0.531982421875, 0, 
314, 1033729477, 0.4503289461135864, -0.4739375412464142, -0.6801229119300842, -0.3316930830478668, 11.62807559967041, 0.26388001441955566, -0.9160470366477966, -70.12625122070312, -17.299684524536133, 33.855010986328125, -1.373046875, 0.52783203125, 0.54052734375, 0, 
315, 1033737810, 0.44796890020370483, -0.4779124855995178, -0.677829384803772, -0.3338729739189148, 11.727962493896484, 0.10261721909046173, -0.8553389310836792, -67.29135131835938, -13.120443344116211, 29.235754013061523, -1.3623046875, 0.525390625, 0.547119140625, 0, 
316, 1033746143, 0.44599682092666626, -0.4812360107898712, -0.6758394241333008, -0.3357679843902588, 11.235135078430176, -0.6065183281898499, -1.4856297969818115, -56.70036697387695, -10.270408630371094, 24.685880661010742, -1.360595703125, 0.519775390625, 0.551513671875, 0, 
317, 1033754476, 0.44451987743377686, -0.48369359970092773, -0.6744294762611389, -0.3370276987552643, 10.627808570861816, -1.6141023635864258, -2.1294522285461426, -39.51382827758789, -9.423454284667969, 19.00251579284668, -1.35986328125, 0.521240234375, 0.555419921875, 0, 
318, 1033762809, 0.4437120854854584, -0.4851371645927429, -0.6737053394317627, -0.33746540546417236, 9.962101936340332, -2.539451837539673, -2.4636144638061523, -18.0764217376709, -8.186274528503418, 13.14205551147461, -1.356201171875, 0.52099609375, 0.554443359375, 0, 
319, 1033771142, 0.4436390995979309, -0.48564788699150085, -0.6736188530921936, -0.33699876070022583, 9.334334373474121, -2.8859660625457764, -3.1272337436676025, 3.861320734024048, -6.969595432281494, 9.200454711914062, -1.354248046875, 0.521728515625, 0.556396484375, 0, 
320, 1033779475, 0.4444051682949066, -0.48525315523147583, -0.6741529107093811, -0.33548691868782043, 8.869083404541016, -2.6483209133148193, -3.770150661468506, 27.53862190246582, -5.770980358123779, 6.90442419052124, -1.356689453125, 0.5234375, 0.55322265625, 0, 
321, 1033787808, 0.445839524269104, -0.484112411737442, -0.6751968264579773, -0.3331240713596344, 8.627105712890625, -2.08512544631958, -4.263680458068848, 46.80390930175781, -4.92710018157959, 4.884131908416748, -1.35400390625, 0.532470703125, 0.55615234375, 0, 
322, 1033796141, 0.4475897550582886, -0.482538104057312, -0.6765243411064148, -0.33035650849342346, 8.719453811645508, -1.299729347229004, -4.249446392059326, 56.616939544677734, -4.440893173217773, 2.8870651721954346, -1.35400390625, 0.532470703125, 0.56103515625, 0, 
323, 1033804474, 0.4493620693683624, -0.4808095097541809, -0.677885115146637, -0.3276706039905548, 8.846955299377441, -0.21872185170650482, -4.204344749450684, 57.12538528442383, -3.197101593017578, 0.8327340483665466, -1.357666015625, 0.541748046875, 0.551025390625, 0, 
324, 1033812807, 0.45096224546432495, -0.47912099957466125, -0.6791669726371765, -0.32528242468833923, 8.850349426269531, 1.0217856168746948, -4.543154716491699, 52.58870315551758, -2.5276191234588623, -0.8924534320831299, -1.3525390625, 0.545654296875, 0.544189453125, 0, 
325, 1033821140, 0.45226994156837463, -0.4776601791381836, -0.6802887916564941, -0.3232646584510803, 8.90935230255127, 1.8996163606643677, -4.608620643615723, 45.088844299316406, -2.840944290161133, -1.3080573081970215, -1.353515625, 0.55029296875, 0.546142578125, 0, 
326, 1033829473, 0.452999085187912, -0.47670435905456543, -0.6811019778251648, -0.3219398558139801, 9.086249351501465, 2.0973172187805176, -4.571378231048584, 30.278228759765625, -4.03113317489624, -1.4473975896835327, -1.35595703125, 0.554443359375, 0.544189453125, 0, 
327, 1033837806, 0.45299839973449707, -0.4763583540916443, -0.6816031336784363, -0.3213920593261719, 9.066995620727539, 1.7165089845657349, -4.476121425628662, 13.067948341369629, -6.522985458374023, -1.7606074810028076, -1.352294921875, 0.55078125, 0.542236328125, 0, 
328, 1033846139, 0.4522808790206909, -0.4766157865524292, -0.6817771792411804, -0.3216516673564911, 8.995229721069336, 1.038191795349121, -4.364191055297852, -4.432837963104248, -8.5895414352417, -2.1600871086120605, -1.35546875, 0.5478515625, 0.547607421875, 0, 
329, 1033854472, 0.45108094811439514, -0.4772796928882599, -0.6817141771316528, -0.32248416543006897, 8.953719139099121, 0.5932121276855469, -4.217581272125244, -16.524887084960938, -9.673768997192383, -2.481802463531494, -1.352294921875, 0.555908203125, 0.5458984375, 0, 
330, 1033862805, 0.44972822070121765, -0.47804269194602966, -0.6816802620887756, -0.32331401109695435, 8.951684951782227, 0.12985827028751373, -4.072756767272949, -18.005929946899414, -11.749367713928223, -2.414308786392212, -1.35546875, 0.548583984375, 0.55322265625, 0, 
331, 1033871138, 0.4482245147228241, -0.47894248366355896, -0.6815364360809326, -0.32437214255332947, 9.268455505371094, -0.5608552098274231, -4.0078654289245605, -22.52190399169922, -11.585363388061523, -2.4551641941070557, -1.35498046875, 0.54248046875, 0.55712890625, 0, 
332, 1033879471, 0.4467026889324188, -0.47992539405822754, -0.6812685132026672, -0.3255791664123535, 9.529685020446777, -0.7566584944725037, -4.255529403686523, -25.053083419799805, -10.388205528259277, -1.895979642868042, -1.355224609375, 0.53759765625, 0.55908203125, 0, 
333, 1033887804, 0.4452560245990753, -0.48101842403411865, -0.6808767318725586, -0.3267650306224823, 9.47490406036377, -0.8805117011070251, -3.937570095062256, -25.510400772094727, -9.54726505279541, 0.40275847911834717, -1.35693359375, 0.5380859375, 0.55908203125, 0, 
334, 1033896137, 0.443864107131958, -0.4822307229042053, -0.6804019212722778, -0.32785940170288086, 9.577508926391602, -0.9677917957305908, -3.7368199825286865, -25.476165771484375, -9.674938201904297, 2.892169237136841, -1.350341796875, 0.53369140625, 0.5615234375, 0, 
335, 1033904470, 0.4426441788673401, -0.4834182560443878, -0.679924488067627, -0.3287489116191864, 9.838706016540527, -1.2032890319824219, -3.827613115310669, -22.253925323486328, -9.29071044921875, 4.712022304534912, -1.35400390625, 0.533447265625, 0.5693359375, 0, 
336, 1033912803, 0.441620796918869, -0.4844977855682373, -0.6794437766075134, -0.32952916622161865, 10.157766342163086, -1.3711841106414795, -3.559615135192871, -19.3068790435791, -7.677806377410889, 5.270003318786621, -1.34912109375, 0.531982421875, 0.56787109375, 0, 
337, 1033921136, 0.44080960750579834, -0.48541462421417236, -0.6789945363998413, -0.3301911950111389, 10.10364818572998, -1.2826075553894043, -3.0831501483917236, -15.644855499267578, -5.9302978515625, 5.224485397338867, -1.347900390625, 0.52978515625, 0.574951171875, 0, 
338, 1033929469, 0.44023820757865906, -0.4860917329788208, -0.6787092685699463, -0.33054378628730774, 9.917025566101074, -0.9484912157058716, -3.188556432723999, -8.970810890197754, -5.6675214767456055, 4.851490020751953, -1.3427734375, 0.52783203125, 0.57470703125, 0, 
339, 1033937802, 0.43982836604118347, -0.4865344166755676, -0.6786057353019714, -0.3306507468223572, 9.879624366760254, -0.8721559643745422, -3.3941309452056885, -3.3306069374084473, -5.831811904907227, 3.6714682579040527, -1.347900390625, 0.52978515625, 0.57177734375, 0, 
340, 1033946135, 0.4395187497138977, -0.4867718517780304, -0.6785802841186523, -0.3307650685310364, 9.783092498779297, -0.8832455277442932, -3.2879209518432617, -1.1536011695861816, -4.391701698303223, 1.6432814598083496, -1.345458984375, 0.5234375, 0.574951171875, 0, 
341, 1033954468, 0.4392455816268921, -0.4868902564048767, -0.6785784363746643, -0.3309577405452728, 9.602572441101074, -0.6826210618019104, -3.5075089931488037, -0.8357540369033813, -3.1240527629852295, 0.08209361881017685, -1.345458984375, 0.52978515625, 0.57421875, 0, 
342, 1033962801, 0.43907657265663147, -0.48684418201446533, -0.6786549091339111, -0.3310929536819458, 9.313987731933594, -0.3517330288887024, -3.8325695991516113, 1.7693800926208496, -2.2653870582580566, -1.170967698097229, -1.3447265625, 0.528076171875, 0.57861328125, 0, 
343, 1033971134, 0.43896225094795227, -0.48667317628860474, -0.6788521409034729, -0.33109137415885925, 9.138691902160645, -0.20103316009044647, -3.799873113632202, 4.734740257263184, -2.828977108001709, -2.074432849884033, -1.347900390625, 0.528564453125, 0.57666015625, 0, 
344, 1033979467, 0.4387546479701996, -0.48655107617378235, -0.6790573000907898, -0.33112531900405884, 9.225741386413574, -0.10808900743722916, -3.812734365463257, 3.5009284019470215, -3.735234498977661, -2.3070614337921143, -1.341064453125, 0.526611328125, 0.57666015625, 0, 
345, 1033987800, 0.4384973645210266, -0.48644161224365234, -0.6792960166931152, -0.3311370015144348, 9.269059181213379, 0.10925595462322235, -3.915371894836426, 3.4503533840179443, -4.6052093505859375, -2.4987969398498535, -1.34619140625, 0.52294921875, 0.580078125, 0, 
346, 1033996133, 0.4380773901939392, -0.48641249537467957, -0.6795483827590942, -0.33121806383132935, 9.460409164428711, 0.09463051706552505, -3.626504898071289, 1.2926737070083618, -6.111569881439209, -3.004511594772339, -1.34814453125, 0.5224609375, 0.576904296875, 0, 
347, 1034004466, 0.4374857544898987, -0.4865185618400574, -0.6796712875366211, -0.33159202337265015, 9.714280128479004, 0.025593075901269913, -3.614647150039673, -3.9813878536224365, -5.590601921081543, -3.4243805408477783, -1.34375, 0.5224609375, 0.57861328125, 0, 
348, 1034012799, 0.4368475079536438, -0.4866803288459778, -0.6796977519989014, -0.33214178681373596, 9.67810344696045, 0.12022970616817474, -3.7871060371398926, -6.724645614624023, -4.5253825187683105, -3.5260684490203857, -1.34619140625, 0.521240234375, 0.583251953125, 0, 
349, 1034021132, 0.4360787272453308, -0.48698511719703674, -0.6795974969863892, -0.3329087495803833, 9.615662574768066, 0.10710448771715164, -3.67525577545166, -11.055091857910156, -4.183073997497559, -3.248896837234497, -1.34619140625, 0.523681640625, 0.581787109375, 0, 
350, 1034029465, 0.4352099299430847, -0.48740407824516296, -0.6794156432151794, -0.3338024914264679, 9.658203125, 0.12513315677642822, -3.8081324100494385, -13.979472160339355, -4.304101943969727, -2.8471381664276123, -1.344482421875, 0.513671875, 0.583984375, 0, 
351, 1034037798, 0.4344257414340973, -0.4877653121948242, -0.6792365908622742, -0.3346596360206604, 9.662062644958496, 0.10131435841321945, -4.189706325531006, -12.726702690124512, -3.5097780227661133, -2.7896339893341064, -1.34326171875, 0.511962890625, 0.58837890625, 0, 
352, 1034046131, 0.4336851239204407, -0.4881491959095001, -0.6789959073066711, -0.3355480432510376, 9.724267959594727, 0.4066777527332306, -4.119532108306885, -13.132176399230957, -2.6282129287719727, -2.1586527824401855, -1.340576171875, 0.514404296875, 0.58251953125, 0, 
353, 1034054464, 0.43311816453933716, -0.4884300231933594, -0.678701639175415, -0.3364652097225189, 9.893329620361328, 0.7643129229545593, -4.28247594833374, -11.869651794433594, -0.020119985565543175, -2.1272754669189453, -1.3408203125, 0.513916015625, 0.5869140625, 0, 
354, 1034062797, 0.4327161908149719, -0.4883444905281067, -0.6785619258880615, -0.3373873829841614, 9.66201114654541, 0.32380586862564087, -4.135420322418213, -7.908740997314453, 2.3282570838928223, -5.855529308319092, -1.34716796875, 0.511474609375, 0.590576171875, 0, 
355, 1034071130, 0.4320630431175232, -0.4884258508682251, -0.6783730387687683, -0.3384847939014435, 9.191673278808594, 0.6081776022911072, -3.832573652267456, -12.41524887084961, 0.6809930801391602, -6.185148239135742, -1.3515625, 0.505615234375, 0.58251953125, 0, 
356, 1034079463, 0.431385338306427, -0.488534152507782, -0.6782236695289612, -0.3394910395145416, 9.423107147216797, 0.47243955731391907, -3.596665859222412, -11.743450164794922, -0.5206990242004395, -5.761500358581543, -1.345458984375, 0.502197265625, 0.590087890625, 0, 
357, 1034087796, 0.43082332611083984, -0.4883928894996643, -0.6782188415527344, -0.3404160141944885, 9.601717948913574, 0.3161252737045288, -3.7815401554107666, -8.05456256866455, 0.31797510385513306, -8.034710884094238, -1.3486328125, 0.501953125, 0.588134765625, 0, 
358, 1034096129, 0.43043774366378784, -0.48808327317237854, -0.6782544851303101, -0.34127575159072876, 9.730095863342285, -0.26689431071281433, -3.8659934997558594, -5.071862697601318, 2.0750348567962646, -8.668998718261719, -1.3525390625, 0.49560546875, 0.582763671875, 0, 
359, 1034104462, 0.43032100796699524, -0.487435519695282, -0.6783429384231567, -0.34217166900634766, 9.660782814025879, -0.3303833305835724, -3.6983296871185303, -1.3477827310562134, 6.097827911376953, -11.125685691833496, -1.349365234375, 0.49462890625, 0.58837890625, 0, 
360, 1034112795, 0.4304312765598297, -0.4864831864833832, -0.678629457950592, -0.34281957149505615, 9.378015518188477, 0.4094434082508087, -3.8890602588653564, 5.215366363525391, 6.814847946166992, -12.762948036193848, -1.351806640625, 0.493408203125, 0.588623046875, 0, 
361, 1034121128, 0.4309197664260864, -0.4851800799369812, -0.6790146231651306, -0.3432897925376892, 9.341048240661621, 0.42589718103408813, -3.5573999881744385, 11.941078186035156, 10.224846839904785, -13.860313415527344, -1.3525390625, 0.49267578125, 0.58740234375, 0, 
362, 1034129461, 0.43123093247413635, -0.4838910400867462, -0.6795143485069275, -0.34372952580451965, 9.10445785522461, 0.5083531737327576, -3.405076742172241, 11.503267288208008, 7.622274398803711, -15.151057243347168, -1.353271484375, 0.485595703125, 0.58447265625, 0, 
363, 1034137794, 0.43149134516716003, -0.48249951004981995, -0.6801356077194214, -0.34412986040115356, 9.183343887329102, 0.3126380443572998, -3.6825454235076904, 12.7236328125, 6.6469855308532715, -16.920000076293945, -1.352783203125, 0.483642578125, 0.579345703125, 0, 
364, 1034146127, 0.43180209398269653, -0.48102322220802307, -0.6807391047477722, -0.34461331367492676, 9.506528854370117, -0.02020021714270115, -3.8262367248535156, 12.691757202148438, 8.178373336791992, -17.852731704711914, -1.35888671875, 0.488037109375, 0.578369140625, 0, 
365, 1034154460, 0.4322640001773834, -0.47939303517341614, -0.6813656687736511, -0.3450670540332794, 9.344345092773438, -0.31711825728416443, -3.986278772354126, 15.000856399536133, 9.985611915588379, -18.554563522338867, -1.3603515625, 0.481201171875, 0.57470703125, 0, 
366, 1034162793, 0.4329244792461395, -0.47770237922668457, -0.6819964051246643, -0.34533771872520447, 9.214999198913574, -0.4918959438800812, -4.243052959442139, 18.39612579345703, 10.905674934387207, -17.117658615112305, -1.36083984375, 0.479736328125, 0.569091796875, 0, 
367, 1034171126, 0.433777391910553, -0.4760116934776306, -0.6826107501983643, -0.345387727022171, 9.061057090759277, -0.42283928394317627, -4.5415120124816895, 21.66033363342285, 11.354438781738281, -14.781381607055664, -1.36279296875, 0.480224609375, 0.568603515625, 0, 
368, 1034179459, 0.4349001348018646, -0.4743763208389282, -0.6832126975059509, -0.34503570199012756, 8.675446510314941, -0.09102274477481842, -4.703075885772705, 26.80498504638672, 11.070558547973633, -10.501754760742188, -1.369140625, 0.4765625, 0.570068359375, 0, 
369, 1034187792, 0.43617144227027893, -0.4729565978050232, -0.6836357116699219, -0.3445413410663605, 8.733562469482422, 0.8352968096733093, -4.5259108543396, 26.977148056030273, 11.583572387695312, -5.761131763458252, -1.369873046875, 0.47705078125, 0.565673828125, 0, 
370, 1034196125, 0.4373939633369446, -0.47186291217803955, -0.6838154792785645, -0.34413444995880127, 8.667298316955566, 2.2590548992156982, -4.676936626434326, 22.723526000976562, 11.608017921447754, -1.8621175289154053, -1.368408203125, 0.480712890625, 0.5625, 0, 
371, 1034204458, 0.4381173551082611, -0.47130492329597473, -0.6836527585983276, -0.3443019390106201, 8.502911567687988, 3.0222129821777344, -4.0362114906311035, 9.230066299438477, 10.167675018310547, -0.41837018728256226, -1.3720703125, 0.485595703125, 0.55615234375, 0, 
372, 1034212791, 0.43810948729515076, -0.47131475806236267, -0.6832149028778076, -0.3451666831970215, 8.410123825073242, 3.53940486907959, -3.793074607849121, -6.7764387130737305, 6.780190944671631, -0.9611359238624573, -1.37158203125, 0.482666015625, 0.557373046875, 0, 
373, 1034221124, 0.4375361502170563, -0.4717574119567871, -0.68262779712677, -0.34644848108291626, 8.38870906829834, 2.9551148414611816, -3.9297561645507812, -17.68572425842285, 3.0150012969970703, -1.1133615970611572, -1.37158203125, 0.4775390625, 0.556884765625, 0, 
374, 1034229457, 0.4365321099758148, -0.4724711775779724, -0.6820217370986938, -0.3479328155517578, 8.559938430786133, 1.976250171661377, -3.954052209854126, -24.093616485595703, -0.8905176520347595, -1.7258750200271606, -1.37353515625, 0.478271484375, 0.5576171875, 0, 
375, 1034237790, 0.4353991746902466, -0.473234087228775, -0.6814113259315491, -0.3495080769062042, 8.855727195739746, 0.800315797328949, -3.7834391593933105, -26.10359764099121, -1.7170642614364624, -2.388439178466797, -1.380126953125, 0.46826171875, 0.557373046875, 0, 
376, 1034246123, 0.4344923794269562, -0.47378069162368774, -0.68094402551651, -0.3508046865463257, 9.080619812011719, 0.07305724918842316, -3.449345350265503, -20.033926010131836, -1.2309949398040771, -2.602074146270752, -1.371337890625, 0.46875, 0.560302734375, 0, 
377, 1034254456, 0.43396836519241333, -0.4739148020744324, -0.680702805519104, -0.3517390489578247, 9.288825035095215, -0.3238402009010315, -3.0471529960632324, -10.597415924072266, 0.6354123950004578, -3.9149954319000244, -1.376953125, 0.46826171875, 0.559814453125, 0, 
378, 1034262789, 0.4337615668773651, -0.4736672341823578, -0.6806712746620178, -0.35238808393478394, 9.257284164428711, -0.25807029008865356, -3.0245730876922607, -2.562537670135498, 2.3383748531341553, -5.628663539886475, -1.37451171875, 0.46337890625, 0.56298828125, 0, 
379, 1034271122, 0.4338833689689636, -0.47299450635910034, -0.6809744238853455, -0.3525554835796356, 9.253339767456055, -0.1327788382768631, -3.1635043621063232, 8.268223762512207, 2.343907594680786, -7.3219194412231445, -1.375244140625, 0.462646484375, 0.55810546875, 0, 
380, 1034279455, 0.4342573583126068, -0.47197309136390686, -0.6815106272697449, -0.3524278700351715, 9.453782081604004, -0.05021480470895767, -3.122098445892334, 15.85647201538086, 3.0830841064453125, -9.121757507324219, -1.377685546875, 0.45947265625, 0.558349609375, 0, 
381, 1034287788, 0.43482863903045654, -0.4706878662109375, -0.6822056174278259, -0.3520977795124054, 9.610638618469238, -0.0945490375161171, -3.1936991214752197, 21.389509201049805, 3.9488718509674072, -10.456644058227539, -1.373779296875, 0.46630859375, 0.560546875, 0, 
382, 1034296121, 0.43556535243988037, -0.46921658515930176, -0.6829883456230164, -0.35163310170173645, 9.781595230102539, -0.3240794539451599, -3.163111925125122, 25.251298904418945, 5.0064592361450195, -11.166520118713379, -1.377685546875, 0.4638671875, 0.556884765625, 0, 
383, 1034304454, 0.4365108609199524, -0.46760234236717224, -0.6838452219963074, -0.35094505548477173, 9.91446304321289, -0.3256375789642334, -3.4509410858154297, 29.93810272216797, 5.772942066192627, -10.643917083740234, -1.375732421875, 0.4619140625, 0.5537109375, 0, 
384, 1034312787, 0.43781912326812744, -0.4657643139362335, -0.6848015785217285, -0.34989312291145325, 9.951687812805176, -0.16018083691596985, -3.5371077060699463, 37.48872375488281, 7.3266921043396, -9.44951343536377, -1.380859375, 0.4609375, 0.545654296875, 0, 
385, 1034321120, 0.43942737579345703, -0.4637818932533264, -0.6857740879058838, -0.3486030697822571, 9.891545295715332, 0.08547523617744446, -3.1899540424346924, 42.5894775390625, 9.220475196838379, -8.028450012207031, -1.378173828125, 0.4677734375, 0.544189453125, 0, 
386, 1034329453, 0.44106584787368774, -0.46192190051078796, -0.6865646839141846, -0.3474453389644623, 9.65070915222168, 0.4112665057182312, -2.2855899333953857, 39.93278121948242, 10.866214752197266, -6.375738143920898, -1.38330078125, 0.464111328125, 0.543212890625, 0, 
387, 1034337786, 0.44272783398628235, -0.46017196774482727, -0.6871644258499146, -0.34646686911582947, 9.332151412963867, 1.0478168725967407, -1.891761302947998, 36.80313491821289, 12.854177474975586, -5.097803115844727, -1.38427734375, 0.46826171875, 0.53564453125, 0, 
388, 1034346119, 0.4445963203907013, -0.4582584798336029, -0.6878302693367004, -0.34528741240501404, 9.162779808044434, 2.1264166831970215, -2.5918922424316406, 41.32725524902344, 13.91413688659668, -4.8551740646362305, -1.389892578125, 0.46826171875, 0.531982421875, 0, 
389, 1034354452, 0.44641849398612976, -0.456289678812027, -0.6885436177253723, -0.34411945939064026, 9.354873657226562, 2.6346678733825684, -2.9178900718688965, 41.485076904296875, 13.51636028289795, -5.96607780456543, -1.389892578125, 0.472412109375, 0.528076171875, 0, 
390, 1034362785, 0.4478067457675934, -0.4545818269252777, -0.6890878081321716, -0.3434861898422241, 9.553096771240234, 2.74942684173584, -3.0215601921081543, 31.301483154296875, 12.569621086120605, -7.772800445556641, -1.38916015625, 0.477294921875, 0.5234375, 0, 
391, 1034371118, 0.4488641619682312, -0.45304033160209656, -0.6895781755447388, -0.3431580066680908, 9.468719482421875, 2.677873373031616, -3.2891788482666016, 25.078275680541992, 10.880960464477539, -9.297039031982422, -1.38916015625, 0.481201171875, 0.526611328125, 0, 
392, 1034379451, 0.4496752619743347, -0.45164400339126587, -0.6900709867477417, -0.3429461121559143, 9.302166938781738, 2.274456739425659, -3.563978910446167, 21.542325973510742, 8.578006744384766, -9.819849967956543, -1.39111328125, 0.47607421875, 0.52099609375, 0, 
393, 1034387784, 0.45032238960266113, -0.4503812789916992, -0.6904906630516052, -0.34291282296180725, 9.256119728088379, 1.8372615575790405, -3.8366482257843018, 17.67810821533203, 7.945104122161865, -9.971536636352539, -1.394775390625, 0.47509765625, 0.514892578125, 0, 
394, 1034396117, 0.45084789395332336, -0.4493093490600586, -0.6908188462257385, -0.3429677188396454, 9.123150825500488, 1.4261798858642578, -3.8136260509490967, 14.455011367797852, 7.010745525360107, -8.7161283493042, -1.3994140625, 0.4697265625, 0.51708984375, 0, 
395, 1034404450, 0.45128101110458374, -0.44843003153800964, -0.6910292506217957, -0.34312498569488525, 8.927640914916992, 1.2147084474563599, -3.8598079681396484, 11.169629096984863, 6.579837799072266, -7.226097583770752, -1.39794921875, 0.476318359375, 0.50732421875, 0, 
396, 1034412783, 0.45168033242225647, -0.4476407766342163, -0.691233217716217, -0.34321945905685425, 8.640021324157715, 1.0774152278900146, -4.053856372833252, 10.95994758605957, 5.49445915222168, -6.104680061340332, -1.40185546875, 0.473876953125, 0.50830078125, 0, 
397, 1034421116, 0.45200246572494507, -0.44697412848472595, -0.6914181709289551, -0.3432917892932892, 8.447371482849121, 0.9495511651039124, -4.23619270324707, 9.834074020385742, 4.155653476715088, -5.031980514526367, -1.398681640625, 0.4736328125, 0.50439453125, 0, 
398, 1034429449, 0.4522678256034851, -0.4464084804058075, -0.6916741132736206, -0.34316286444664, 8.456594467163086, 1.1164226531982422, -4.682222843170166, 11.116938591003418, 1.4697195291519165, -3.540438652038574, -1.403076171875, 0.471923828125, 0.505859375, 0, 
399, 1034437782, 0.45261040329933167, -0.4457506537437439, -0.6920720934867859, -0.34276333451271057, 8.931830406188965, 1.3185639381408691, -4.647665023803711, 15.385218620300293, 0.08452700078487396, -3.2220025062561035, -1.398193359375, 0.46875, 0.50634765625, 0, 
400, 1034446115, 0.45287665724754333, -0.4452044665813446, -0.6924348473548889, -0.3423888683319092, 8.948838233947754, 1.5366278886795044, -4.787851810455322, 13.840835571289062, -0.7853710651397705, -2.4797019958496094, -1.403076171875, 0.469970703125, 0.505859375, 0, 
401, 1034454448, 0.45312777161598206, -0.4447789788246155, -0.6927602291107178, -0.34195107221603394, 8.791400909423828, 1.6167608499526978, -4.413182735443115, 13.42506217956543, -1.6577661037445068, -0.767825186252594, -1.398681640625, 0.47119140625, 0.50390625, 0, 
402, 1034462781, 0.4532448351383209, -0.44446706771850586, -0.6930841207504272, -0.3415452837944031, 8.83339786529541, 1.518894910812378, -4.024658203125, 11.584755897521973, -3.2595272064208984, -0.5161141157150269, -1.40625, 0.471923828125, 0.504150390625, 0, 
403, 1034471114, 0.4532368779182434, -0.44435667991638184, -0.6932864189147949, -0.34128835797309875, 8.54952621459961, 1.5583618879318237, -4.057424545288086, 7.596388816833496, -3.7312896251678467, 0.637359082698822, -1.39794921875, 0.47412109375, 0.50048828125, 0, 
404, 1034479447, 0.4530966579914093, -0.4443795382976532, -0.6934991478919983, -0.3410125970840454, 8.547189712524414, 1.6139583587646484, -3.636204719543457, 6.164604187011719, -5.795618057250977, 1.335500717163086, -1.40283203125, 0.476806640625, 0.50634765625, 0, 
405, 1034487780, 0.4527254104614258, -0.44452527165412903, -0.6937558650970459, -0.3407936096191406, 8.763627052307129, 1.6230179071426392, -3.256288528442383, 3.657508373260498, -8.502710342407227, 0.8166587948799133, -1.40478515625, 0.4736328125, 0.504638671875, 0, 
406, 1034496113, 0.45239710807800293, -0.4446600079536438, -0.6940858364105225, -0.34038153290748596, 9.409252166748047, 2.048128366470337, -3.4534354209899902, 6.166755676269531, -9.679375648498535, 1.650478720664978, -1.401611328125, 0.4775390625, 0.505615234375, 0, 
407, 1034504446, 0.45235317945480347, -0.44450753927230835, -0.694524884223938, -0.33974283933639526, 10.001470565795898, 2.308415174484253, -3.7208609580993652, 12.373212814331055, -7.681927680969238, 1.0019776821136475, -1.400390625, 0.47705078125, 0.51123046875, 0, 
408, 1034512779, 0.452545166015625, -0.444324791431427, -0.6948217153549194, -0.339118629693985, 9.529989242553711, 2.357555866241455, -3.560286045074463, 13.194522857666016, -4.316844940185547, 2.5757293701171875, -1.40234375, 0.474365234375, 0.50830078125, 0, 
409, 1034521112, 0.45285773277282715, -0.44412246346473694, -0.6950255036354065, -0.3385485112667084, 9.333549499511719, 2.0145864486694336, -3.5180180072784424, 13.114605903625488, -2.161611557006836, 3.202023506164551, -1.3974609375, 0.47314453125, 0.5087890625, 0, 
410, 1034529445, 0.4532410502433777, -0.44384485483169556, -0.6952106952667236, -0.33801931142807007, 9.189937591552734, 1.7032382488250732, -3.5698018074035645, 13.525253295898438, -0.7712960243225098, 2.652700424194336, -1.401611328125, 0.4755859375, 0.50244140625, 0, 
411, 1034537778, 0.4536866843700409, -0.443530797958374, -0.6953926086425781, -0.3374584913253784, 9.04897689819336, 1.2440342903137207, -3.491894006729126, 14.426886558532715, -0.1796966940164566, 2.8327553272247314, -1.400390625, 0.4794921875, 0.508056640625, 0, 
412, 1034546111, 0.4542827308177948, -0.4430863559246063, -0.6956338882446289, -0.3367425799369812, 9.266609191894531, 1.1415719985961914, -3.9607203006744385, 17.908632278442383, 0.5502194762229919, 2.868103504180908, -1.399658203125, 0.48193359375, 0.510498046875, 0, 
413, 1034554444, 0.45502930879592896, -0.4426514804363251, -0.6958985924720764, -0.33575791120529175, 9.0380859375, 1.2961852550506592, -4.281649112701416, 21.459537506103516, 0.16072939336299896, 5.214240550994873, -1.397216796875, 0.481201171875, 0.504150390625, 0, 
414, 1034562777, 0.4559418857097626, -0.4421345591545105, -0.6962307691574097, -0.33451026678085327, 9.144401550292969, 1.2893810272216797, -4.399281978607178, 25.799287796020508, 0.10537701845169067, 6.407942771911621, -1.397216796875, 0.484375, 0.505859375, 0, 
415, 1034571110, 0.45684680342674255, -0.4417445957660675, -0.6964969038963318, -0.33323419094085693, 9.091076850891113, 1.255212664604187, -4.495893955230713, 24.935396194458008, -0.31030383706092834, 8.193229675292969, -1.398193359375, 0.4873046875, 0.50341796875, 0, 
416, 1034579443, 0.45765507221221924, -0.44157183170318604, -0.6966680288314819, -0.3319942355155945, 8.689062118530273, 1.3377848863601685, -4.554213523864746, 22.190187454223633, -1.4149953126907349, 10.156895637512207, -1.402099609375, 0.4892578125, 0.499755859375, 0, 
417, 1034587776, 0.4582015573978424, -0.44174665212631226, -0.6967139840126038, -0.33090928196907043, 8.291751861572266, 1.1572034358978271, -4.2905778884887695, 16.376081466674805, -3.7800095081329346, 12.096480369567871, -1.3974609375, 0.499267578125, 0.499755859375, 0, 
418, 1034596109, 0.45845794677734375, -0.4421829283237457, -0.6967209577560425, -0.3299555480480194, 8.355772972106934, 1.006295084953308, -4.323698043823242, 11.514037132263184, -6.7072296142578125, 12.670391082763672, -1.398193359375, 0.49462890625, 0.49755859375, 0, 
419, 1034604442, 0.4584420621395111, -0.44281843304634094, -0.6967195868492126, -0.3291272819042206, 8.580591201782227, 0.7637617588043213, -3.9328668117523193, 7.385213851928711, -9.401887893676758, 12.628500938415527, -1.39794921875, 0.497314453125, 0.50048828125, 0, 
420, 1034612775, 0.4581635296344757, -0.4436616897583008, -0.6966737508773804, -0.3284761309623718, 8.915254592895508, 0.16075770556926727, -3.6253795623779297, 2.5539703369140625, -11.503265380859375, 12.560250282287598, -1.396240234375, 0.499267578125, 0.504150390625, 0, 
421, 1034621108, 0.4578276574611664, -0.4445543885231018, -0.696600615978241, -0.3278917372226715, 9.409904479980469, -0.3749208450317383, -4.134955406188965, 1.1438294649124146, -11.691812515258789, 12.547083854675293, -1.396728515625, 0.501220703125, 0.5068359375, 0, 
422, 1034629441, 0.45750874280929565, -0.44550395011901855, -0.6964279413223267, -0.32741478085517883, 9.642814636230469, -0.5279967784881592, -4.609663009643555, -0.6021779179573059, -10.506204605102539, 13.073454856872559, -1.385986328125, 0.50634765625, 0.511962890625, 0, 
423, 1034637774, 0.4571945369243622, -0.44663411378860474, -0.696077287197113, -0.32705941796302795, 9.777325630187988, -0.22984150052070618, -4.464537143707275, -3.666998863220215, -9.404768943786621, 15.172083854675293, -1.3896484375, 0.505126953125, 0.509521484375, 0, 
424, 1034646107, 0.4567037522792816, -0.44815805554389954, -0.6954438090324402, -0.32700827717781067, 9.707517623901367, 0.03674578666687012, -4.220890045166016, -11.419869422912598, -9.22508716583252, 17.949697494506836, -1.3896484375, 0.506103515625, 0.507568359375, 0, 
425, 1034654440, 0.4559793174266815, -0.4501197040081024, -0.6945422291755676, -0.3272407650947571, 9.705852508544922, 0.1217331737279892, -3.9913430213928223, -19.520357131958008, -9.987677574157715, 20.980405807495117, -1.3857421875, 0.510009765625, 0.513671875, 0, 
426, 1034662773, 0.45506107807159424, -0.4524524211883545, -0.6934255957603455, -0.3276698589324951, 9.914803504943848, 0.018217332661151886, -3.7574362754821777, -25.897722244262695, -10.950263977050781, 23.726469039916992, -1.3837890625, 0.513427734375, 0.517333984375, 0, 
427, 1034671106, 0.45402461290359497, -0.4550146758556366, -0.6921250820159912, -0.32830795645713806, 9.997665405273438, -0.4361021816730499, -3.3544633388519287, -30.886959075927734, -10.65560245513916, 25.23784637451172, -1.3828125, 0.510986328125, 0.519287109375, 0, 
428, 1034679439, 0.452985554933548, -0.4576689302921295, -0.6906885504722595, -0.32907834649086, 9.962361335754395, -0.938045084476471, -3.020258665084839, -33.35668182373047, -9.425592422485352, 26.106340408325195, -1.3828125, 0.510498046875, 0.528076171875, 0, 
429, 1034687772, 0.45212793350219727, -0.4601741135120392, -0.6893237829208374, -0.32962557673454285, 9.914183616638184, -1.2640609741210938, -3.129951238632202, -28.832077026367188, -8.872976303100586, 26.472963333129883, -1.375732421875, 0.512939453125, 0.5283203125, 0, 
430, 1034696105, 0.4515569508075714, -0.4623611569404602, -0.6881549954414368, -0.32979026436805725, 9.816024780273438, -1.4872441291809082, -3.5041847229003906, -20.534902572631836, -8.356703758239746, 25.872438430786133, -1.384521484375, 0.51611328125, 0.526611328125, 0, 
431, 1034704438, 0.45135897397994995, -0.4641991853713989, -0.6871436238288879, -0.3295876979827881, 9.426060676574707, -1.4574534893035889, -3.5598602294921875, -11.80573844909668, -6.556506633758545, 25.560144424438477, -1.37255859375, 0.51708984375, 0.53759765625, 0, 
432, 1034712771, 0.4514867663383484, -0.4656965434551239, -0.6862850189208984, -0.32908865809440613, 9.01146125793457, -1.28596830368042, -3.536696195602417, -4.118349075317383, -4.777249813079834, 24.664064407348633, -1.37109375, 0.523193359375, 0.532958984375, 0, 
433, 1034721104, 0.45167940855026245, -0.4669634997844696, -0.6855840086936951, -0.32848992943763733, 8.853021621704102, -1.0728403329849243, -3.503133773803711, -0.5840432047843933, -4.734498500823975, 22.40365219116211, -1.36865234375, 0.526123046875, 0.533935546875, 0, 
434, 1034729437, 0.4519866704940796, -0.4679642617702484, -0.6850362420082092, -0.3277851939201355, 8.885275840759277, -0.47991055250167847, -3.293710231781006, 3.4621238708496094, -4.0882768630981445, 20.07373046875, -1.363525390625, 0.52783203125, 0.531982421875, 0, 
435, 1034737770, 0.4523327648639679, -0.4687352180480957, -0.6846442222595215, -0.3270244300365448, 8.98690128326416, 0.2908026874065399, -3.1789159774780273, 6.392725467681885, -4.0114593505859375, 17.432310104370117, -1.36767578125, 0.532470703125, 0.534423828125, 0, 
436, 1034746103, 0.4526742398738861, -0.46928727626800537, -0.6844242215156555, -0.32621973752975464, 9.203676223754883, 0.8206121325492859, -3.2335808277130127, 8.890907287597656, -4.427997589111328, 14.51330852508545, -1.365966796875, 0.53125, 0.536376953125, 0, 
437, 1034754436, 0.45286697149276733, -0.46975958347320557, -0.6842547655105591, -0.32562729716300964, 9.477164268493652, 0.982271134853363, -3.326855182647705, 6.681807994842529, -4.411400318145752, 11.448413848876953, -1.36328125, 0.5380859375, 0.5341796875, 0, 
438, 1034762769, 0.45294418931007385, -0.4701177179813385, -0.6841781139373779, -0.3251637816429138, 9.458823204040527, 1.0107289552688599, -3.547579765319824, 5.8226542472839355, -4.734292507171631, 8.45495319366455, -1.366943359375, 0.53759765625, 0.534912109375, 0, 
439, 1034771102, 0.4529184401035309, -0.4703914225101471, -0.6841641664505005, -0.32483285665512085, 9.183380126953125, 0.8418698906898499, -3.5484986305236816, 4.72457218170166, -4.859315395355225, 5.981539726257324, -1.364501953125, 0.538818359375, 0.541259765625, 0, 
440, 1034779435, 0.4527665078639984, -0.4706326723098755, -0.6841778755187988, -0.32466644048690796, 8.757318496704102, 0.5288944244384766, -3.5796313285827637, 2.6765592098236084, -5.010079860687256, 3.8957457542419434, -1.362548828125, 0.53759765625, 0.539794921875, 0, 
441, 1034787768, 0.4525812566280365, -0.47078317403793335, -0.6843242645263672, -0.32439762353897095, 8.481892585754395, 0.28490957617759705, -3.9211909770965576, 4.645448684692383, -6.404775142669678, 2.6621639728546143, -1.364501953125, 0.538818359375, 0.5361328125, 0, 
442, 1034796101, 0.4524398148059845, -0.47081103920936584, -0.6846795678138733, -0.3238040804862976, 8.66968822479248, -0.018716761842370033, -4.312440872192383, 9.617402076721191, -8.851883888244629, 2.380305290222168, -1.360107421875, 0.5380859375, 0.537841796875, 0, 
