PacketCounter,SampleTimeFine,Quat_W,Quat_X,Quat_Y,Quat_Z,Acc_X,Acc_Y,Acc_Z,Gyr_X,Gyr_Y,Gyr_Z,Mag_X,Mag_Y,Mag_Z,Status,
0, 1021596629, 0.4171803295612335, -0.446165531873703, -0.6663574576377869, -0.4276268184185028, 0, 0, 0, 0, 0, 0, -1.448974609375, 0.27685546875, 0.496337890625, 0, 
1, 1021604962, 0.4171784818172455, -0.4461692273616791, -0.6663554310798645, -0.4276280999183655, 9.376724243164062, 1.9715595245361328, -2.8046841621398926, 3.4792325496673584, -1.3515478372573853, 1.3922361135482788, -1.448974609375, 0.27783203125, 0.492431640625, 0, 
2, 1021613295, 0.41714486479759216, -0.4461785852909088, -0.6663581132888794, -0.42764681577682495, 9.397177696228027, 1.9840564727783203, -2.8399839401245117, 3.119454860687256, -1.6052054166793823, 1.1202383041381836, -1.44775390625, 0.2783203125, 0.490478515625, 0, 
3, 1021621628, 0.41710731387138367, -0.44618695974349976, -0.6663627624511719, -0.4276675879955292, 9.374984741210938, 1.943060278892517, -2.827267646789551, 3.0963380336761475, -1.6248899698257446, 1.0749908685684204, -1.45068359375, 0.280517578125, 0.492431640625, 0, 
4, 1021629961, 0.4170913100242615, -0.4461846947669983, -0.6663572192192078, -0.4276941120624542, 9.382697105407715, 1.9191516637802124, -2.8542768955230713, 3.1758575439453125, -1.2818516492843628, 1.1224926710128784, -1.453857421875, 0.278564453125, 0.494384765625, 0, 
5, 1021638294, 0.4171484708786011, -0.44611719250679016, -0.6663873195648193, -0.42766183614730835, 9.398758888244629, 1.9175770282745361, -2.910870313644409, 4.748265266418457, -0.7798894643783569, 1.0821247100830078, -1.449462890625, 0.278564453125, 0.492431640625, 0, 
6, 1021646627, 0.4172619879245758, -0.44599097967147827, -0.6664791107177734, -0.4275396764278412, 9.397714614868164, 1.9425697326660156, -2.891584634780884, 6.6155171394348145, -0.835216224193573, 1.0037708282470703, -1.447509765625, 0.282958984375, 0.4921875, 0, 
7, 1021654960, 0.41736558079719543, -0.44587111473083496, -0.6665873527526855, -0.42739489674568176, 9.385515213012695, 1.9128820896148682, -2.822516918182373, 6.819380283355713, -1.1878985166549683, 1.0418589115142822, -1.449462890625, 0.28271484375, 0.4873046875, 0, 
8, 1021663293, 0.4174618124961853, -0.44577115774154663, -0.666675329208374, -0.42726802825927734, 9.354928970336914, 1.918438196182251, -2.837019205093384, 6.379800796508789, -1.1553044319152832, 1.1942765712738037, -1.44970703125, 0.27490234375, 0.494384765625, 0, 
9, 1021671626, 0.41756173968315125, -0.44567158818244934, -0.6667476892471313, -0.42716118693351746, 9.324739456176758, 1.973326563835144, -2.8593389987945557, 6.124069690704346, -0.900238037109375, 1.2066227197647095, -1.44970703125, 0.27587890625, 0.492431640625, 0, 
10, 1021679959, 0.4176696240901947, -0.4455701410770416, -0.6668033003807068, -0.42707473039627075, 9.32912826538086, 1.9894590377807617, -2.8578715324401855, 5.899022579193115, -0.6056742072105408, 1.2156131267547607, -1.4482421875, 0.2802734375, 0.488525390625, 0, 
11, 1021688292, 0.41773903369903564, -0.4455128014087677, -0.6668022274971008, -0.42706847190856934, 9.310450553894043, 1.996368646621704, -2.7874011993408203, 4.348054885864258, -0.39059147238731384, 1.2862828969955444, -1.45068359375, 0.2822265625, 0.492919921875, 0, 
12, 1021696625, 0.41770708560943604, -0.4455411434173584, -0.6667511463165283, -0.42714983224868774, 9.312636375427246, 2.0153920650482178, -2.7895753383636475, 2.130335807800293, -1.0101357698440552, 1.2731043100357056, -1.448974609375, 0.2783203125, 0.490478515625, 0, 
13, 1021704958, 0.4175882935523987, -0.44562873244285583, -0.6666725277900696, -0.4272973835468292, 9.321392059326172, 2.003948211669922, -2.799370527267456, 0.4996696412563324, -1.5790663957595825, 1.1011687517166138, -1.456298828125, 0.28173828125, 0.4931640625, 0, 
14, 1021713291, 0.4174443185329437, -0.4457318186759949, -0.6665613651275635, -0.42750418186187744, 9.329671859741211, 1.9661775827407837, -2.8894453048706055, -0.4886811375617981, -1.3624595403671265, 0.9500831961631775, -1.450927734375, 0.27783203125, 0.49072265625, 0, 
15, 1021721624, 0.41730061173439026, -0.4458036422729492, -0.6664919257164001, -0.4276776909828186, 9.3059663772583, 1.9771924018859863, -2.9124512672424316, 0.24494890868663788, -1.6084585189819336, 0.6040092706680298, -1.4501953125, 0.27783203125, 0.492431640625, 0, 
16, 1021729957, 0.41723403334617615, -0.44577959179878235, -0.6665117740631104, -0.427736759185791, 9.279534339904785, 2.0313100814819336, -2.9673101902008057, 2.839440107345581, -1.5625834465026855, 0.2827555239200592, -1.45263671875, 0.27783203125, 0.4912109375, 0, 
17, 1021738290, 0.4172326624393463, -0.44567227363586426, -0.6666290760040283, -0.42766696214675903, 9.282370567321777, 2.032076358795166, -3.003420114517212, 5.466257095336914, -1.8166768550872803, 0.056735534220933914, -1.4482421875, 0.2783203125, 0.4892578125, 0, 
18, 1021746623, 0.41729289293289185, -0.44548454880714417, -0.6668024063110352, -0.42753368616104126, 9.317645072937012, 2.091813564300537, -2.9914865493774414, 7.222369194030762, -1.4961403608322144, -0.3075629472732544, -1.449462890625, 0.281494140625, 0.488037109375, 0, 
19, 1021754956, 0.41739562153816223, -0.44524508714675903, -0.6669850945472717, -0.427397757768631, 9.342883110046387, 2.1288063526153564, -2.9393346309661865, 7.864902973175049, -0.8612915277481079, -0.5693917274475098, -1.44970703125, 0.276611328125, 0.489990234375, 0, 
20, 1021763289, 0.4174512028694153, -0.4450329542160034, -0.6671537756919861, -0.4273013472557068, 9.335831642150879, 2.0907294750213623, -2.8528199195861816, 6.970171928405762, -1.1440471410751343, -0.7410070896148682, -1.4501953125, 0.278564453125, 0.491943359375, 0, 
21, 1021771622, 0.41743746399879456, -0.44488146901130676, -0.6672901511192322, -0.4272594153881073, 9.390811920166016, 2.0432727336883545, -2.7880332469940186, 5.511337757110596, -1.6055129766464233, -0.7017916440963745, -1.4462890625, 0.279541015625, 0.490478515625, 0, 
22, 1021779955, 0.41736656427383423, -0.4448007345199585, -0.6673669815063477, -0.4272925853729248, 9.420878410339355, 2.011718273162842, -2.7175347805023193, 3.7125144004821777, -1.7574695348739624, -0.4621320068836212, -1.451416015625, 0.27783203125, 0.4912109375, 0, 
23, 1021788288, 0.4172310531139374, -0.44479498267173767, -0.6674214005470276, -0.427345871925354, 9.428086280822754, 1.9826003313064575, -2.7239503860473633, 2.5724377632141113, -2.5272412300109863, -0.1219109520316124, -1.450927734375, 0.276611328125, 0.4912109375, 0, 
24, 1021796621, 0.4171295166015625, -0.4447796046733856, -0.6674962043762207, -0.42734408378601074, 9.474075317382812, 1.9120607376098633, -2.8140830993652344, 3.4590747356414795, -2.6241915225982666, 0.1707957237958908, -1.447021484375, 0.28076171875, 0.489013671875, 0, 
25, 1021804954, 0.41708314418792725, -0.4447263181209564, -0.6675940155982971, -0.42729219794273376, 9.476276397705078, 1.8334126472473145, -2.7901628017425537, 4.610101699829102, -2.3239922523498535, 0.3033750355243683, -1.45166015625, 0.27490234375, 0.495849609375, 0, 
26, 1021813287, 0.41702497005462646, -0.44471535086631775, -0.6676515936851501, -0.4272705018520355, 9.478560447692871, 1.7502495050430298, -2.7921416759490967, 3.779303789138794, -2.2730202674865723, 0.6866664886474609, -1.451416015625, 0.275390625, 0.491943359375, 0, 
27, 1021821620, 0.4169449508190155, -0.444765567779541, -0.6676452159881592, -0.42730608582496643, 9.465023040771484, 1.7651197910308838, -2.861301898956299, 2.4083783626556396, -2.108474016189575, 1.1870917081832886, -1.4541015625, 0.276611328125, 0.49267578125, 0, 
28, 1021829953, 0.4168681204319, -0.44484344124794006, -0.6675902605056763, -0.42738571763038635, 9.447821617126465, 1.8085196018218994, -2.960638999938965, 1.5650553703308105, -1.7028728723526, 1.4977668523788452, -1.4501953125, 0.27783203125, 0.491943359375, 0, 
29, 1021838286, 0.41683831810951233, -0.44489786028862, -0.6675411462783813, -0.4274349808692932, 9.446846008300781, 1.8199788331985474, -3.0205159187316895, 2.2917823791503906, -1.3459126949310303, 1.7095965147018433, -1.44970703125, 0.272216796875, 0.49267578125, 0, 
30, 1021846619, 0.41684842109680176, -0.4449191391468048, -0.6675211191177368, -0.42743420600891113, 9.4210205078125, 1.7926186323165894, -2.934551239013672, 3.3660178184509277, -1.2652279138565063, 1.736517071723938, -1.44970703125, 0.274658203125, 0.492431640625, 0, 
31, 1021854952, 0.41689419746398926, -0.44492584466934204, -0.6675148010253906, -0.42739254236221313, 9.404556274414062, 1.789232850074768, -2.879709482192993, 4.121842384338379, -1.1687904596328735, 1.9667890071868896, -1.446533203125, 0.276123046875, 0.49609375, 0, 
32, 1021863285, 0.41698455810546875, -0.4449097514152527, -0.6675129532814026, -0.42732399702072144, 9.404224395751953, 1.8631261587142944, -2.8734843730926514, 4.7993903160095215, -0.8270964622497559, 2.143860340118408, -1.448974609375, 0.273681640625, 0.49560546875, 0, 
33, 1021871618, 0.4171198308467865, -0.4448791444301605, -0.6675108075141907, -0.42722734808921814, 9.366229057312012, 1.9283714294433594, -2.8656530380249023, 5.389594078063965, -0.4932149648666382, 2.4500527381896973, -1.4521484375, 0.27490234375, 0.495849609375, 0, 
34, 1021879951, 0.41727519035339355, -0.44485506415367126, -0.6674690842628479, -0.4271659851074219, 9.355494499206543, 1.9934313297271729, -2.853386640548706, 4.941779613494873, 0.0896754339337349, 2.65565824508667, -1.450927734375, 0.274169921875, 0.49267578125, 0, 
35, 1021888284, 0.41742122173309326, -0.44485607743263245, -0.667378842830658, -0.4271632730960846, 9.37338924407959, 2.0679163932800293, -2.877589702606201, 3.93749737739563, 0.5054713487625122, 2.7925920486450195, -1.44775390625, 0.27783203125, 0.49169921875, 0, 
36, 1021896617, 0.4175451695919037, -0.44487160444259644, -0.6672775149345398, -0.42718449234962463, 9.379317283630371, 2.072263717651367, -2.9236199855804443, 3.415376901626587, 0.4164106547832489, 2.7260210514068604, -1.448974609375, 0.274169921875, 0.49072265625, 0, 
37, 1021904950, 0.41762304306030273, -0.44490334391593933, -0.6671751737594604, -0.42723479866981506, 9.373273849487305, 2.047546625137329, -2.894536018371582, 2.7683353424072266, 0.09269791096448898, 2.4454421997070312, -1.4501953125, 0.279052734375, 0.4912109375, 0, 
38, 1021913283, 0.4176698327064514, -0.4449465572834015, -0.667069137096405, -0.42730969190597534, 9.351603507995605, 1.9776183366775513, -2.846787929534912, 2.2641446590423584, -0.09944726526737213, 2.2458817958831787, -1.451416015625, 0.279296875, 0.4931640625, 0, 
39, 1021921616, 0.4177156388759613, -0.4449542164802551, -0.666998028755188, -0.4273679554462433, 9.343168258666992, 1.9537826776504517, -2.8041136264801025, 2.8197686672210693, -0.1945529282093048, 1.8023715019226074, -1.450927734375, 0.2783203125, 0.488037109375, 0, 
40, 1021929949, 0.41779854893684387, -0.4448932111263275, -0.6669802665710449, -0.42737820744514465, 9.337864875793457, 1.9778635501861572, -2.801806926727295, 4.195150852203369, -0.05705571174621582, 1.3339382410049438, -1.4521484375, 0.278564453125, 0.492431640625, 0, 
41, 1021938282, 0.41792795062065125, -0.44476330280303955, -0.6670180559158325, -0.42732784152030945, 9.300041198730469, 1.9664785861968994, -2.7920010089874268, 5.759284019470215, 0.09175018221139908, 0.988094687461853, -1.451416015625, 0.278564453125, 0.49072265625, 0, 
42, 1021946615, 0.41801151633262634, -0.4446059763431549, -0.6671447157859802, -0.42721229791641235, 9.241447448730469, 1.9713221788406372, -2.8456461429595947, 6.756061553955078, -1.0858001708984375, 0.29284754395484924, -1.45263671875, 0.279052734375, 0.48876953125, 0, 
43, 1021954948, 0.4179709553718567, -0.4444635510444641, -0.6673446297645569, -0.4270874857902527, 9.237030982971191, 1.9007996320724487, -2.851555585861206, 6.431427001953125, -2.7806174755096436, -0.6876268982887268, -1.450927734375, 0.277099609375, 0.49072265625, 0, 
44, 1021963281, 0.41786327958106995, -0.44432762265205383, -0.6675663590431213, -0.4269879460334778, 9.275986671447754, 1.8101814985275269, -2.8198297023773193, 5.874752998352051, -3.415466547012329, -1.307184100151062, -1.450927734375, 0.2783203125, 0.487548828125, 0, 
45, 1021971614, 0.41770604252815247, -0.44421517848968506, -0.6678144335746765, -0.42687082290649414, 9.332386016845703, 1.7310550212860107, -2.8273816108703613, 5.76409912109375, -4.2548441886901855, -1.4379446506500244, -1.45263671875, 0.279052734375, 0.4892578125, 0, 
46, 1021979947, 0.41756224632263184, -0.44410035014152527, -0.6680805087089539, -0.4267144799232483, 9.354057312011719, 1.6497483253479004, -2.7899062633514404, 6.314831256866455, -4.471772193908691, -1.2698900699615479, -1.451416015625, 0.278564453125, 0.4931640625, 0, 
47, 1021988280, 0.41741785407066345, -0.4440261125564575, -0.6682958006858826, -0.42659610509872437, 9.366470336914062, 1.6411666870117188, -2.8095479011535645, 5.433112621307373, -4.183457851409912, -0.8023531436920166, -1.451416015625, 0.2802734375, 0.488037109375, 0, 
48, 1021996613, 0.4172464907169342, -0.444014310836792, -0.6684545874595642, -0.4265272915363312, 9.402937889099121, 1.747827172279358, -2.8760480880737305, 4.120357036590576, -4.179256439208984, -0.33240872621536255, -1.451416015625, 0.274658203125, 0.487548828125, 0, 
49, 1022004946, 0.41714781522750854, -0.44398409128189087, -0.6686142086982727, -0.42640507221221924, 9.414388656616211, 1.898105263710022, -2.917191505432129, 5.171692848205566, -3.7241432666778564, 0.23278214037418365, -1.451416015625, 0.27978515625, 0.491943359375, 0, 
50, 1022013279, 0.41714954376220703, -0.4439292252063751, -0.6687703132629395, -0.42621564865112305, 9.48195743560791, 1.9979430437088013, -2.931872606277466, 6.518823623657227, -3.0570974349975586, 0.9940372705459595, -1.44775390625, 0.27783203125, 0.492431640625, 0, 
51, 1022021612, 0.41720765829086304, -0.4438731074333191, -0.668880820274353, -0.42604342103004456, 9.482843399047852, 2.0830423831939697, -2.9001729488372803, 6.447691917419434, -2.1553738117218018, 1.4996109008789062, -1.45263671875, 0.27783203125, 0.49267578125, 0, 
52, 1022029945, 0.41726523637771606, -0.44384974241256714, -0.6689489483833313, -0.42590460181236267, 9.488973617553711, 2.1600663661956787, -2.895440101623535, 5.697592735290527, -1.9129223823547363, 1.85932457447052, -1.4521484375, 0.279296875, 0.4951171875, 0, 
53, 1022038278, 0.41730615496635437, -0.4438660442829132, -0.6689598560333252, -0.4258304238319397, 9.473442077636719, 2.1605355739593506, -2.9509100914001465, 4.447758197784424, -1.5680906772613525, 2.109870195388794, -1.44970703125, 0.27587890625, 0.48681640625, 0, 
54, 1022046611, 0.41730618476867676, -0.4439258873462677, -0.6689208745956421, -0.42582929134368896, 9.418413162231445, 2.1023271083831787, -2.959083080291748, 2.9746830463409424, -1.475418210029602, 2.1520564556121826, -1.4482421875, 0.27783203125, 0.489990234375, 0, 
55, 1022054944, 0.4173067808151245, -0.4439932703971863, -0.6688331365585327, -0.4258959889411926, 9.410511016845703, 1.9983468055725098, -2.9324824810028076, 2.025829792022705, -0.8093970417976379, 2.137021064758301, -1.44970703125, 0.2734375, 0.493896484375, 0, 
56, 1022063277, 0.41733142733573914, -0.44403815269470215, -0.6687321662902832, -0.42598357796669006, 9.357483863830566, 1.9312467575073242, -2.862382173538208, 2.032399892807007, -0.26354488730430603, 2.026867151260376, -1.45263671875, 0.278564453125, 0.49072265625, 0, 
57, 1022071610, 0.4174107313156128, -0.4440453350543976, -0.6686657071113586, -0.4260028004646301, 9.332808494567871, 1.9100005626678467, -2.896517276763916, 3.424994468688965, -0.14628289639949799, 2.1817054748535156, -1.45263671875, 0.279052734375, 0.488037109375, 0, 
58, 1022079943, 0.4175129532814026, -0.44403114914894104, -0.668650209903717, -0.4259417653083801, 9.304621696472168, 1.8760825395584106, -2.8510477542877197, 4.711815357208252, -0.603023111820221, 2.2707273960113525, -1.449462890625, 0.27783203125, 0.492431640625, 0, 
59, 1022088276, 0.4175742566585541, -0.4440736472606659, -0.6686124801635742, -0.4258965849876404, 9.273574829101562, 1.8890165090560913, -2.821599245071411, 3.8661611080169678, -1.077168345451355, 2.600792646408081, -1.4521484375, 0.279296875, 0.493896484375, 0, 
60, 1022096609, 0.4175797402858734, -0.44417089223861694, -0.6685499548912048, -0.42588791251182556, 9.290122032165527, 1.9433226585388184, -2.858457326889038, 2.7244067192077637, -1.5548993349075317, 2.71252179145813, -1.4453125, 0.27587890625, 0.49169921875, 0, 
61, 1022104942, 0.41756439208984375, -0.4442985951900482, -0.6684854626655579, -0.4258711338043213, 9.33800983428955, 2.0415329933166504, -2.8942418098449707, 2.4857337474823, -1.9547120332717896, 2.9391825199127197, -1.4521484375, 0.27587890625, 0.489501953125, 0, 
62, 1022113275, 0.4175649583339691, -0.44440919160842896, -0.6684153079986572, -0.42586520314216614, 9.343631744384766, 2.071032762527466, -2.8920321464538574, 2.549102783203125, -1.6178845167160034, 2.838850975036621, -1.44873046875, 0.28125, 0.48486328125, 0, 
63, 1022121608, 0.4175964593887329, -0.4444628059864044, -0.6683804988861084, -0.425833135843277, 9.332983016967773, 2.1085126399993896, -2.918030023574829, 3.5080490112304688, -1.3559536933898926, 2.436579704284668, -1.448974609375, 0.282470703125, 0.495361328125, 0, 
64, 1022129941, 0.4176888167858124, -0.4444212317466736, -0.6684176921844482, -0.42572757601737976, 9.329498291015625, 2.1540932655334473, -2.9297564029693604, 5.5290374755859375, -1.1082638502120972, 1.8938395977020264, -1.4521484375, 0.280517578125, 0.49560546875, 0, 
65, 1022138274, 0.4178125858306885, -0.4443211853504181, -0.6685174703598022, -0.4255536198616028, 9.321256637573242, 2.099728584289551, -2.91459321975708, 7.045823574066162, -1.2470035552978516, 1.556871771812439, -1.449462890625, 0.278564453125, 0.494873046875, 0, 
66, 1022146607, 0.41792482137680054, -0.4442284405231476, -0.6685997247695923, -0.4254111051559448, 9.276321411132812, 2.073176622390747, -2.9434497356414795, 6.546358585357666, -1.110825538635254, 1.477044939994812, -1.447509765625, 0.281005859375, 0.4921875, 0, 
67, 1022154940, 0.4180077016353607, -0.4441576302051544, -0.6686556339263916, -0.4253157079219818, 9.25356388092041, 2.105757474899292, -3.0360677242279053, 5.651627063751221, -1.0592639446258545, 1.3991265296936035, -1.453369140625, 0.27978515625, 0.4931640625, 0, 
68, 1022163273, 0.41807252168655396, -0.4440895915031433, -0.6686944961547852, -0.425261914730072, 9.238780975341797, 2.099654197692871, -3.0201587677001953, 5.045492172241211, -0.900276243686676, 1.181661605834961, -1.45458984375, 0.280517578125, 0.49267578125, 0, 
69, 1022171606, 0.418091356754303, -0.4440273940563202, -0.6687234044075012, -0.4252629280090332, 9.274724006652832, 2.0374104976654053, -2.9435274600982666, 4.173942565917969, -0.9573705792427063, 0.7186842560768127, -1.447509765625, 0.2802734375, 0.48974609375, 0, 
70, 1022179939, 0.4180440902709961, -0.443998247385025, -0.6687297224998474, -0.4253298342227936, 9.321876525878906, 2.0038952827453613, -2.916926860809326, 2.836008071899414, -1.2329028844833374, 0.3892595171928406, -1.450927734375, 0.278076171875, 0.496337890625, 0, 
71, 1022188272, 0.41791120171546936, -0.4440179467201233, -0.6687248945236206, -0.4254474341869354, 9.317374229431152, 1.9479488134384155, -2.821789026260376, 1.504016637802124, -1.9250764846801758, 0.11564826965332031, -1.4541015625, 0.2734375, 0.491455078125, 0, 
72, 1022196605, 0.4177606701850891, -0.44404858350753784, -0.668688952922821, -0.4256199300289154, 9.337285995483398, 1.8865299224853516, -2.7986888885498047, 0.6444029808044434, -1.6442419290542603, -0.014843449927866459, -1.451416015625, 0.27978515625, 0.490478515625, 0, 
73, 1022204938, 0.41760629415512085, -0.4440772533416748, -0.6686636805534363, -0.42578089237213135, 9.39210319519043, 1.8714097738265991, -2.795889139175415, 0.795578122138977, -1.7902942895889282, -0.04870547354221344, -1.44873046875, 0.2841796875, 0.49169921875, 0, 
74, 1022213271, 0.4174805283546448, -0.44406235218048096, -0.668668270111084, -0.4259125590324402, 9.40263843536377, 1.8381993770599365, -2.8238730430603027, 1.670240044593811, -1.6334710121154785, -0.302196741104126, -1.450927734375, 0.277099609375, 0.489990234375, 0, 
75, 1022221604, 0.41737857460975647, -0.44405385851860046, -0.6686739325523376, -0.42601245641708374, 9.374785423278809, 1.7751652002334595, -2.8546247482299805, 2.067824363708496, -1.6467905044555664, 0.08448855578899384, -1.448486328125, 0.275390625, 0.49560546875, 0, 
76, 1022229937, 0.41730058193206787, -0.4440454840660095, -0.6686917543411255, -0.4260695278644562, 9.380380630493164, 1.8223389387130737, -2.8975987434387207, 2.686805248260498, -1.763040542602539, 0.3857247531414032, -1.447265625, 0.274169921875, 0.4931640625, 0, 
77, 1022238270, 0.41730403900146484, -0.4439757466316223, -0.6687683463096619, -0.4260185956954956, 9.43153190612793, 1.8655152320861816, -2.9648563861846924, 4.872262477874756, -1.6445491313934326, 0.5637437105178833, -1.44970703125, 0.27734375, 0.49365234375, 0, 
78, 1022246603, 0.41740477085113525, -0.4438212811946869, -0.6689084768295288, -0.4258610010147095, 9.4608154296875, 1.8714085817337036, -2.9662387371063232, 7.306589126586914, -1.276447057723999, 0.5744504332542419, -1.450927734375, 0.278564453125, 0.490478515625, 0, 
79, 1022254936, 0.4174920916557312, -0.4436938166618347, -0.6690331697463989, -0.42571234703063965, 9.421125411987305, 1.8652405738830566, -2.9015872478485107, 6.900424003601074, -1.4038523435592651, 0.7883549332618713, -1.4501953125, 0.281005859375, 0.49169921875, 0, 
80, 1022263269, 0.4175266623497009, -0.4436768591403961, -0.6690611839294434, -0.42565208673477173, 9.411811828613281, 1.9111120700836182, -2.8686940670013428, 4.562663555145264, -1.4532363414764404, 1.5783747434616089, -1.4521484375, 0.27783203125, 0.4912109375, 0, 
81, 1022271602, 0.41755878925323486, -0.4437018036842346, -0.6690179705619812, -0.42566245794296265, 9.3992280960083, 1.9667658805847168, -2.872337579727173, 3.240302801132202, -0.8717163801193237, 1.9818756580352783, -1.449462890625, 0.2822265625, 0.494140625, 0, 
82, 1022279935, 0.4176129400730133, -0.4437207281589508, -0.6689612865447998, -0.42567873001098633, 9.416862487792969, 2.018995523452759, -2.8977341651916504, 3.2752153873443604, -0.5297920107841492, 2.1001880168914795, -1.44775390625, 0.27978515625, 0.494873046875, 0, 
83, 1022288268, 0.41769182682037354, -0.4437207877635956, -0.668904185295105, -0.4256909191608429, 9.411459922790527, 2.002842426300049, -2.9270131587982178, 3.5747220516204834, -0.2062586098909378, 2.1016223430633545, -1.45068359375, 0.27978515625, 0.49169921875, 0, 
84, 1022296601, 0.4177348017692566, -0.44373172521591187, -0.6688474416732788, -0.42572659254074097, 9.40810775756836, 1.977283239364624, -2.8801257610321045, 3.0741946697235107, -0.4667041599750519, 1.8485280275344849, -1.451416015625, 0.279296875, 0.49365234375, 0, 
85, 1022304934, 0.4177541136741638, -0.4437555968761444, -0.6687698364257812, -0.42580464482307434, 9.378580093383789, 1.9472064971923828, -2.882356643676758, 2.3483259677886963, -0.37314820289611816, 1.7166789770126343, -1.4462890625, 0.279052734375, 0.494140625, 0, 
86, 1022313267, 0.4177543818950653, -0.4437795877456665, -0.6686754822731018, -0.4259277582168579, 9.360087394714355, 1.8802467584609985, -2.882488965988159, 1.7146680355072021, -0.18569038808345795, 1.448331356048584, -1.44970703125, 0.275390625, 0.491943359375, 0, 
87, 1022321600, 0.4177539646625519, -0.44378426671028137, -0.6685935854911804, -0.4260518252849579, 9.355450630187988, 1.8359897136688232, -2.856335163116455, 1.888204574584961, -0.13840651512145996, 1.1860158443450928, -1.45263671875, 0.279296875, 0.492431640625, 0, 
88, 1022329933, 0.4177955090999603, -0.443734735250473, -0.6685938239097595, -0.4260624051094055, 9.36047077178955, 1.8240352869033813, -2.8789546489715576, 3.9783518314361572, -0.6052259206771851, 1.0815353393554688, -1.448974609375, 0.28173828125, 0.492431640625, 0, 
89, 1022338266, 0.41790157556533813, -0.4436260759830475, -0.6686586141586304, -0.42596954107284546, 9.347726821899414, 1.8244761228561401, -2.8605563640594482, 6.03737735748291, -0.6609881520271301, 1.1232867240905762, -1.4501953125, 0.275390625, 0.4931640625, 0, 
90, 1022346599, 0.4180542230606079, -0.4434742033481598, -0.6687759757041931, -0.42579373717308044, 9.340746879577637, 1.8755323886871338, -2.8475351333618164, 7.643673419952393, -0.7958728671073914, 1.14777410030365, -1.4521484375, 0.27734375, 0.49267578125, 0, 
91, 1022354932, 0.4182358384132385, -0.44330504536628723, -0.6689254641532898, -0.42555639147758484, 9.333312034606934, 1.9651151895523071, -2.8965253829956055, 8.680459976196289, -0.9799622297286987, 1.3204907178878784, -1.45068359375, 0.280517578125, 0.492431640625, 0, 
92, 1022363265, 0.4184192717075348, -0.44311806559562683, -0.6691024303436279, -0.4252924919128418, 9.337276458740234, 2.0269627571105957, -2.9233884811401367, 9.191438674926758, -1.1871559619903564, 1.1491827964782715, -1.45458984375, 0.276611328125, 0.489501953125, 0, 
93, 1022371598, 0.4185863733291626, -0.4429563283920288, -0.6692599058151245, -0.42504891753196716, 9.364397048950195, 2.0420072078704834, -2.9682464599609375, 8.64915943145752, -1.2419958114624023, 1.291008710861206, -1.4541015625, 0.277099609375, 0.489501953125, 0, 
94, 1022379931, 0.41870442032814026, -0.44284096360206604, -0.6693640351295471, -0.4248889982700348, 9.347452163696289, 2.0597143173217773, -2.9342782497406006, 7.001445770263672, -1.154932975769043, 1.2710038423538208, -1.451416015625, 0.280029296875, 0.483642578125, 0, 
95, 1022388264, 0.41874128580093384, -0.4428032338619232, -0.6694120168685913, -0.4248162508010864, 9.359424591064453, 2.0904345512390137, -2.883286237716675, 4.924976825714111, -1.4917601346969604, 1.3526619672775269, -1.448974609375, 0.2802734375, 0.490478515625, 0, 
96, 1022396597, 0.4187512695789337, -0.44280514121055603, -0.6694070100784302, -0.42481231689453125, 9.350192070007324, 2.084494113922119, -2.8969886302948, 3.5917558670043945, -1.2560065984725952, 1.4849082231521606, -1.449462890625, 0.283447265625, 0.48974609375, 0, 
97, 1022404930, 0.41877156496047974, -0.4427914619445801, -0.6693956255912781, -0.42482447624206543, 9.347249031066895, 2.1023831367492676, -2.869403600692749, 3.5635287761688232, -0.9278627634048462, 1.3507152795791626, -1.451416015625, 0.279052734375, 0.48876953125, 0, 
98, 1022413263, 0.4188164174556732, -0.4427278935909271, -0.669437050819397, -0.42478126287460327, 9.363497734069824, 2.09879207611084, -2.8302090167999268, 4.812530994415283, -1.059135913848877, 1.0296924114227295, -1.448974609375, 0.27978515625, 0.492431640625, 0, 
99, 1022421596, 0.4188721477985382, -0.44264280796051025, -0.6695009469985962, -0.42471399903297424, 9.39255142211914, 2.06109356880188, -2.8146626949310303, 5.352734565734863, -1.1007587909698486, 0.9015442132949829, -1.45654296875, 0.281005859375, 0.491455078125, 0, 
100, 1022429929, 0.41892939805984497, -0.44257745146751404, -0.6695055961608887, -0.4247184097766876, 9.36602783203125, 2.0628068447113037, -2.7987942695617676, 4.247199058532715, -0.4322017729282379, 1.0350968837738037, -1.449462890625, 0.27783203125, 0.4931640625, 0, 
101, 1022438262, 0.4189675748348236, -0.4425744116306305, -0.6694366335868835, -0.4247925579547882, 9.34719467163086, 2.0846147537231445, -2.858428955078125, 2.6975631713867188, -0.11581476777791977, 1.5503273010253906, -1.4541015625, 0.275390625, 0.490234375, 0, 
102, 1022446595, 0.4189804792404175, -0.4425860047340393, -0.6693633198738098, -0.42488333582878113, 9.351225852966309, 2.035874366760254, -2.8712971210479736, 2.2839958667755127, -0.3148886263370514, 1.4618301391601562, -1.447021484375, 0.281494140625, 0.490234375, 0, 
103, 1022454928, 0.4189782738685608, -0.44260188937187195, -0.6692999601364136, -0.4249688386917114, 9.35451889038086, 2.009026527404785, -2.8257219791412354, 2.2751076221466064, -0.5595813989639282, 1.3880867958068848, -1.450927734375, 0.279052734375, 0.491943359375, 0, 
104, 1022463261, 0.41899222135543823, -0.4425885081291199, -0.6692493557929993, -0.4250487685203552, 9.36572551727295, 1.980510950088501, -2.9019455909729004, 2.6655967235565186, -0.3577924370765686, 1.1621434688568115, -1.4501953125, 0.27978515625, 0.489990234375, 0, 
105, 1022471594, 0.41904452443122864, -0.44252195954322815, -0.6692465543746948, -0.42507094144821167, 9.390937805175781, 1.9317575693130493, -3.022735357284546, 4.019590854644775, -0.3110720217227936, 0.9413743615150452, -1.4521484375, 0.279052734375, 0.4892578125, 0, 
106, 1022479927, 0.41911718249320984, -0.44241103529930115, -0.6692937612533569, -0.4250403940677643, 9.3879976272583, 1.850197672843933, -2.9297144412994385, 5.174356937408447, -0.4829435646533966, 0.6491671204566956, -1.450927734375, 0.27783203125, 0.488037109375, 0, 
107, 1022488260, 0.4191875755786896, -0.4423132836818695, -0.6693390011787415, -0.4250016510486603, 9.370986938476562, 1.800388216972351, -2.809131622314453, 5.1589884757995605, -0.6089143753051758, 0.8186565637588501, -1.451416015625, 0.27783203125, 0.4892578125, 0, 
108, 1022496593, 0.41925716400146484, -0.44225266575813293, -0.6693599820137024, -0.4249630570411682, 9.376225471496582, 1.80270254611969, -2.7392454147338867, 4.787121295928955, -0.7027393579483032, 1.299410104751587, -1.4501953125, 0.27392578125, 0.488037109375, 0, 
109, 1022504926, 0.4193253517150879, -0.4422077536582947, -0.6693835854530334, -0.42490512132644653, 9.359418869018555, 1.8551421165466309, -2.734785318374634, 4.8798956871032715, -0.9322684407234192, 1.5369821786880493, -1.451416015625, 0.27587890625, 0.49072265625, 0, 
110, 1022513259, 0.4194110333919525, -0.4421488344669342, -0.6694328188896179, -0.42480432987213135, 9.356587409973145, 1.9024298191070557, -2.7977917194366455, 5.611387729644775, -1.1054463386535645, 1.596688985824585, -1.4482421875, 0.281494140625, 0.48779296875, 0, 
111, 1022521592, 0.4194484353065491, -0.44209563732147217, -0.669501543045044, -0.42471444606781006, 9.385703086853027, 1.8895715475082397, -2.8319551944732666, 5.310625076293945, -1.6209584474563599, 1.1894994974136353, -1.4521484375, 0.27978515625, 0.4912109375, 0, 
112, 1022529925, 0.4194350838661194, -0.44207462668418884, -0.6695414185523987, -0.42468664050102234, 9.380329132080078, 1.8631771802902222, -2.790192127227783, 4.063954830169678, -1.7403976917266846, 1.0035145282745361, -1.453369140625, 0.2802734375, 0.48876953125, 0, 
113, 1022538258, 0.41937455534935, -0.4421107769012451, -0.6695311069488525, -0.4247249960899353, 9.340339660644531, 1.8698046207427979, -2.7830255031585693, 2.548232078552246, -1.8093254566192627, 1.1781266927719116, -1.453125, 0.28466796875, 0.489990234375, 0, 
114, 1022546591, 0.4192974865436554, -0.4421641528606415, -0.669516921043396, -0.42476794123649597, 9.390247344970703, 1.8677698373794556, -2.8616974353790283, 2.280179262161255, -2.019054651260376, 1.2366808652877808, -1.451904296875, 0.281005859375, 0.490478515625, 0, 
115, 1022554924, 0.4192776381969452, -0.44218698143959045, -0.6694992184638977, -0.42479178309440613, 9.376882553100586, 1.891714096069336, -2.879417657852173, 2.9557929039001465, -1.4056323766708374, 1.4254193305969238, -1.458251953125, 0.278564453125, 0.48779296875, 0, 
116, 1022563257, 0.4193384349346161, -0.4421618580818176, -0.6695054173469543, -0.42474812269210815, 9.388436317443848, 1.9949877262115479, -2.928927183151245, 4.4879984855651855, -0.9369047284126282, 1.694381833076477, -1.451416015625, 0.27783203125, 0.488037109375, 0, 
117, 1022571590, 0.4194818437099457, -0.44205591082572937, -0.6695740818977356, -0.42460840940475464, 9.366459846496582, 2.1158082485198975, -2.9145114421844482, 6.705165863037109, -0.6394721269607544, 1.6121854782104492, -1.45263671875, 0.281494140625, 0.4873046875, 0, 
118, 1022579923, 0.4196721017360687, -0.44191187620162964, -0.669688880443573, -0.4243893623352051, 9.385993957519531, 2.135254383087158, -2.892242431640625, 8.210541725158691, -0.7426207661628723, 1.7051397562026978, -1.453125, 0.28271484375, 0.48681640625, 0, 
119, 1022588256, 0.41981205344200134, -0.4418124258518219, -0.6697763204574585, -0.4242163300514221, 9.376379013061523, 2.059900999069214, -2.9018092155456543, 7.054851531982422, -1.0230196714401245, 1.7286278009414673, -1.45458984375, 0.278564453125, 0.489501953125, 0, 
120, 1022596589, 0.4198637306690216, -0.44180911779403687, -0.669782280921936, -0.4241592288017273, 9.3352689743042, 1.9965054988861084, -2.858830690383911, 4.430238246917725, -1.2282922267913818, 1.9205554723739624, -1.45263671875, 0.27978515625, 0.49072265625, 0, 
121, 1022604922, 0.4198414087295532, -0.4418868124485016, -0.6697046756744385, -0.4242229759693146, 9.318495750427246, 1.9114925861358643, -2.906632423400879, 1.9198126792907715, -1.15565025806427, 2.0495998859405518, -1.455078125, 0.279052734375, 0.487060546875, 0, 
122, 1022613255, 0.4197884798049927, -0.44200611114501953, -0.6695724725723267, -0.42435964941978455, 9.321697235107422, 1.9082138538360596, -2.946674346923828, 0.49525120854377747, -0.9324221014976501, 2.1602277755737305, -1.4501953125, 0.279541015625, 0.4873046875, 0, 
123, 1022621588, 0.41972705721855164, -0.4421374499797821, -0.6694464087486267, -0.4244825541973114, 9.332828521728516, 1.9222660064697266, -2.9797661304473877, 0.5384112000465393, -1.192304253578186, 2.2650153636932373, -1.4521484375, 0.27978515625, 0.489990234375, 0, 
124, 1022629921, 0.41966578364372253, -0.442247599363327, -0.6693528294563293, -0.4245762228965759, 9.320340156555176, 1.9847668409347534, -2.9212679862976074, 1.119418978691101, -1.438533902168274, 2.0415310859680176, -1.45458984375, 0.282958984375, 0.489990234375, 0, 
125, 1022638254, 0.4196259677410126, -0.4423571527004242, -0.6692488193511963, -0.4246651232242584, 9.308450698852539, 2.00125789642334, -2.827695846557617, 1.2470290660858154, -1.1971709728240967, 2.255384683609009, -1.451171875, 0.28466796875, 0.486572265625, 0, 
126, 1022646587, 0.419609010219574, -0.4424431622028351, -0.6691616773605347, -0.424729585647583, 9.360572814941406, 2.038719415664673, -2.9015920162200928, 1.834337830543518, -1.1054718494415283, 2.2066404819488525, -1.448974609375, 0.27880859375, 0.4853515625, 0, 
127, 1022654920, 0.41955113410949707, -0.44255197048187256, -0.6690806150436401, -0.42480114102363586, 9.39057445526123, 2.0018715858459473, -2.8359310626983643, 1.4261237382888794, -1.6006718873977661, 2.105208158493042, -1.45458984375, 0.2802734375, 0.48876953125, 0, 
128, 1022663253, 0.4194455146789551, -0.4427005648612976, -0.6689632534980774, -0.42493554949760437, 9.408331871032715, 1.9773517847061157, -2.801690101623535, 0.11454685032367706, -1.686453938484192, 2.044656276702881, -1.45068359375, 0.283203125, 0.4833984375, 0, 
129, 1022671586, 0.4193424582481384, -0.4428553283214569, -0.6688500046730042, -0.4250541925430298, 9.394225120544434, 2.007380962371826, -2.778977632522583, 0.26941055059432983, -1.8110160827636719, 2.1853296756744385, -1.4501953125, 0.281982421875, 0.4873046875, 0, 
130, 1022679919, 0.4192950427532196, -0.44296693801879883, -0.668764054775238, -0.4251199960708618, 9.381454467773438, 2.0530195236206055, -2.8664467334747314, 1.4950259923934937, -1.5333833694458008, 2.250645875930786, -1.455078125, 0.2822265625, 0.487548828125, 0, 
131, 1022688252, 0.4193006157875061, -0.44302818179130554, -0.6686988472938538, -0.4251530170440674, 9.390362739562988, 2.043391704559326, -2.905430793762207, 2.5296108722686768, -1.0638233423233032, 2.1617136001586914, -1.45458984375, 0.282958984375, 0.491943359375, 0, 
132, 1022696585, 0.4193224608898163, -0.4430576264858246, -0.6686455607414246, -0.4251847565174103, 9.397982597351074, 2.0362329483032227, -2.886262893676758, 2.894920825958252, -0.8125987648963928, 1.8968110084533691, -1.45068359375, 0.2822265625, 0.4912109375, 0, 
133, 1022704918, 0.419302761554718, -0.44309350848197937, -0.6685738563537598, -0.4252794682979584, 9.377793312072754, 1.9701707363128662, -2.83062744140625, 1.9237059354782104, -0.733040988445282, 1.467362880706787, -1.453857421875, 0.2822265625, 0.48681640625, 0, 
134, 1022713251, 0.4192487895488739, -0.4431455731391907, -0.6684789657592773, -0.42542755603790283, 9.371480941772461, 1.904292106628418, -2.8270890712738037, 0.9895035028457642, -0.6944403052330017, 1.2432124614715576, -1.451904296875, 0.2822265625, 0.49169921875, 0, 
135, 1022721584, 0.41917547583580017, -0.44319936633110046, -0.6683963537216187, -0.4255734384059906, 9.308173179626465, 1.8177679777145386, -2.8403029441833496, 0.9509285092353821, -0.9567043781280518, 1.0918067693710327, -1.451904296875, 0.2841796875, 0.490478515625, 0, 
136, 1022729917, 0.41913041472435, -0.44324153661727905, -0.6683422923088074, -0.4256587028503418, 9.323225021362305, 1.7847247123718262, -2.8810300827026367, 1.9175329208374023, -1.172120213508606, 1.3182109594345093, -1.45068359375, 0.281005859375, 0.490478515625, 0, 
137, 1022738250, 0.4190993010997772, -0.44328683614730835, -0.6683098077774048, -0.4256932735443115, 9.328975677490234, 1.7798807621002197, -2.898409128189087, 2.5766899585723877, -1.489019513130188, 1.5959975719451904, -1.449462890625, 0.281982421875, 0.4873046875, 0, 
138, 1022746583, 0.41906553506851196, -0.4433456063270569, -0.6682888269424438, -0.42569828033447266, 9.312880516052246, 1.7982808351516724, -2.86330509185791, 2.822150707244873, -1.8453391790390015, 1.797248363494873, -1.45263671875, 0.2822265625, 0.4892578125, 0, 
139, 1022754916, 0.4190709590911865, -0.4433906674385071, -0.6682839393615723, -0.42565372586250305, 9.344979286193848, 1.8457168340682983, -2.9043588638305664, 3.688347339630127, -1.7908320426940918, 2.0935795307159424, -1.447509765625, 0.28076171875, 0.48779296875, 0, 
140, 1022763249, 0.41916313767433167, -0.4433773159980774, -0.6683076620101929, -0.4255395531654358, 9.393078804016113, 1.9279226064682007, -2.9301598072052, 5.3612895011901855, -1.2491934299468994, 2.285071611404419, -1.45263671875, 0.281494140625, 0.486083984375, 0, 
141, 1022771582, 0.4193124771118164, -0.4433188736438751, -0.6683574914932251, -0.42537522315979004, 9.410969734191895, 1.9792914390563965, -2.943368673324585, 6.582115650177002, -0.907371461391449, 2.339629650115967, -1.453369140625, 0.278564453125, 0.489501953125, 0, 
142, 1022779915, 0.41947826743125916, -0.4432317316532135, -0.6684249639511108, -0.4251965880393982, 9.430487632751465, 2.0220091342926025, -2.93337345123291, 7.084666728973389, -0.7866259813308716, 2.143988609313965, -1.455078125, 0.2802734375, 0.489990234375, 0, 
143, 1022788248, 0.41961976885795593, -0.4431644678115845, -0.6684761643409729, -0.42504647374153137, 9.42684555053711, 2.006362199783325, -2.8532869815826416, 6.4687981605529785, -0.8500723838806152, 2.120832920074463, -1.44873046875, 0.283935546875, 0.489013671875, 0, 
144, 1022796581, 0.4197407364845276, -0.44311046600341797, -0.6684935092926025, -0.4249560534954071, 9.428936004638672, 1.9856845140457153, -2.833544969558716, 5.51623010635376, -0.5653445720672607, 1.9838224649429321, -1.453125, 0.2822265625, 0.489990234375, 0, 
145, 1022804914, 0.4198579490184784, -0.44305235147476196, -0.6684882640838623, -0.4249090552330017, 9.415752410888672, 1.9526029825210571, -2.8230299949645996, 4.990626335144043, -0.1726783663034439, 1.812437653541565, -1.45068359375, 0.28466796875, 0.4873046875, 0, 
146, 1022813247, 0.41998589038848877, -0.44297656416893005, -0.6684863567352295, -0.42486464977264404, 9.382902145385742, 1.9477510452270508, -2.7853200435638428, 5.150023937225342, 0.01813487894833088, 1.6740950345993042, -1.455810546875, 0.2822265625, 0.487548828125, 0, 
147, 1022821580, 0.4201308488845825, -0.4428897798061371, -0.6684883832931519, -0.42480847239494324, 9.358052253723145, 1.9179614782333374, -2.812514066696167, 5.444075107574463, 0.14999696612358093, 1.7240172624588013, -1.45263671875, 0.283935546875, 0.486083984375, 0, 
148, 1022829913, 0.4202459752559662, -0.4428292214870453, -0.6684480309486389, -0.4248211979866028, 9.360479354858398, 1.869349479675293, -2.7802610397338867, 4.235647201538086, 0.38065314292907715, 1.644152283668518, -1.451416015625, 0.2822265625, 0.488525390625, 0, 
149, 1022838246, 0.42025691270828247, -0.44286632537841797, -0.6683487892150879, -0.4249279797077179, 9.360901832580566, 1.879360318183899, -2.7690043449401855, 1.8210185766220093, -0.2266732007265091, 1.7508097887039185, -1.451171875, 0.287841796875, 0.488525390625, 0, 
150, 1022846579, 0.4201611876487732, -0.4429982602596283, -0.6682133078575134, -0.4250982403755188, 9.38449764251709, 1.8542760610580444, -2.741499423980713, -0.16686391830444336, -1.1725044250488281, 1.8491426706314087, -1.45068359375, 0.286865234375, 0.4833984375, 0, 
151, 1022854912, 0.4200330972671509, -0.4431486427783966, -0.6680837273597717, -0.425271600484848, 9.380910873413086, 1.8743963241577148, -2.8109323978424072, -0.45789283514022827, -1.5855082273483276, 1.7821615934371948, -1.45458984375, 0.2802734375, 0.489501953125, 0, 
152, 1022863245, 0.4199960231781006, -0.4432203769683838, -0.6680133938789368, -0.42534399032592773, 9.411358833312988, 1.9376354217529297, -2.8236331939697266, 1.8180986642837524, -1.2537784576416016, 1.8090054988861084, -1.44873046875, 0.281982421875, 0.484130859375, 0, 
153, 1022871578, 0.42004531621932983, -0.44321998953819275, -0.6680006980895996, -0.42531564831733704, 9.395363807678223, 1.9630988836288452, -2.908137321472168, 4.032321453094482, -0.9787071943283081, 1.8866677284240723, -1.455810546875, 0.27978515625, 0.490234375, 0, 
154, 1022879911, 0.4201541244983673, -0.44316795468330383, -0.668022632598877, -0.4252277612686157, 9.404685020446777, 2.0155932903289795, -2.955172538757324, 5.43610954284668, -0.7007158398628235, 1.887333869934082, -1.455078125, 0.283447265625, 0.487548828125, 0, 
155, 1022888244, 0.4202931225299835, -0.44309061765670776, -0.6680454015731812, -0.42513516545295715, 9.390732765197754, 2.041682720184326, -2.971367359161377, 5.820809841156006, -0.3005702793598175, 1.8606951236724854, -1.449462890625, 0.279541015625, 0.48681640625, 0, 
156, 1022896577, 0.4204210042953491, -0.4430145025253296, -0.66805499792099, -0.4250729978084564, 9.382952690124512, 2.0247833728790283, -2.872755765914917, 5.381961345672607, -0.15569615364074707, 1.705908179283142, -1.453857421875, 0.283447265625, 0.4892578125, 0, 
157, 1022904910, 0.4205140769481659, -0.4429430663585663, -0.6680490970611572, -0.4250645935535431, 9.370028495788574, 2.0054521560668945, -2.9013752937316895, 4.563662528991699, -0.07992923259735107, 1.3309669494628906, -1.4501953125, 0.281494140625, 0.48974609375, 0, 
158, 1022913243, 0.4206061363220215, -0.44286245107650757, -0.668053925037384, -0.42504993081092834, 9.36997127532959, 2.0218491554260254, -2.9527060985565186, 4.72536563873291, -0.14132654666900635, 1.2085309028625488, -1.45703125, 0.283935546875, 0.485595703125, 0, 
159, 1022921576, 0.4206817150115967, -0.44278016686439514, -0.6680609583854675, -0.42504990100860596, 9.314619064331055, 1.9812281131744385, -2.9010019302368164, 4.522885322570801, -0.19847190380096436, 1.001516580581665, -1.45263671875, 0.27783203125, 0.489990234375, 0, 
160, 1022929909, 0.4207282066345215, -0.44272661209106445, -0.668050229549408, -0.42507654428482056, 9.274947166442871, 1.8824390172958374, -2.822849750518799, 3.820516347885132, -0.3785143196582794, 1.0473660230636597, -1.451904296875, 0.284423828125, 0.484130859375, 0, 
161, 1022938242, 0.4207475781440735, -0.4427086412906647, -0.6680107712745667, -0.42513811588287354, 9.275856018066406, 1.8388081789016724, -2.9007365703582764, 2.954089879989624, -0.4474935233592987, 1.1904215812683105, -1.451904296875, 0.2822265625, 0.488037109375, 0, 
162, 1022946575, 0.4207650125026703, -0.4426942467689514, -0.6680026054382324, -0.42514875531196594, 9.30614948272705, 1.8631503582000732, -2.942025899887085, 3.5801782608032227, -0.9859302639961243, 1.3143430948257446, -1.4501953125, 0.2802734375, 0.4912109375, 0, 
163, 1022954908, 0.4207938015460968, -0.4426727890968323, -0.6680129766464233, -0.42512622475624084, 9.32596206665039, 1.8729145526885986, -2.913564443588257, 4.083087921142578, -1.1451228857040405, 1.4047870635986328, -1.451416015625, 0.2822265625, 0.490478515625, 0, 
164, 1022963241, 0.42082157731056213, -0.44266730546951294, -0.6680039763450623, -0.42511850595474243, 9.359575271606445, 1.8978289365768433, -2.905449151992798, 3.7560713291168213, -1.0502732992172241, 1.5678985118865967, -1.45068359375, 0.28466796875, 0.486083984375, 0, 
165, 1022971574, 0.42082858085632324, -0.44267943501472473, -0.6679626703262329, -0.4251641035079956, 9.390531539916992, 1.9334436655044556, -2.8222227096557617, 2.845767021179199, -0.8213075995445251, 1.497792363166809, -1.45263671875, 0.281494140625, 0.486083984375, 0, 
166, 1022979907, 0.420826256275177, -0.44269800186157227, -0.6679120659828186, -0.42522647976875305, 9.418778419494629, 1.9669451713562012, -2.783738374710083, 2.545670747756958, -0.7989720106124878, 1.4609334468841553, -1.44677734375, 0.286376953125, 0.48583984375, 0, 
167, 1022988240, 0.4208313226699829, -0.4427039921283722, -0.6678702235221863, -0.42528077960014343, 9.428053855895996, 1.9520541429519653, -2.796661615371704, 2.7879555225372314, -0.7506635785102844, 1.382477045059204, -1.45263671875, 0.28271484375, 0.483642578125, 0, 
168, 1022996573, 0.4208710789680481, -0.44267353415489197, -0.6678495407104492, -0.42530566453933716, 9.430243492126465, 1.8995128870010376, -2.8555798530578613, 3.6044094562530518, -0.5270000696182251, 1.2900097370147705, -1.453125, 0.28271484375, 0.4873046875, 0, 
169, 1023004906, 0.42093193531036377, -0.44260379672050476, -0.6678662896156311, -0.42529165744781494, 9.430036544799805, 1.8850347995758057, -2.911811351776123, 4.533233165740967, -0.5518715381622314, 1.0558956861495972, -1.45068359375, 0.286865234375, 0.4833984375, 0, 
170, 1023013239, 0.42100563645362854, -0.442534476518631, -0.6678921580314636, -0.42525026202201843, 9.4019193649292, 1.8193260431289673, -2.855837345123291, 4.918445587158203, -0.6601172685623169, 1.23358154296875, -1.4501953125, 0.279541015625, 0.48291015625, 0, 
171, 1023021572, 0.42103224992752075, -0.4425193965435028, -0.6678887605667114, -0.425245076417923, 9.390317916870117, 1.7759696245193481, -2.786381959915161, 3.8152916431427, -1.0115702152252197, 1.4254578351974487, -1.45068359375, 0.284912109375, 0.480224609375, 0, 
172, 1023029905, 0.4210225045681, -0.4425605237483978, -0.6678303480148315, -0.42530375719070435, 9.393349647521973, 1.8048858642578125, -2.7910547256469727, 2.357137441635132, -0.9760561585426331, 1.6935492753982544, -1.455078125, 0.28076171875, 0.48193359375, 0, 
173, 1023038238, 0.4210429787635803, -0.4426010549068451, -0.6677584052085876, -0.4253538250923157, 9.429889678955078, 1.873830795288086, -2.8531603813171387, 2.5470283031463623, -0.6632165908813477, 1.9986273050308228, -1.453125, 0.284423828125, 0.484130859375, 0, 
174, 1023046571, 0.4210970103740692, -0.442604124546051, -0.6677066683769226, -0.4253784120082855, 9.425963401794434, 1.8901382684707642, -2.8473689556121826, 3.3181450366973877, -0.41475850343704224, 1.872477412223816, -1.455078125, 0.283203125, 0.48046875, 0, 
175, 1023054904, 0.4211560785770416, -0.44261372089385986, -0.667644739151001, -0.42540720105171204, 9.412074089050293, 1.8572908639907837, -2.8061678409576416, 3.218121290206909, -0.31347984075546265, 2.0005741119384766, -1.452392578125, 0.28564453125, 0.479736328125, 0, 
176, 1023063237, 0.4212236702442169, -0.442626416683197, -0.667575478553772, -0.4254358112812042, 9.379947662353516, 1.845041275024414, -2.771779775619507, 3.2049169540405273, -0.21966765820980072, 2.12471342086792, -1.455078125, 0.287109375, 0.484130859375, 0, 
177, 1023071570, 0.42131438851356506, -0.4426199793815613, -0.6675070524215698, -0.4254601001739502, 9.388639450073242, 1.900344729423523, -2.7738993167877197, 3.504462718963623, 0.0799420177936554, 2.1070010662078857, -1.45654296875, 0.2802734375, 0.487060546875, 0, 
178, 1023079903, 0.4214424788951874, -0.44257956743240356, -0.6674534678459167, -0.4254594147205353, 9.379287719726562, 1.9701473712921143, -2.7277259826660156, 4.242537021636963, 0.37614503502845764, 2.063995122909546, -1.451904296875, 0.281982421875, 0.48291015625, 0, 
179, 1023088236, 0.4215487241744995, -0.44255807995796204, -0.6673926711082458, -0.42547157406806946, 9.368875503540039, 2.0488927364349365, -2.7385122776031494, 3.8339900970458984, 0.1928752213716507, 2.084486484527588, -1.451904296875, 0.282470703125, 0.478515625, 0, 
180, 1023096569, 0.42158687114715576, -0.4425760805606842, -0.6673159599304199, -0.4255354404449463, 9.383502006530762, 2.0775439739227295, -2.7554311752319336, 2.628788948059082, -0.2638137936592102, 1.8416633605957031, -1.451904296875, 0.286865234375, 0.479736328125, 0, 
181, 1023104902, 0.4215492606163025, -0.4426099359989166, -0.6672568321228027, -0.4256301820278168, 9.362210273742676, 2.054272174835205, -2.7340304851531982, 1.896708369255066, -0.958446204662323, 1.2585554122924805, -1.447509765625, 0.2861328125, 0.480224609375, 0, 
182, 1023113235, 0.4214746654033661, -0.4426238238811493, -0.6672494411468506, -0.42570123076438904, 9.332670211791992, 2.004040479660034, -2.745338201522827, 2.305511713027954, -1.6312297582626343, 0.6803141236305237, -1.454345703125, 0.286376953125, 0.481689453125, 0, 
183, 1023121568, 0.42142364382743835, -0.44258084893226624, -0.6672950983047485, -0.4257251024246216, 9.34011173248291, 1.9170734882354736, -2.828110933303833, 3.5228023529052734, -1.6700352430343628, 0.24963632225990295, -1.45703125, 0.283935546875, 0.482421875, 0, 
184, 1023129901, 0.4213617146015167, -0.4425777196884155, -0.667314887046814, -0.4257586598396301, 9.339118957519531, 1.8595625162124634, -2.847224473953247, 2.9845962524414062, -1.8023842573165894, 0.6496794819831848, -1.456298828125, 0.283203125, 0.483154296875, 0, 
185, 1023138234, 0.42128926515579224, -0.44261813163757324, -0.667293131351471, -0.42582234740257263, 9.330255508422852, 1.8954944610595703, -2.851740598678589, 2.1506481170654297, -1.7235180139541626, 1.0693432092666626, -1.453125, 0.28466796875, 0.4853515625, 0, 
186, 1023146567, 0.4212547242641449, -0.4426592290401459, -0.6672458052635193, -0.4258880615234375, 9.318734169006348, 1.9344995021820068, -2.8183021545410156, 2.2077934741973877, -1.224808692932129, 1.4377015829086304, -1.458984375, 0.277587890625, 0.482666015625, 0, 
187, 1023154900, 0.4212322235107422, -0.4426935017108917, -0.6671992540359497, -0.42594751715660095, 9.329228401184082, 1.9436572790145874, -2.8393051624298096, 2.3834047317504883, -1.1121573448181152, 1.4795807600021362, -1.453857421875, 0.27783203125, 0.48681640625, 0, 
188, 1023163233, 0.42119070887565613, -0.442743182182312, -0.667150616645813, -0.42601314187049866, 9.366311073303223, 1.9075078964233398, -2.8033151626586914, 2.1090505123138428, -1.3324652910232544, 1.4841912984848022, -1.45458984375, 0.281005859375, 0.487548828125, 0, 
189, 1023171566, 0.4211384356021881, -0.442803293466568, -0.6670957207679749, -0.42608842253685, 9.376873970031738, 1.9000744819641113, -2.7664968967437744, 1.8654589653015137, -1.3866393566131592, 1.5006355047225952, -1.45263671875, 0.27880859375, 0.484375, 0, 
190, 1023179899, 0.4210396707057953, -0.4429035782814026, -0.6670272946357727, -0.42618897557258606, 9.397252082824707, 1.8852916955947876, -2.778975248336792, 1.0289238691329956, -1.826128602027893, 1.5321667194366455, -1.454345703125, 0.284423828125, 0.482421875, 0, 
191, 1023188232, 0.42086881399154663, -0.44307756423950195, -0.6669213771820068, -0.4263423979282379, 9.441915512084961, 1.88571298122406, -2.7347116470336914, -0.5393205285072327, -2.375528335571289, 1.709109902381897, -1.45263671875, 0.28076171875, 0.482421875, 0, 
192, 1023196565, 0.4206916093826294, -0.4432506263256073, -0.666803240776062, -0.42652207612991333, 9.425975799560547, 1.9070827960968018, -2.7112650871276855, -0.8848822116851807, -2.20383620262146, 1.5838819742202759, -1.455810546875, 0.283203125, 0.477294921875, 0, 
193, 1023204898, 0.4205622971057892, -0.4433741271495819, -0.6667223572731018, -0.42664793133735657, 9.451048851013184, 1.9059057235717773, -2.7388577461242676, 0.39812204241752625, -2.00862979888916, 1.4979203939437866, -1.455322265625, 0.2783203125, 0.485107421875, 0, 
194, 1023213231, 0.42044925689697266, -0.4434446692466736, -0.6667023301124573, -0.42671728134155273, 9.452693939208984, 1.843802571296692, -2.8087093830108643, 1.6848018169403076, -2.253732681274414, 1.0606342554092407, -1.45263671875, 0.28271484375, 0.48291015625, 0, 
195, 1023221564, 0.4203674793243408, -0.44348204135894775, -0.6666950583457947, -0.42677026987075806, 9.441143035888672, 1.8068747520446777, -2.740158796310425, 2.2961878776550293, -1.9374990463256836, 0.9580748081207275, -1.455078125, 0.28466796875, 0.487548828125, 0, 
196, 1023229897, 0.4203346371650696, -0.44349193572998047, -0.6667008996009827, -0.4267832040786743, 9.41240119934082, 1.8151646852493286, -2.7423336505889893, 3.1940436363220215, -1.6553326845169067, 1.1454941034317017, -1.45458984375, 0.281982421875, 0.478515625, 0, 
197, 1023238230, 0.42034366726875305, -0.44347381591796875, -0.6667163968086243, -0.42676886916160583, 9.424652099609375, 1.8393397331237793, -2.7515342235565186, 3.9137275218963623, -1.3248323202133179, 1.232275366783142, -1.451416015625, 0.281982421875, 0.484130859375, 0, 
198, 1023246563, 0.4203782081604004, -0.4434494972229004, -0.6667321920394897, -0.4267353415489197, 9.40583610534668, 1.8188143968582153, -2.7309720516204834, 4.28731107711792, -1.1779603958129883, 1.4331165552139282, -1.45263671875, 0.283447265625, 0.486083984375, 0, 
199, 1023254896, 0.42038461565971375, -0.4434557259082794, -0.6667367815971375, -0.42671525478363037, 9.391351699829102, 1.8470520973205566, -2.7923059463500977, 3.751230478286743, -1.4613306522369385, 1.5408755540847778, -1.45458984375, 0.281005859375, 0.48876953125, 0, 
200, 1023263229, 0.4203698933124542, -0.44349703192710876, -0.6667038202285767, -0.42673832178115845, 9.361260414123535, 1.858849287033081, -2.8007876873016357, 2.8021974563598633, -1.3872798681259155, 1.716896653175354, -1.4501953125, 0.281982421875, 0.48486328125, 0, 
201, 1023271562, 0.42034944891929626, -0.4435378909111023, -0.6666494011878967, -0.42680123448371887, 9.387240409851074, 1.889756441116333, -2.8800299167633057, 2.272853374481201, -1.064719557762146, 1.578477144241333, -1.453369140625, 0.27880859375, 0.483154296875, 0, 
202, 1023279895, 0.4203629493713379, -0.44353872537612915, -0.6666208505630493, -0.4268317222595215, 9.427247047424316, 1.9217534065246582, -2.906003713607788, 3.1644084453582764, -0.8724080920219421, 1.4413131475448608, -1.451416015625, 0.279541015625, 0.48486328125, 0, 
203, 1023288228, 0.4203728139400482, -0.4435139298439026, -0.66664719581604, -0.4268067479133606, 9.392036437988281, 1.9260056018829346, -2.909093141555786, 4.129706382751465, -1.4026228189468384, 1.1724660396575928, -1.451416015625, 0.282470703125, 0.482177734375, 0, 
204, 1023296561, 0.420371413230896, -0.44348594546318054, -0.6666853427886963, -0.4267774820327759, 9.383956909179688, 1.86044180393219, -2.8331477642059326, 4.181216716766357, -1.5893504619598389, 1.0281298160552979, -1.453125, 0.281982421875, 0.482421875, 0, 
205, 1023304894, 0.4203888773918152, -0.44343501329421997, -0.6667352914810181, -0.42673513293266296, 9.37052059173584, 1.8988600969314575, -2.7617390155792236, 4.612329959869385, -1.4257012605667114, 0.9350220561027527, -1.455078125, 0.28271484375, 0.483154296875, 0, 
206, 1023313227, 0.42048120498657227, -0.44332659244537354, -0.6668283939361572, -0.4266114830970764, 9.396024703979492, 1.9970154762268066, -2.813486337661743, 6.404813766479492, -1.1513983011245728, 1.0510801076889038, -1.455322265625, 0.2763671875, 0.482666015625, 0, 
207, 1023321560, 0.42059287428855896, -0.44320428371429443, -0.6669490933418274, -0.4264396131038666, 9.364981651306152, 2.056643486022949, -2.76975417137146, 7.201108455657959, -1.3397396802902222, 1.1483628749847412, -1.4462890625, 0.280029296875, 0.482666015625, 0, 
208, 1023329893, 0.42064109444618225, -0.44313278794288635, -0.667055070400238, -0.42630067467689514, 9.338361740112305, 2.055955410003662, -2.779198169708252, 6.139065742492676, -1.9391895532608032, 1.140960454940796, -1.45263671875, 0.283935546875, 0.4853515625, 0, 
209, 1023338226, 0.4206554591655731, -0.44309645891189575, -0.6671134233474731, -0.4262330234050751, 9.327882766723633, 2.061335325241089, -2.8146698474884033, 4.814015865325928, -1.7429333925247192, 1.1425485610961914, -1.451904296875, 0.279541015625, 0.482421875, 0, 
210, 1023346559, 0.4206494987010956, -0.4430798888206482, -0.6671352386474609, -0.4262219965457916, 9.334757804870605, 2.0995585918426514, -2.8420183658599854, 3.8236420154571533, -1.4926055669784546, 1.1005154848098755, -1.45703125, 0.281982421875, 0.481201171875, 0, 
211, 1023354892, 0.4206525385379791, -0.4430660605430603, -0.66713547706604, -0.4262327253818512, 9.376093864440918, 2.127009153366089, -2.8992063999176025, 3.5392980575561523, -1.1621562242507935, 1.1865794658660889, -1.457763671875, 0.27978515625, 0.490234375, 0, 
212, 1023363225, 0.4206162095069885, -0.4430815875530243, -0.667131245136261, -0.42625901103019714, 9.379009246826172, 2.1026294231414795, -2.8578941822052, 2.9577009677886963, -1.580923318862915, 1.159966230392456, -1.454345703125, 0.282470703125, 0.47998046875, 0, 
213, 1023371558, 0.4205717444419861, -0.4431147277355194, -0.6671176552772522, -0.4262899160385132, 9.353906631469727, 2.056198835372925, -2.856834650039673, 2.7080907821655273, -1.6733397245407104, 1.306735873222351, -1.455078125, 0.283447265625, 0.48486328125, 0, 
214, 1023379891, 0.4205501675605774, -0.44311949610710144, -0.6671136617660522, -0.4263124465942383, 9.352391242980957, 1.9871199131011963, -2.907294511795044, 3.1466064453125, -1.4069515466690063, 1.1673176288604736, -1.453125, 0.28125, 0.479248046875, 0, 
215, 1023388224, 0.4205363094806671, -0.4431121051311493, -0.667106032371521, -0.42634573578834534, 9.344898223876953, 1.9535877704620361, -2.8603477478027344, 3.136258363723755, -1.1719921827316284, 1.063118815422058, -1.455078125, 0.283203125, 0.482421875, 0, 
216, 1023396557, 0.42048805952072144, -0.4431524872779846, -0.6670615077018738, -0.4264211058616638, 9.364394187927246, 1.885219693183899, -2.7606465816497803, 2.055619239807129, -1.3041102886199951, 1.2777148485183716, -1.45263671875, 0.281494140625, 0.485595703125, 0, 
217, 1023404890, 0.4204200208187103, -0.44321581721305847, -0.6670079827308655, -0.4265061616897583, 9.37114143371582, 1.8595350980758667, -2.802164077758789, 1.660878300666809, -1.50244140625, 1.377866506576538, -1.45556640625, 0.286376953125, 0.48291015625, 0, 
218, 1023413223, 0.4203694760799408, -0.4432544708251953, -0.6669862270355225, -0.42654988169670105, 9.380592346191406, 1.8707897663116455, -2.9024569988250732, 2.4747705459594727, -1.6397850513458252, 1.2951326370239258, -1.453369140625, 0.2802734375, 0.486328125, 0, 
219, 1023421556, 0.4203593134880066, -0.44323310256004333, -0.6670313477516174, -0.42651110887527466, 9.413775444030762, 1.8799086809158325, -2.889451503753662, 4.221635818481445, -1.8021025657653809, 1.0504143238067627, -1.451416015625, 0.281982421875, 0.484130859375, 0, 
220, 1023429889, 0.42035427689552307, -0.4431973695755005, -0.6671046018600464, -0.4264386296272278, 9.431130409240723, 1.8631994724273682, -2.8142192363739014, 4.806254863739014, -2.0440800189971924, 0.9710100293159485, -1.45263671875, 0.283935546875, 0.48681640625, 0, 
221, 1023438222, 0.4203580319881439, -0.4431530237197876, -0.6671895980834961, -0.42634814977645874, 9.420561790466309, 1.8518922328948975, -2.7626757621765137, 5.142749309539795, -2.0835769176483154, 0.9835354089736938, -1.449462890625, 0.281494140625, 0.486083984375, 0, 
222, 1023446555, 0.4204101264476776, -0.44307416677474976, -0.6672779321670532, -0.4262405037879944, 9.43265151977539, 1.8888535499572754, -2.802528142929077, 5.813509464263916, -1.5679627656936646, 1.020727276802063, -1.45703125, 0.281494140625, 0.485107421875, 0, 
223, 1023454888, 0.4204730689525604, -0.4430105686187744, -0.6673399209976196, -0.4261476993560791, 9.41848087310791, 1.9053725004196167, -2.8421075344085693, 5.508161544799805, -1.309335708618164, 1.3011775016784668, -1.453125, 0.2822265625, 0.48681640625, 0, 
224, 1023463221, 0.4205248951911926, -0.4429919123649597, -0.6673581004142761, -0.4260874390602112, 9.3858642578125, 1.9195388555526733, -2.8109984397888184, 4.618758201599121, -1.2287275791168213, 1.7262969017028809, -1.45703125, 0.28271484375, 0.48681640625, 0, 
225, 1023471554, 0.42055046558380127, -0.44301337003707886, -0.667328417301178, -0.42608633637428284, 9.401754379272461, 1.9863858222961426, -2.830392599105835, 3.4039013385772705, -1.0612105131149292, 1.890791416168213, -1.45458984375, 0.28271484375, 0.48486328125, 0, 
226, 1023479887, 0.42055943608283997, -0.4430306553840637, -0.667324960231781, -0.42606499791145325, 9.397242546081543, 2.045496940612793, -2.881392240524292, 3.6656017303466797, -1.469988226890564, 1.7114406824111938, -1.455078125, 0.279541015625, 0.484375, 0, 
227, 1023488220, 0.4206099212169647, -0.443001925945282, -0.6673543453216553, -0.42599883675575256, 9.384825706481934, 1.9992849826812744, -2.921663522720337, 4.791270732879639, -1.2792131900787354, 1.5964070558547974, -1.45263671875, 0.283935546875, 0.4853515625, 0, 
228, 1023496553, 0.42070743441581726, -0.4429498314857483, -0.6673669219017029, -0.42593705654144287, 9.355277061462402, 1.9234213829040527, -2.849318742752075, 5.071413993835449, -0.590753972530365, 1.729780673980713, -1.45263671875, 0.281982421875, 0.482421875, 0, 
229, 1023504886, 0.42076393961906433, -0.44295671582221985, -0.6673218011856079, -0.42594456672668457, 9.37021255493164, 1.9094499349594116, -2.8125929832458496, 3.5020036697387695, -0.5497198700904846, 1.9841554164886475, -1.453857421875, 0.28076171875, 0.48681640625, 0, 
230, 1023513219, 0.4207817018032074, -0.44301703572273254, -0.6672306656837463, -0.42600709199905396, 9.370003700256348, 1.9513450860977173, -2.814981460571289, 2.1882753372192383, -0.6227460503578186, 2.207434892654419, -1.451416015625, 0.281982421875, 0.48291015625, 0, 
231, 1023521552, 0.42079129815101624, -0.4430721700191498, -0.6671490669250488, -0.4260680079460144, 9.366786003112793, 1.9981473684310913, -2.8117904663085938, 2.235994577407837, -0.7273290157318115, 2.0635340213775635, -1.45068359375, 0.28076171875, 0.48291015625, 0, 
232, 1023529885, 0.4207932651042938, -0.4430997669696808, -0.667099118232727, -0.42611566185951233, 9.379517555236816, 2.0291340351104736, -2.8484561443328857, 2.658527135848999, -0.9058602452278137, 1.6495054960250854, -1.455810546875, 0.28125, 0.481201171875, 0, 
233, 1023538218, 0.420783132314682, -0.4431205689907074, -0.6670668721199036, -0.42615440487861633, 9.322122573852539, 1.96748685836792, -2.7901558876037598, 2.7988929748535156, -1.1293699741363525, 1.462623953819275, -1.453857421875, 0.28125, 0.482421875, 0, 
234, 1023546551, 0.4207991063594818, -0.4431155323982239, -0.6670699119567871, -0.4261391758918762, 9.327398300170898, 1.9510321617126465, -2.8690834045410156, 3.8201584815979004, -1.2764214277267456, 1.4730746746063232, -1.456298828125, 0.2822265625, 0.485595703125, 0, 
235, 1023554884, 0.4208698868751526, -0.44305098056793213, -0.6671240329742432, -0.4260517656803131, 9.317973136901855, 1.9678295850753784, -2.8914451599121094, 5.456907749176025, -1.1530119180679321, 1.3564785718917847, -1.451904296875, 0.28125, 0.479248046875, 0, 
236, 1023563217, 0.42100808024406433, -0.44294366240501404, -0.6671873331069946, -0.4259278178215027, 9.340506553649902, 1.9914324283599854, -2.8568837642669678, 6.505964279174805, -0.5674449801445007, 1.5137501955032349, -1.452392578125, 0.286865234375, 0.482177734375, 0, 
237, 1023571550, 0.42111995816230774, -0.44286102056503296, -0.6672395467758179, -0.4258212149143219, 9.357831001281738, 2.0426790714263916, -2.8027546405792236, 5.973368167877197, -0.7768413424491882, 1.5536057949066162, -1.4501953125, 0.277587890625, 0.48046875, 0, 
238, 1023579883, 0.4211869537830353, -0.4428119361400604, -0.6672702431678772, -0.42575785517692566, 9.370272636413574, 2.135201930999756, -2.7853074073791504, 4.9886155128479, -1.0033864974975586, 1.4785687923431396, -1.453857421875, 0.28564453125, 0.48046875, 0, 
239, 1023588216, 0.4212336540222168, -0.44276514649391174, -0.6673017144203186, -0.42571112513542175, 9.374256134033203, 2.1641600131988525, -2.846572160720825, 4.7096638679504395, -1.09937584400177, 1.2803020477294922, -1.451904296875, 0.284912109375, 0.480224609375, 0, 
240, 1023596549, 0.42123734951019287, -0.4427337050437927, -0.6673230528831482, -0.4257067143917084, 9.36996841430664, 2.113081693649292, -2.8376224040985107, 3.905710220336914, -1.2745260000228882, 0.9849954843521118, -1.4521484375, 0.277099609375, 0.483642578125, 0, 
241, 1023604882, 0.4212065041065216, -0.44271641969680786, -0.6673223376274109, -0.4257560968399048, 9.3550386428833, 1.9943102598190308, -2.803138494491577, 2.9970703125, -1.210669755935669, 0.7364860773086548, -1.457763671875, 0.2802734375, 0.489013671875, 0, 
242, 1023613215, 0.42117437720298767, -0.44270989298820496, -0.6673023104667664, -0.4258261024951935, 9.359879493713379, 1.9078571796417236, -2.7888453006744385, 2.617711067199707, -1.0564591884613037, 0.8237666487693787, -1.455810546875, 0.2802734375, 0.48388671875, 0, 
243, 1023621548, 0.42113813757896423, -0.4427150785923004, -0.6672816872596741, -0.42588910460472107, 9.34119701385498, 1.8248698711395264, -2.799731731414795, 2.600459337234497, -1.1937384605407715, 0.952081024646759, -1.45263671875, 0.283935546875, 0.482177734375, 0, 
244, 1023629881, 0.4211074411869049, -0.44272613525390625, -0.667268693447113, -0.42592838406562805, 9.341736793518066, 1.7966015338897705, -2.822944164276123, 2.848405599594116, -1.3731664419174194, 1.1292035579681396, -1.45458984375, 0.281494140625, 0.483154296875, 0, 
245, 1023638214, 0.4211025536060333, -0.44272056221961975, -0.6672672033309937, -0.4259411096572876, 9.383406639099121, 1.822015643119812, -2.845993995666504, 3.428093671798706, -1.258837103843689, 1.2081338167190552, -1.458251953125, 0.283935546875, 0.479248046875, 0, 
246, 1023646547, 0.42112255096435547, -0.442696750164032, -0.6672999262809753, -0.4258947968482971, 9.37308120727539, 1.8996886014938354, -2.839003086090088, 4.411591053009033, -1.4905307292938232, 1.3249475955963135, -1.451904296875, 0.281982421875, 0.483642578125, 0, 
247, 1023654880, 0.4210963547229767, -0.4426679313182831, -0.6673879623413086, -0.4258125424385071, 9.426233291625977, 1.8647143840789795, -2.840000867843628, 4.785225868225098, -2.424349308013916, 0.8838960528373718, -1.454345703125, 0.283935546875, 0.48486328125, 0, 
248, 1023663213, 0.4210183322429657, -0.4426635503768921, -0.6674714088439941, -0.42576363682746887, 9.420573234558105, 1.816635251045227, -2.770169973373413, 4.022331714630127, -2.8118667602539062, 0.6342341303825378, -1.45654296875, 0.27880859375, 0.483154296875, 0, 
249, 1023671546, 0.42090514302253723, -0.44271236658096313, -0.66746985912323, -0.4258272647857666, 9.448216438293457, 1.7749457359313965, -2.8107407093048096, 1.9584389925003052, -2.2680253982543945, 0.7880219221115112, -1.45556640625, 0.285888671875, 0.486083984375, 0, 
250, 1023679879, 0.42077890038490295, -0.4428347647190094, -0.6673570275306702, -0.42600151896476746, 9.458624839782715, 1.7808243036270142, -2.8466970920562744, -0.20046980679035187, -1.503440260887146, 1.4181575775146484, -1.451904296875, 0.28369140625, 0.481689453125, 0, 
251, 1023688212, 0.4206865131855011, -0.4429621994495392, -0.6671984791755676, -0.42620861530303955, 9.450034141540527, 1.78166925907135, -2.8783438205718994, -0.5801752209663391, -0.7467445731163025, 1.7457892894744873, -1.455810546875, 0.283935546875, 0.483642578125, 0, 
252, 1023696545, 0.42066332697868347, -0.44306066632270813, -0.667043924331665, -0.4263710379600525, 9.41965389251709, 1.7677627801895142, -2.8734214305877686, 0.4303959608078003, -0.24911122024059296, 2.1244189739227295, -1.45263671875, 0.28515625, 0.48291015625, 0, 
253, 1023704878, 0.4206768572330475, -0.44313785433769226, -0.666918158531189, -0.4264741837978363, 9.415336608886719, 1.7997030019760132, -2.7860517501831055, 1.4761484861373901, -0.30869001150131226, 2.3178577423095703, -1.455078125, 0.279052734375, 0.487548828125, 0, 
254, 1023713211, 0.4207209348678589, -0.4431798458099365, -0.6668331623077393, -0.4265199601650238, 9.41392993927002, 1.8509682416915894, -2.7685317993164062, 2.6430561542510986, -0.4136827290058136, 2.252413511276245, -1.455810546875, 0.283203125, 0.483154296875, 0, 
255, 1023721544, 0.4208014905452728, -0.443183034658432, -0.6667996048927307, -0.42648959159851074, 9.43200397491455, 1.8855012655258179, -2.701760768890381, 4.060727119445801, -0.6112197637557983, 2.244985342025757, -1.45263671875, 0.2802734375, 0.487548828125, 0, 
256, 1023729877, 0.42088019847869873, -0.44318175315856934, -0.6667826175689697, -0.42643988132476807, 9.419166564941406, 1.9206210374832153, -2.7558095455169678, 4.377575397491455, -0.8166715502738953, 2.1972405910491943, -1.45263671875, 0.283447265625, 0.488037109375, 0, 
257, 1023738210, 0.4209890365600586, -0.44317519664764404, -0.6667513847351074, -0.426388144493103, 9.400140762329102, 1.9260507822036743, -2.8025763034820557, 4.530594825744629, -0.4341997504234314, 2.4265646934509277, -1.451416015625, 0.282958984375, 0.477294921875, 0, 
258, 1023746543, 0.421086847782135, -0.44317272305488586, -0.6667348742485046, -0.42632007598876953, 9.40427017211914, 1.9073055982589722, -2.8686001300811768, 4.673086643218994, -0.7493316531181335, 2.4017698764801025, -1.45263671875, 0.283203125, 0.4853515625, 0, 
259, 1023754876, 0.42118534445762634, -0.4431668221950531, -0.6667359471321106, -0.4262268841266632, 9.389701843261719, 1.9432929754257202, -2.91190242767334, 5.020158767700195, -0.9733024835586548, 2.4141671657562256, -1.455810546875, 0.279541015625, 0.48193359375, 0, 
260, 1023763209, 0.421286016702652, -0.44314053654670715, -0.6667620539665222, -0.42611396312713623, 9.410430908203125, 1.9778090715408325, -2.8908417224884033, 5.490309238433838, -1.103832721710205, 2.2006983757019043, -1.460205078125, 0.28271484375, 0.48193359375, 0, 
261, 1023771542, 0.4214029610157013, -0.4430992603302002, -0.6667871475219727, -0.42600202560424805, 9.375341415405273, 2.011746644973755, -2.876166343688965, 5.648758411407471, -0.8533510565757751, 2.164735794067383, -1.45068359375, 0.283203125, 0.481689453125, 0, 
262, 1023779875, 0.4215542674064636, -0.4430136978626251, -0.6668427586555481, -0.42585432529449463, 9.32502555847168, 2.0232627391815186, -2.8750736713409424, 6.633190155029297, -0.6754088997840881, 1.9739353656768799, -1.454345703125, 0.285888671875, 0.484130859375, 0, 
263, 1023788208, 0.4217565059661865, -0.44290584325790405, -0.6669102311134338, -0.4256606996059418, 9.320283889770508, 2.0692520141601562, -2.8426244258880615, 7.578664302825928, -0.4179091155529022, 2.2609431743621826, -1.453857421875, 0.28125, 0.48046875, 0, 
264, 1023796541, 0.42195066809654236, -0.4428231716156006, -0.6669492721557617, -0.42549315094947815, 9.300606727600098, 2.1164634227752686, -2.8278706073760986, 6.962563514709473, -0.3232644498348236, 2.468033790588379, -1.45751953125, 0.285400390625, 0.489501953125, 0, 
265, 1023804874, 0.4220925271511078, -0.44278863072395325, -0.6669512987136841, -0.42538484930992126, 9.297621726989746, 2.18568754196167, -2.841069459915161, 5.582674026489258, -0.5078406929969788, 2.492265224456787, -1.456787109375, 0.28564453125, 0.47607421875, 0, 
266, 1023813207, 0.4221597909927368, -0.4428083896636963, -0.6669392585754395, -0.4253164529800415, 9.30033016204834, 2.1571054458618164, -2.853365182876587, 4.386719703674316, -1.1877193450927734, 2.400540590286255, -1.44921875, 0.288330078125, 0.4833984375, 0, 
267, 1023821540, 0.4221978783607483, -0.4428367018699646, -0.6669212579727173, -0.4252775013446808, 9.342820167541504, 2.1511635780334473, -2.8020057678222656, 3.8809921741485596, -1.2762165069580078, 2.1688084602355957, -1.45068359375, 0.28759765625, 0.48583984375, 0, 
268, 1023829873, 0.4222409725189209, -0.44285082817077637, -0.6668887138366699, -0.4252709746360779, 9.357741355895996, 2.1428661346435547, -2.8582561016082764, 3.585787773132324, -0.8806301951408386, 1.9735767841339111, -1.456298828125, 0.28466796875, 0.483642578125, 0, 
269, 1023838206, 0.42228609323501587, -0.44285401701927185, -0.6668612360954285, -0.4252660274505615, 9.3583345413208, 2.1062371730804443, -2.9373974800109863, 3.686298370361328, -0.8078601956367493, 1.8406134843826294, -1.452392578125, 0.284912109375, 0.478515625, 0, 
270, 1023846539, 0.4223063290119171, -0.4428293704986572, -0.666861891746521, -0.42527052760124207, 9.331148147583008, 2.048408269882202, -2.9254636764526367, 3.76430606842041, -0.9886581301689148, 1.217534065246582, -1.45361328125, 0.286865234375, 0.48046875, 0, 
271, 1023854872, 0.4222661554813385, -0.4428221881389618, -0.6668809652328491, -0.4252878427505493, 9.351907730102539, 1.956915259361267, -2.9122443199157715, 3.2762396335601807, -1.6677298545837402, 0.8409408926963806, -1.454345703125, 0.286865234375, 0.479736328125, 0, 
272, 1023863205, 0.4221131205558777, -0.4428800046443939, -0.6668874621391296, -0.4253692626953125, 9.343104362487793, 1.8361393213272095, -2.70444393157959, 1.5590615272521973, -2.6253437995910645, 0.4800107479095459, -1.45751953125, 0.283203125, 0.478759765625, 0, 
273, 1023871538, 0.4219116270542145, -0.44298216700553894, -0.6668550372123718, -0.42551371455192566, 9.346999168395996, 1.8203530311584473, -2.67661714553833, 0.19920188188552856, -2.713226079940796, 0.4750927686691284, -1.454345703125, 0.288818359375, 0.480224609375, 0, 
274, 1023879871, 0.421771377325058, -0.4430343508720398, -0.6668469309806824, -0.42561113834381104, 9.345903396606445, 1.888673186302185, -2.723771810531616, 1.438802719116211, -2.2917697429656982, 0.49817121028900146, -1.452392578125, 0.28564453125, 0.477783203125, 0, 
275, 1023888204, 0.42170974612236023, -0.4430289566516876, -0.6668713092803955, -0.42563962936401367, 9.35281753540039, 1.901572346687317, -2.8295371532440186, 3.0789337158203125, -1.8369890451431274, 0.6337986588478088, -1.453125, 0.288330078125, 0.48291015625, 0, 
276, 1023896537, 0.42169538140296936, -0.4429968297481537, -0.6669107675552368, -0.42562538385391235, 9.341782569885254, 1.844736933708191, -2.8528456687927246, 3.998023509979248, -1.6017221212387085, 0.8191432952880859, -1.455078125, 0.287109375, 0.48291015625, 0, 
277, 1023904870, 0.4216882288455963, -0.44295382499694824, -0.6669779419898987, -0.4255722463130951, 9.374727249145508, 1.8299000263214111, -2.8892428874969482, 4.619757175445557, -1.861885905265808, 0.8226523995399475, -1.44873046875, 0.286376953125, 0.4833984375, 0, 
278, 1023913203, 0.42167928814888, -0.44292640686035156, -0.6670591831207275, -0.42548230290412903, 9.383269309997559, 1.846832275390625, -2.766815662384033, 4.9388604164123535, -2.2824718952178955, 1.0792045593261719, -1.454345703125, 0.283203125, 0.48046875, 0, 
279, 1023921536, 0.4216335415840149, -0.4429461658000946, -0.6671121120452881, -0.4254239499568939, 9.408547401428223, 1.8698070049285889, -2.7824769020080566, 3.991210460662842, -2.5338499546051025, 1.2860908508300781, -1.45703125, 0.28515625, 0.484375, 0, 
280, 1023929869, 0.42160698771476746, -0.44295790791511536, -0.6671591401100159, -0.4253641366958618, 9.46475601196289, 1.908710241317749, -2.7573158740997314, 4.130064964294434, -2.2911548614501953, 1.3684149980545044, -1.45556640625, 0.286376953125, 0.481689453125, 0, 
281, 1023938202, 0.42159658670425415, -0.4429541230201721, -0.6672090291976929, -0.42530035972595215, 9.462165832519531, 1.9147841930389404, -2.7523913383483887, 4.353318214416504, -2.0895707607269287, 1.3313511610031128, -1.45751953125, 0.286376953125, 0.483154296875, 0, 
282, 1023946535, 0.42160606384277344, -0.4429473578929901, -0.6672197580337524, -0.4252811074256897, 9.445768356323242, 1.9428290128707886, -2.772336721420288, 3.873128890991211, -1.3941444158554077, 1.396821141242981, -1.4482421875, 0.284423828125, 0.4833984375, 0, 
283, 1023954868, 0.4216362535953522, -0.44293227791786194, -0.6672019362449646, -0.42529481649398804, 9.427801132202148, 1.9899595975875854, -2.8699400424957275, 3.577821731567383, -0.7847816944122314, 1.4228962659835815, -1.453857421875, 0.278076171875, 0.481201171875, 0, 
284, 1023963201, 0.4217122197151184, -0.4428592920303345, -0.6672156453132629, -0.4252741038799286, 9.421102523803711, 2.0160911083221436, -2.875249147415161, 4.6911702156066895, -0.42313438653945923, 1.1676760911941528, -1.45263671875, 0.284423828125, 0.477783203125, 0, 
285, 1023971534, 0.42182669043540955, -0.44273585081100464, -0.667266309261322, -0.425209641456604, 9.383247375488281, 1.9805967807769775, -2.818746566772461, 5.878287315368652, -0.24053047597408295, 0.9487512707710266, -1.45068359375, 0.28759765625, 0.482177734375, 0, 
286, 1023979867, 0.4219321012496948, -0.4426017701625824, -0.6673167943954468, -0.42516547441482544, 9.338025093078613, 1.8962913751602173, -2.767674207687378, 5.656468391418457, -0.15123924612998962, 0.6908159255981445, -1.451171875, 0.284423828125, 0.479736328125, 0, 
287, 1023988200, 0.42197495698928833, -0.4425044655799866, -0.6673431992530823, -0.42518264055252075, 9.366718292236328, 1.8017719984054565, -2.7901625633239746, 4.323554992675781, -0.43066489696502686, 0.46866363286972046, -1.455810546875, 0.283935546875, 0.486328125, 0, 
288, 1023996533, 0.4219624698162079, -0.4424547851085663, -0.6673601865768433, -0.42521992325782776, 9.382683753967285, 1.7876009941101074, -2.826228618621826, 3.506460666656494, -1.038285732269287, 0.5061628818511963, -1.455810546875, 0.282958984375, 0.476806640625, 0, 
289, 1024004866, 0.4219132959842682, -0.44244784116744995, -0.6673682332038879, -0.42526325583457947, 9.356344223022461, 1.7128815650939941, -2.8154351711273193, 2.900094985961914, -1.535330057144165, 0.7088995575904846, -1.453857421875, 0.280029296875, 0.48193359375, 0, 
290, 1024013199, 0.4218426048755646, -0.4424493610858917, -0.6673991084098816, -0.4252833425998688, 9.350622177124023, 1.712700605392456, -2.777738332748413, 3.092636823654175, -2.0560672283172607, 0.6528812050819397, -1.454345703125, 0.28369140625, 0.47802734375, 0, 
291, 1024021532, 0.42178022861480713, -0.4424492120742798, -0.6674537062644958, -0.42525970935821533, 9.385787010192871, 1.708959698677063, -2.7427098751068115, 3.680023193359375, -2.3705592155456543, 0.7995228171348572, -1.459716796875, 0.2783203125, 0.48388671875, 0, 
292, 1024029865, 0.4217093586921692, -0.44247153401374817, -0.6674966216087341, -0.42523932456970215, 9.42968463897705, 1.693625807762146, -2.7125720977783203, 3.412405490875244, -2.4953773021698, 1.0039499998092651, -1.454345703125, 0.288818359375, 0.4833984375, 0, 
293, 1024038198, 0.42163342237472534, -0.44253242015838623, -0.6674999594688416, -0.42524614930152893, 9.434781074523926, 1.757265329360962, -2.7640058994293213, 2.6403920650482178, -2.37604022026062, 1.423613429069519, -1.452392578125, 0.28564453125, 0.48291015625, 0, 
294, 1024046531, 0.4215664863586426, -0.4426213800907135, -0.6674718856811523, -0.4252639710903168, 9.449914932250977, 1.8162459135055542, -2.855173110961914, 2.284123659133911, -2.2064995765686035, 1.8479645252227783, -1.456298828125, 0.283203125, 0.47998046875, 0, 
295, 1024054864, 0.4215227961540222, -0.4427075982093811, -0.6674367785453796, -0.425272673368454, 9.461795806884766, 1.8532288074493408, -2.868391513824463, 2.397850751876831, -2.00199556350708, 2.083000659942627, -1.456298828125, 0.284423828125, 0.47802734375, 0, 
296, 1024063197, 0.42151758074760437, -0.44276612997055054, -0.6674283742904663, -0.4252300560474396, 9.455625534057617, 1.8723722696304321, -2.8153350353240967, 3.5061535835266113, -1.9435954093933105, 2.1602022647857666, -1.45703125, 0.283203125, 0.483642578125, 0, 
297, 1024071530, 0.4215581715106964, -0.44277358055114746, -0.6674373149871826, -0.42516788840293884, 9.459811210632324, 1.890416145324707, -2.8531088829040527, 4.398604869842529, -1.4313619136810303, 1.9586182832717896, -1.453857421875, 0.28515625, 0.483642578125, 0, 
298, 1024079863, 0.42162567377090454, -0.44275566935539246, -0.6674458384513855, -0.42510631680488586, 9.44057559967041, 1.9229238033294678, -2.844505548477173, 4.664633750915527, -1.040924072265625, 1.8921235799789429, -1.45751953125, 0.281982421875, 0.48388671875, 0, 
299, 1024088196, 0.42165812849998474, -0.4427669942378998, -0.6674371361732483, -0.4250759482383728, 9.421506881713867, 1.9363172054290771, -2.760892868041992, 3.8859610557556152, -1.241406798362732, 1.8807508945465088, -1.45947265625, 0.283447265625, 0.48388671875, 0, 
300, 1024096529, 0.4216460883617401, -0.442815363407135, -0.66740882396698, -0.4250820577144623, 9.438441276550293, 1.910961627960205, -2.7706100940704346, 2.9617996215820312, -1.5329221487045288, 1.8668166399002075, -1.458984375, 0.2802734375, 0.485107421875, 0, 
301, 1024104862, 0.421675443649292, -0.4428199231624603, -0.6673804521560669, -0.42509257793426514, 9.427496910095215, 1.9195994138717651, -2.8183364868164062, 3.426377773284912, -0.8642498850822449, 1.6815872192382812, -1.45068359375, 0.2861328125, 0.480224609375, 0, 
302, 1024113195, 0.42175671458244324, -0.44275417923927307, -0.6673731207847595, -0.42509183287620544, 9.398537635803223, 1.9037553071975708, -2.8692398071289062, 4.376755714416504, -0.17385663092136383, 1.2767415046691895, -1.458740234375, 0.28515625, 0.485107421875, 0, 
303, 1024121528, 0.4218900799751282, -0.44262370467185974, -0.6674137711524963, -0.4250319004058838, 9.355368614196777, 1.8719511032104492, -2.8463752269744873, 5.875290870666504, 0.044082097709178925, 1.0441899299621582, -1.45068359375, 0.286865234375, 0.4814453125, 0, 
304, 1024129861, 0.4220274090766907, -0.4424819350242615, -0.6674869060516357, -0.4249284565448761, 9.311503410339355, 1.847904920578003, -2.7795324325561523, 6.571588516235352, -0.3065895736217499, 1.0130430459976196, -1.455078125, 0.28515625, 0.479736328125, 0, 
305, 1024138194, 0.4221195578575134, -0.44238951802253723, -0.6675354242324829, -0.42485684156417847, 9.331016540527344, 1.8749725818634033, -2.7409002780914307, 5.596351623535156, -0.663395881652832, 1.1554325819015503, -1.453125, 0.287109375, 0.484130859375, 0, 
306, 1024146527, 0.42217206954956055, -0.44236207008361816, -0.6675534844398499, -0.42480480670928955, 9.332504272460938, 1.9291094541549683, -2.8051633834838867, 4.596731185913086, -1.1204819679260254, 1.603271722793579, -1.4599609375, 0.288330078125, 0.479248046875, 0, 
307, 1024154860, 0.42219078540802, -0.4423571228981018, -0.6675768494606018, -0.4247545897960663, 9.35092544555664, 2.021822214126587, -2.854017972946167, 4.263591766357422, -1.5797194242477417, 1.5736361742019653, -1.4482421875, 0.28369140625, 0.4814453125, 0, 
308, 1024163193, 0.42218971252441406, -0.442349374294281, -0.6676138043403625, -0.4247055947780609, 9.36684799194336, 2.0113272666931152, -2.8691983222961426, 4.239156246185303, -1.8194944858551025, 1.3383437395095825, -1.456787109375, 0.290283203125, 0.48291015625, 0, 
309, 1024171526, 0.42216965556144714, -0.4423377215862274, -0.667655885219574, -0.42467156052589417, 9.374164581298828, 1.970075011253357, -2.8617846965789795, 4.035651206970215, -1.901869773864746, 1.078154444694519, -1.455810546875, 0.283935546875, 0.48046875, 0, 
310, 1024179859, 0.4221585988998413, -0.44231507182121277, -0.6676998734474182, -0.42463696002960205, 9.37412166595459, 1.967084288597107, -2.882786273956299, 4.174736499786377, -1.7763856649398804, 1.0178072452545166, -1.455078125, 0.287109375, 0.484130859375, 0, 
311, 1024188192, 0.42214739322662354, -0.4422859251499176, -0.6677659153938293, -0.424574613571167, 9.382720947265625, 1.9281680583953857, -2.807158946990967, 4.570706367492676, -2.0377275943756104, 0.9889143705368042, -1.45947265625, 0.28515625, 0.47998046875, 0, 
312, 1024196525, 0.4221026599407196, -0.44229042530059814, -0.6678216457366943, -0.4245268404483795, 9.384361267089844, 1.834641456604004, -2.8148458003997803, 4.002045154571533, -2.3921263217926025, 1.0762590169906616, -1.45068359375, 0.28271484375, 0.4853515625, 0, 
313, 1024204858, 0.4220292270183563, -0.44234979152679443, -0.6678170561790466, -0.42454519867897034, 9.368191719055176, 1.7799144983291626, -2.7027835845947266, 2.5285863876342773, -2.2217659950256348, 1.3977433443069458, -1.454345703125, 0.285888671875, 0.485595703125, 0, 
314, 1024213191, 0.42199966311454773, -0.4423856735229492, -0.6677961945533752, -0.4245699942111969, 9.357757568359375, 1.8848475217819214, -2.803290367126465, 2.797868490219116, -1.550058364868164, 1.4964605569839478, -1.453125, 0.284423828125, 0.48095703125, 0, 
315, 1024221524, 0.4220859408378601, -0.4422975778579712, -0.6678758263587952, -0.42445069551467896, 9.4083890914917, 2.0047831535339355, -2.9211947917938232, 6.036660194396973, -1.2378976345062256, 1.2898048162460327, -1.454345703125, 0.288818359375, 0.48095703125, 0, 
316, 1024229857, 0.4222363829612732, -0.4421389400959015, -0.6680191159248352, -0.42424094676971436, 9.413617134094238, 2.0212154388427734, -2.926821708679199, 8.133543968200684, -1.1401790380477905, 1.1233634948730469, -1.451171875, 0.284423828125, 0.484130859375, 0, 
317, 1024238190, 0.4223242998123169, -0.4420520067214966, -0.6681000590324402, -0.42411646246910095, 9.38531494140625, 1.9870179891586304, -2.823061466217041, 6.1576619148254395, -1.2565189599990845, 1.3101425170898438, -1.458740234375, 0.288330078125, 0.47998046875, 0, 
318, 1024246523, 0.42227816581726074, -0.44210681319236755, -0.6680631637573242, -0.42416346073150635, 9.367799758911133, 2.007025718688965, -2.79535174369812, 2.2907323837280273, -1.584125280380249, 1.541823387145996, -1.45263671875, 0.281494140625, 0.484375, 0, 
319, 1024254856, 0.4221782982349396, -0.44221675395965576, -0.6679811477661133, -0.42427730560302734, 9.409067153930664, 2.0104446411132812, -2.8065266609191895, 0.7243193984031677, -1.7354798316955566, 1.6341369152069092, -1.451904296875, 0.28759765625, 0.48095703125, 0, 
320, 1024263189, 0.4220711588859558, -0.4423198997974396, -0.6679050922393799, -0.42439621686935425, 9.412261009216309, 1.9584929943084717, -2.710113286972046, 0.7494212985038757, -1.7618622779846191, 1.4515074491500854, -1.453857421875, 0.28564453125, 0.48095703125, 0, 
321, 1024271522, 0.42198336124420166, -0.44241461157798767, -0.6678211688995361, -0.4245169162750244, 9.399035453796387, 1.922230839729309, -2.664123058319092, 0.8376367092132568, -1.4754695892333984, 1.5239444971084595, -1.4482421875, 0.284423828125, 0.4833984375, 0, 
322, 1024279855, 0.4219338595867157, -0.4424869418144226, -0.6677334308624268, -0.4246287941932678, 9.385698318481445, 1.890330195426941, -2.7791123390197754, 1.2761266231536865, -1.0296794176101685, 1.6163606643676758, -1.451416015625, 0.281982421875, 0.48681640625, 0, 
323, 1024288188, 0.4219127893447876, -0.4425201117992401, -0.6676801443099976, -0.4246986508369446, 9.379430770874023, 1.8601444959640503, -2.874371290206909, 2.284841299057007, -0.9840862154960632, 1.4483314752578735, -1.454345703125, 0.28515625, 0.48291015625, 0, 
324, 1024296521, 0.42188623547554016, -0.44254270195961, -0.6676604151725769, -0.42473241686820984, 9.388607025146484, 1.8073333501815796, -2.883868455886841, 2.8180785179138184, -1.3984990119934082, 1.332273244857788, -1.454345703125, 0.287109375, 0.482177734375, 0, 
325, 1024304854, 0.4218480885028839, -0.4425727427005768, -0.6676585078239441, -0.4247419238090515, 9.392569541931152, 1.7770484685897827, -2.8370490074157715, 3.025143623352051, -1.7954424619674683, 1.36749267578125, -1.447509765625, 0.28759765625, 0.484619140625, 0, 
326, 1024313187, 0.4218464195728302, -0.44255778193473816, -0.6676967740058899, -0.42469897866249084, 9.388065338134766, 1.782862663269043, -2.859132766723633, 4.230716228485107, -1.7530896663665771, 1.2256540060043335, -1.45556640625, 0.28759765625, 0.48291015625, 0, 
327, 1024321520, 0.42191898822784424, -0.4424930810928345, -0.6677361726760864, -0.42463263869285583, 9.424466133117676, 1.8160370588302612, -2.8083744049072266, 5.178609371185303, -0.9272224307060242, 1.3355774879455566, -1.451904296875, 0.28076171875, 0.48486328125, 0, 
328, 1024329853, 0.42202189564704895, -0.4424133598804474, -0.6677747368812561, -0.4245527982711792, 9.391386985778809, 1.8498563766479492, -2.8707785606384277, 5.584415912628174, -0.6413677334785461, 1.4537615776062012, -1.45361328125, 0.2890625, 0.4853515625, 0, 
329, 1024338186, 0.42217689752578735, -0.44228556752204895, -0.6678528785705566, -0.42440882325172424, 9.381265640258789, 1.9142413139343262, -2.8812553882598877, 6.957927227020264, -0.5066623687744141, 1.458986759185791, -1.456298828125, 0.287109375, 0.48291015625, 0, 
330, 1024346519, 0.4223560690879822, -0.44212213158607483, -0.6679636836051941, -0.42422643303871155, 9.405202865600586, 1.972713828086853, -2.8287901878356934, 7.89579439163208, -0.49633991718292236, 1.2849125862121582, -1.453857421875, 0.28515625, 0.48291015625, 0, 
331, 1024354852, 0.4224626421928406, -0.4420042634010315, -0.6680588126182556, -0.42409345507621765, 9.38788890838623, 2.0043129920959473, -2.7454516887664795, 6.569436073303223, -1.0455602407455444, 1.112477421760559, -1.451171875, 0.288330078125, 0.48583984375, 0, 
332, 1024363185, 0.4224260449409485, -0.4420119822025299, -0.6680975556373596, -0.4240608811378479, 9.351361274719238, 1.9591180086135864, -2.7279698848724365, 3.793442726135254, -2.1457173824310303, 1.1682140827178955, -1.453857421875, 0.28369140625, 0.4765625, 0, 
333, 1024371518, 0.4222745895385742, -0.44212836027145386, -0.6680499911308289, -0.4241652190685272, 9.372161865234375, 1.8989083766937256, -2.7156734466552734, 0.6358733773231506, -2.511104106903076, 1.246286153793335, -1.453857421875, 0.28515625, 0.4853515625, 0, 
334, 1024379851, 0.4221258759498596, -0.4422457814216614, -0.6679789423942566, -0.4243028163909912, 9.407206535339355, 1.9328265190124512, -2.802992343902588, 0.2716901898384094, -2.1430535316467285, 1.2000526189804077, -1.449951171875, 0.28759765625, 0.48388671875, 0, 
335, 1024388184, 0.42207345366477966, -0.4422858655452728, -0.6679719090461731, -0.4243242144584656, 9.388703346252441, 1.9201387166976929, -2.969069480895996, 2.7744574546813965, -1.8763580322265625, 1.3306339979171753, -1.449951171875, 0.288818359375, 0.4794921875, 0, 
336, 1024396517, 0.42213043570518494, -0.4422290623188019, -0.6680271625518799, -0.4242399036884308, 9.385467529296875, 1.9056371450424194, -3.0141820907592773, 5.3082427978515625, -1.3196581602096558, 1.3208749294281006, -1.44921875, 0.286865234375, 0.482666015625, 0, 
337, 1024404850, 0.4222150146961212, -0.4421393573284149, -0.668129026889801, -0.4240886867046356, 9.390250205993652, 1.937739610671997, -2.9596967697143555, 6.598969459533691, -1.5423740148544312, 1.2700817584991455, -1.449951171875, 0.288330078125, 0.484619140625, 0, 
338, 1024413183, 0.4222841262817383, -0.44205886125564575, -0.6682347059249878, -0.4239373803138733, 9.383460998535156, 1.9462058544158936, -2.832811117172241, 6.430453300476074, -1.7708274126052856, 1.2563270330429077, -1.45703125, 0.28466796875, 0.48681640625, 0, 
339, 1024421516, 0.4223529100418091, -0.4419901371002197, -0.6683124899864197, -0.42381754517555237, 9.360036849975586, 1.9468966722488403, -2.8245849609375, 5.892068386077881, -1.4857155084609985, 1.3503825664520264, -1.4560546875, 0.29150390625, 0.484130859375, 0, 
340, 1024429849, 0.42245420813560486, -0.44191795587539673, -0.6683721542358398, -0.4236977994441986, 9.385734558105469, 1.96792471408844, -2.8642780780792236, 6.019217014312744, -1.0642585754394531, 1.6169496774673462, -1.453857421875, 0.284912109375, 0.479248046875, 0, 
341, 1024438182, 0.4225288927555084, -0.4418790936470032, -0.6683875322341919, -0.423639714717865, 9.393511772155762, 1.9417154788970947, -2.828402280807495, 4.832586288452148, -0.8671058416366577, 1.6808316707611084, -1.458740234375, 0.288330078125, 0.486328125, 0, 
342, 1024446515, 0.4225653409957886, -0.4418899416923523, -0.6683472394943237, -0.4236557185649872, 9.35360336303711, 1.8938004970550537, -2.7769765853881836, 3.3103580474853516, -0.7381893396377563, 1.8202242851257324, -1.458251953125, 0.28466796875, 0.48388671875, 0, 
343, 1024454848, 0.42257195711135864, -0.4419305622577667, -0.6682838797569275, -0.4237062931060791, 9.353846549987793, 1.9335802793502808, -2.833425521850586, 2.5402917861938477, -0.830144464969635, 1.8469655513763428, -1.454345703125, 0.284423828125, 0.483642578125, 0, 
344, 1024463181, 0.4225721061229706, -0.4419817626476288, -0.668228268623352, -0.423740416765213, 9.370741844177246, 2.0067851543426514, -2.879753828048706, 2.602201461791992, -1.1083661317825317, 1.9674291610717773, -1.453125, 0.288818359375, 0.478515625, 0, 
345, 1024471514, 0.42256590723991394, -0.44204407930374146, -0.6681874394416809, -0.42374593019485474, 9.372318267822266, 1.9935662746429443, -2.8525290489196777, 2.7917463779449463, -1.496652364730835, 2.124213933944702, -1.454345703125, 0.28759765625, 0.483642578125, 0, 
346, 1024479847, 0.4225584864616394, -0.4421009123325348, -0.6681612133979797, -0.4237355589866638, 9.378772735595703, 1.9939619302749634, -2.8355937004089355, 3.1020116806030273, -1.6512856483459473, 2.054953098297119, -1.456298828125, 0.285888671875, 0.485595703125, 0, 
347, 1024488180, 0.42255887389183044, -0.4421280026435852, -0.6681485176086426, -0.4237269163131714, 9.392330169677734, 1.9324195384979248, -2.858966112136841, 3.4148898124694824, -1.4637893438339233, 1.7263481616973877, -1.451416015625, 0.281494140625, 0.485595703125, 0, 
348, 1024496513, 0.42253971099853516, -0.4421639144420624, -0.6681169867515564, -0.4237581789493561, 9.380311012268066, 1.8835244178771973, -2.7976462841033936, 2.7409279346466064, -1.3545703887939453, 1.5842660665512085, -1.456298828125, 0.288330078125, 0.48046875, 0, 
349, 1024504846, 0.4225231111049652, -0.4422243535518646, -0.6680400967597961, -0.4238330125808716, 9.376827239990234, 1.9294421672821045, -2.776165246963501, 2.086817502975464, -0.9122382402420044, 1.8081344366073608, -1.45556640625, 0.284423828125, 0.483154296875, 0, 
350, 1024513179, 0.4225004315376282, -0.4422801434993744, -0.6679855585098267, -0.4238833785057068, 9.37682819366455, 1.9543969631195068, -2.8953731060028076, 2.2932682037353516, -1.252190351486206, 1.7753995656967163, -1.45556640625, 0.288818359375, 0.483642578125, 0, 
351, 1024521512, 0.422499418258667, -0.4422922432422638, -0.667973518371582, -0.4238908588886261, 9.397953987121582, 1.9479538202285767, -2.9228549003601074, 3.2867157459259033, -1.3056981563568115, 1.5010452270507812, -1.453125, 0.290771484375, 0.484619140625, 0, 
352, 1024529845, 0.4224678874015808, -0.4423089921474457, -0.6679786443710327, -0.42389675974845886, 9.367445945739746, 1.8765718936920166, -2.8591220378875732, 3.222860097885132, -1.7229286432266235, 1.2602204084396362, -1.456298828125, 0.28515625, 0.484375, 0, 
353, 1024538178, 0.4223847985267639, -0.4423438310623169, -0.6680037975311279, -0.42390352487564087, 9.377768516540527, 1.8218750953674316, -2.7792367935180664, 2.9449453353881836, -2.40152645111084, 0.9884020090103149, -1.45556640625, 0.2919921875, 0.482177734375, 0, 
354, 1024546511, 0.42229247093200684, -0.4423953890800476, -0.6680275201797485, -0.42390432953834534, 9.381464958190918, 1.7846215963363647, -2.832655429840088, 2.804835081100464, -2.6239089965820312, 1.1439571380615234, -1.454345703125, 0.284423828125, 0.48291015625, 0, 
355, 1024554844, 0.42225319147109985, -0.4424343407154083, -0.6680300831794739, -0.42389869689941406, 9.386544227600098, 1.7842620611190796, -2.848846912384033, 3.1720666885375977, -1.964240312576294, 1.4889553785324097, -1.45361328125, 0.290771484375, 0.48095703125, 0, 
356, 1024563177, 0.4222604036331177, -0.44244715571403503, -0.6680412292480469, -0.42386043071746826, 9.411628723144531, 1.826045274734497, -2.818819522857666, 3.923396348953247, -1.6479686498641968, 1.6692413091659546, -1.453125, 0.288818359375, 0.480224609375, 0, 
357, 1024571510, 0.4222765266895294, -0.4424542784690857, -0.6680614352226257, -0.4238050878047943, 9.414302825927734, 1.8567832708358765, -2.8336377143859863, 4.189541339874268, -1.69203782081604, 1.7227109670639038, -1.45556640625, 0.288818359375, 0.482177734375, 0, 
358, 1024579843, 0.4222870469093323, -0.44247132539749146, -0.6680757403373718, -0.42375433444976807, 9.43103313446045, 1.935942530632019, -2.825092315673828, 4.050097465515137, -1.7368630170822144, 1.7816494703292847, -1.45703125, 0.28466796875, 0.48681640625, 0, 
359, 1024588176, 0.4223080575466156, -0.44247978925704956, -0.6680771112442017, -0.42372238636016846, 9.424419403076172, 1.9747650623321533, -2.8532674312591553, 3.9040708541870117, -1.3949129581451416, 1.734519362449646, -1.451904296875, 0.28955078125, 0.482666015625, 0, 
360, 1024596509, 0.4223499298095703, -0.44247138500213623, -0.6680648326873779, -0.4237087368965149, 9.410551071166992, 2.029252767562866, -2.8953304290771484, 3.8920578956604004, -0.9194869995117188, 1.6777582168579102, -1.453125, 0.2890625, 0.486083984375, 0, 
361, 1024604842, 0.422404408454895, -0.4424419701099396, -0.6680766344070435, -0.42366650700569153, 9.40810489654541, 2.0049264430999756, -2.882476806640625, 4.4461445808410645, -1.000069499015808, 1.5901318788528442, -1.451171875, 0.288330078125, 0.482666015625, 0, 
362, 1024613175, 0.42247411608695984, -0.4424036741256714, -0.6680715084075928, -0.42364510893821716, 9.393089294433594, 1.978050708770752, -2.813552141189575, 4.348913192749023, -0.5790482759475708, 1.565695881843567, -1.453125, 0.286865234375, 0.479736328125, 0, 
363, 1024621508, 0.422499418258667, -0.4424082636833191, -0.6680409908294678, -0.4236631989479065, 9.400611877441406, 1.9196289777755737, -2.7744388580322266, 3.316889524459839, -0.8436176180839539, 1.6244546175003052, -1.449951171875, 0.2880859375, 0.478271484375, 0, 
364, 1024629841, 0.42246514558792114, -0.4424508512020111, -0.6679931282997131, -0.42372846603393555, 9.379105567932129, 1.8590420484542847, -2.7821044921875, 2.2017228603363037, -1.2304952144622803, 1.4608055353164673, -1.45556640625, 0.28759765625, 0.48291015625, 0, 
365, 1024638174, 0.42243194580078125, -0.4424878656864166, -0.6679419279098511, -0.4238036870956421, 9.389374732971191, 1.8369419574737549, -2.8643178939819336, 2.136047601699829, -1.1009893417358398, 1.3740755319595337, -1.45703125, 0.284423828125, 0.48193359375, 0, 
366, 1024646507, 0.4224183261394501, -0.4424976110458374, -0.6679052114486694, -0.4238649010658264, 9.363259315490723, 1.764971375465393, -2.816244125366211, 2.621258497238159, -0.9388258457183838, 1.2352209091186523, -1.45361328125, 0.289794921875, 0.488525390625, 0, 
367, 1024654840, 0.4223916232585907, -0.4425167739391327, -0.6678717732429504, -0.42392414808273315, 9.355582237243652, 1.739728331565857, -2.783838987350464, 2.654172420501709, -1.1112350225448608, 1.1939563751220703, -1.449951171875, 0.288818359375, 0.480224609375, 0, 
368, 1024663173, 0.4224081337451935, -0.44251748919487, -0.6678476929664612, -0.4239449203014374, 9.343301773071289, 1.761366844177246, -2.804879665374756, 3.3003170490264893, -0.9285544157028198, 1.4853438138961792, -1.45068359375, 0.286865234375, 0.47900390625, 0, 
369, 1024671506, 0.4224523901939392, -0.4425170421600342, -0.6678506731987, -0.4238966107368469, 9.357908248901367, 1.8174763917922974, -2.8246498107910156, 4.394737243652344, -1.2160744667053223, 1.8341331481933594, -1.45361328125, 0.293212890625, 0.484619140625, 0, 
370, 1024679839, 0.422502338886261, -0.4425124526023865, -0.6678798794746399, -0.4238055646419525, 9.393919944763184, 1.895099401473999, -2.893599510192871, 4.872646808624268, -1.5793737173080444, 1.9566969871520996, -1.45751953125, 0.285888671875, 0.482421875, 0, 
371, 1024688172, 0.42257171869277954, -0.44249415397644043, -0.6679062843322754, -0.4237140715122223, 9.395191192626953, 2.0058085918426514, -2.901561975479126, 5.031096458435059, -1.3075170516967773, 1.9696065187454224, -1.45166015625, 0.2939453125, 0.48193359375, 0, 
372, 1024696505, 0.4226248860359192, -0.44246014952659607, -0.667972981929779, -0.4235914349555969, 9.41712760925293, 2.074855089187622, -2.889749526977539, 5.571633815765381, -1.7902175188064575, 1.6592389345169067, -1.454345703125, 0.28955078125, 0.48095703125, 0, 
373, 1024704838, 0.42270389199256897, -0.44238200783729553, -0.6680609583854675, -0.42345523834228516, 9.3959321975708, 2.0537338256835938, -2.9172468185424805, 6.211246967315674, -1.497958779335022, 1.358425259590149, -1.45361328125, 0.28759765625, 0.481689453125, 0, 
374, 1024713171, 0.422809362411499, -0.4422791600227356, -0.6681398153305054, -0.4233330488204956, 9.39629077911377, 2.025866746902466, -2.8849384784698486, 6.357452869415283, -0.9767347574234009, 1.2564294338226318, -1.454833984375, 0.288818359375, 0.479736328125, 0, 
375, 1024721504, 0.4229370951652527, -0.442155122756958, -0.6682057976722717, -0.42323076725006104, 9.370086669921875, 1.9738868474960327, -2.8770086765289307, 6.272336959838867, -0.46270835399627686, 1.1755908727645874, -1.454345703125, 0.2900390625, 0.479736328125, 0, 
376, 1024729837, 0.42305833101272583, -0.4420490264892578, -0.6682571768760681, -0.42313921451568604, 9.380280494689941, 1.971031665802002, -2.888699769973755, 6.030539035797119, -0.46647369861602783, 1.3066591024398804, -1.454833984375, 0.288818359375, 0.48095703125, 0, 
377, 1024738170, 0.4231594502925873, -0.4419671893119812, -0.6683032512664795, -0.423051118850708, 9.347269058227539, 1.9394347667694092, -2.841534376144409, 5.665356636047363, -0.7397263646125793, 1.4330909252166748, -1.458251953125, 0.28662109375, 0.48486328125, 0, 
378, 1024746503, 0.4232252240180969, -0.4419233202934265, -0.668321430683136, -0.42300230264663696, 9.347529411315918, 1.9551135301589966, -2.829103708267212, 4.746624946594238, -0.8854969143867493, 1.5094724893569946, -1.454345703125, 0.287109375, 0.482177734375, 0, 
379, 1024754836, 0.423258513212204, -0.44192638993263245, -0.668308436870575, -0.42298623919487, 9.345001220703125, 1.9095407724380493, -2.780850410461426, 3.568805694580078, -1.1150004863739014, 1.8157932758331299, -1.450439453125, 0.293701171875, 0.480712890625, 0, 
380, 1024763169, 0.42322850227355957, -0.44200190901756287, -0.6682502031326294, -0.4230293333530426, 9.357335090637207, 1.8584870100021362, -2.7836925983428955, 2.179719924926758, -1.4564125537872314, 1.9785971641540527, -1.4580078125, 0.2890625, 0.484375, 0, 
381, 1024771502, 0.4231828451156616, -0.4421132504940033, -0.6681511402130127, -0.423115074634552, 9.367396354675293, 1.8676457405090332, -2.7865397930145264, 1.0464951992034912, -1.3454773426055908, 2.2799744606018066, -1.451171875, 0.292724609375, 0.48388671875, 0, 
382, 1024779835, 0.42313188314437866, -0.4422476291656494, -0.6680478453636169, -0.423188716173172, 9.385866165161133, 1.864326000213623, -2.8621649742126465, 1.1653965711593628, -1.5430397987365723, 2.4935455322265625, -1.458740234375, 0.2900390625, 0.479248046875, 0, 
383, 1024788168, 0.4230943024158478, -0.4423803389072418, -0.6679474115371704, -0.42324626445770264, 9.373335838317871, 1.8529924154281616, -2.8756916522979736, 1.5036453008651733, -1.503171443939209, 2.607593297958374, -1.4560546875, 0.2939453125, 0.484619140625, 0, 
384, 1024796501, 0.42306241393089294, -0.4425051510334015, -0.6678447723388672, -0.4233096241950989, 9.382317543029785, 1.8912365436553955, -2.904444694519043, 1.4364975690841675, -1.378775954246521, 2.5717718601226807, -1.450439453125, 0.29345703125, 0.489013671875, 0, 
385, 1024804834, 0.42300188541412354, -0.44265541434288025, -0.6677378416061401, -0.4233815670013428, 9.41917610168457, 1.9405821561813354, -2.8786838054656982, 1.0304861068725586, -1.7058182954788208, 2.608860731124878, -1.456298828125, 0.290283203125, 0.483642578125, 0, 
386, 1024813167, 0.42291775345802307, -0.4428214430809021, -0.6676178574562073, -0.4234813451766968, 9.411382675170898, 1.9614650011062622, -2.858973503112793, 0.44386905431747437, -1.775463581085205, 2.5406758785247803, -1.45556640625, 0.2919921875, 0.48291015625, 0, 
387, 1024821500, 0.42281678318977356, -0.4429986774921417, -0.6674870848655701, -0.4236029088497162, 9.42743968963623, 1.924641489982605, -2.810971736907959, -0.028751978650689125, -1.8029987812042236, 2.497157573699951, -1.44677734375, 0.288330078125, 0.486328125, 0, 
388, 1024829833, 0.422737181186676, -0.4431472420692444, -0.6673669815063477, -0.4237161874771118, 9.437342643737793, 1.8833016157150269, -2.796628475189209, 0.447916179895401, -1.549085021018982, 2.3294098377227783, -1.4560546875, 0.29150390625, 0.4833984375, 0, 
389, 1024838166, 0.42272552847862244, -0.44323429465293884, -0.6672856211662292, -0.42376482486724854, 9.397122383117676, 1.8492826223373413, -2.785931348800659, 2.0467309951782227, -1.1799837350845337, 2.2993133068084717, -1.44921875, 0.28955078125, 0.484619140625, 0, 
390, 1024846499, 0.4227769374847412, -0.4432598352432251, -0.6672561764717102, -0.4237332046031952, 9.383336067199707, 1.8424850702285767, -2.765329360961914, 3.8192620277404785, -1.040334939956665, 2.2538223266601562, -1.45166015625, 0.290771484375, 0.480224609375, 0, 
391, 1024854832, 0.422857403755188, -0.4432530105113983, -0.6672526597976685, -0.42366552352905273, 9.364161491394043, 1.8726543188095093, -2.8441004753112793, 4.689300537109375, -0.9453574419021606, 2.1703200340270996, -1.45361328125, 0.28955078125, 0.484619140625, 0, 
392, 1024863165, 0.4229486882686615, -0.44323861598968506, -0.6672549247741699, -0.4235859215259552, 9.386259078979492, 1.9035612344741821, -2.8919754028320312, 4.919623851776123, -0.9183599352836609, 2.2046685218811035, -1.452880859375, 0.29248046875, 0.4814453125, 0, 
393, 1024871498, 0.42302802205085754, -0.44322332739830017, -0.6672635078430176, -0.42350924015045166, 9.374715805053711, 1.9198795557022095, -2.865657091140747, 4.854127883911133, -1.0412570238113403, 2.0758543014526367, -1.451171875, 0.2900390625, 0.4833984375, 0, 
394, 1024879831, 0.42309239506721497, -0.44320130348205566, -0.6672784090042114, -0.4234444797039032, 9.377168655395508, 1.9146403074264526, -2.8146402835845947, 4.7367377281188965, -1.103704571723938, 1.814998984336853, -1.452392578125, 0.290771484375, 0.484130859375, 0, 
395, 1024888164, 0.4231300950050354, -0.4431855380535126, -0.6673057079315186, -0.4233802258968353, 9.38392162322998, 1.9018135070800781, -2.7936065196990967, 4.598830699920654, -1.4504187107086182, 1.6405917406082153, -1.454345703125, 0.2900390625, 0.48291015625, 0, 
396, 1024896497, 0.42314568161964417, -0.44316744804382324, -0.6673370599746704, -0.42333415150642395, 9.411856651306152, 1.8388173580169678, -2.7493417263031006, 4.3416900634765625, -1.5567691326141357, 1.3576058149337769, -1.458740234375, 0.291015625, 0.485595703125, 0, 
397, 1024904830, 0.4231445789337158, -0.4431663751602173, -0.6673395037651062, -0.42333245277404785, 9.392577171325684, 1.8182806968688965, -2.757526397705078, 3.553590774536133, -1.3674542903900146, 1.3395987749099731, -1.45556640625, 0.2919921875, 0.482177734375, 0, 
398, 1024913163, 0.4231480360031128, -0.44317230582237244, -0.6673378944396973, -0.4233253002166748, 9.383843421936035, 1.85146963596344, -2.7705321311950684, 3.57883358001709, -1.3785581588745117, 1.4811558723449707, -1.45556640625, 0.290771484375, 0.48095703125, 0, 
399, 1024921496, 0.423208087682724, -0.44315290451049805, -0.6673628687858582, -0.4232463538646698, 9.3617582321167, 1.9197567701339722, -2.838397264480591, 4.945596218109131, -1.2866413593292236, 1.8159725666046143, -1.452392578125, 0.290771484375, 0.480224609375, 0, 
400, 1024929829, 0.4233291447162628, -0.44306835532188416, -0.6674277782440186, -0.4231114387512207, 9.38394546508789, 1.9398818016052246, -2.924609661102295, 6.381556034088135, -0.9378266930580139, 1.6741206645965576, -1.4560546875, 0.293701171875, 0.47900390625, 0, 
401, 1024938162, 0.42346033453941345, -0.4429827332496643, -0.6674797534942627, -0.422987699508667, 9.396330833435059, 1.9386392831802368, -2.9116358757019043, 6.24746561050415, -0.6952087879180908, 1.7447137832641602, -1.4541015625, 0.29443359375, 0.4814453125, 0, 
402, 1024946495, 0.4235316216945648, -0.4429512917995453, -0.6674758195877075, -0.4229554831981659, 9.402941703796387, 1.9892609119415283, -2.918494701385498, 4.427343845367432, -0.6777142882347107, 1.6934082508087158, -1.4560546875, 0.2939453125, 0.482177734375, 0, 
403, 1024954828, 0.42356646060943604, -0.44294941425323486, -0.6674484610557556, -0.42296573519706726, 9.394627571105957, 2.0077083110809326, -2.8789119720458984, 3.4973418712615967, -0.7856525778770447, 1.6498383283615112, -1.452880859375, 0.295166015625, 0.482666015625, 0, 
404, 1024963161, 0.42355334758758545, -0.4429800510406494, -0.6674038767814636, -0.42301705479621887, 9.426823616027832, 1.9521516561508179, -2.815800666809082, 2.547079563140869, -1.0673580169677734, 1.53360116481781, -1.452880859375, 0.296875, 0.480712890625, 0, 
405, 1024971494, 0.42350831627845764, -0.4430457055568695, -0.6673354506492615, -0.4231016933917999, 9.454766273498535, 1.8876559734344482, -2.7769997119903564, 1.5864943265914917, -1.240074634552002, 1.6543464660644531, -1.452392578125, 0.29150390625, 0.484619140625, 0, 
406, 1024979827, 0.4234851598739624, -0.44312426447868347, -0.6672363877296448, -0.42319872975349426, 9.410467147827148, 1.8469951152801514, -2.7843642234802246, 1.4704620838165283, -0.8427467942237854, 1.9802366495132446, -1.449951171875, 0.290771484375, 0.482666015625, 0, 
407, 1024988160, 0.42351582646369934, -0.4431677758693695, -0.6671532392501831, -0.4232533872127533, 9.382051467895508, 1.854663372039795, -2.8115644454956055, 2.426180362701416, -0.500694215297699, 2.1376357078552246, -1.45166015625, 0.292724609375, 0.482666015625, 0, 
408, 1024996493, 0.4236147701740265, -0.44315287470817566, -0.6671158671379089, -0.423228919506073, 9.370996475219727, 1.8667142391204834, -2.8272929191589355, 4.232778072357178, -0.27948975563049316, 2.165273904800415, -1.450439453125, 0.290771484375, 0.480712890625, 0, 
409, 1025004826, 0.42375752329826355, -0.44308242201805115, -0.6671450734138489, -0.42311376333236694, 9.348602294921875, 1.892982006072998, -2.8435070514678955, 6.037402629852295, -0.4892958700656891, 2.035383701324463, -1.452392578125, 0.291259765625, 0.47900390625, 0, 
410, 1025013159, 0.4238966107368469, -0.443011611700058, -0.6672001481056213, -0.4229618012905121, 9.342609405517578, 1.876826524734497, -2.8904805183410645, 6.5094990730285645, -0.9001994132995605, 2.0649683475494385, -1.44970703125, 0.294677734375, 0.487060546875, 0, 
411, 1025021492, 0.42402008175849915, -0.44295525550842285, -0.6672394871711731, -0.422834575176239, 9.349483489990234, 1.903340458869934, -2.897662878036499, 5.999340057373047, -0.8838063478469849, 2.0611772537231445, -1.455078125, 0.288330078125, 0.4853515625, 0, 
412, 1025029825, 0.4241141378879547, -0.44291678071022034, -0.6672514081001282, -0.4227617681026459, 9.342674255371094, 1.9520466327667236, -2.8780860900878906, 5.069198131561279, -0.766941487789154, 1.9024845361709595, -1.4541015625, 0.293212890625, 0.47900390625, 0, 
413, 1025038158, 0.4241974353790283, -0.44288015365600586, -0.6672288179397583, -0.42275258898735046, 9.34528923034668, 1.9543323516845703, -2.797525405883789, 4.115170001983643, -0.30363112688064575, 1.722672700881958, -1.456787109375, 0.2958984375, 0.4833984375, 0, 
414, 1025046491, 0.42423632740974426, -0.4428708255290985, -0.6671816110610962, -0.422797828912735, 9.335036277770996, 1.9261245727539062, -2.7638041973114014, 3.137155055999756, -0.37943652272224426, 1.5215882062911987, -1.454345703125, 0.291259765625, 0.48095703125, 0, 
415, 1025054824, 0.4242214262485504, -0.4428843557834625, -0.6671282052993774, -0.42288273572921753, 9.361141204833984, 1.9581859111785889, -2.7614877223968506, 2.2251856327056885, -0.7322981953620911, 1.2369883060455322, -1.454345703125, 0.28955078125, 0.48095703125, 0, 
416, 1025063157, 0.42413145303726196, -0.4429479241371155, -0.6670642495155334, -0.42300713062286377, 9.390604019165039, 1.9856120347976685, -2.7071802616119385, 1.1045753955841064, -1.406477451324463, 1.080626130104065, -1.454833984375, 0.294921875, 0.475830078125, 0, 
417, 1025071490, 0.4239516258239746, -0.44305965304374695, -0.6670096516609192, -0.42315638065338135, 9.39779281616211, 1.9053497314453125, -2.7472496032714844, 0.15371103584766388, -2.3987858295440674, 0.7781349420547485, -1.452392578125, 0.293212890625, 0.480224609375, 0, 
418, 1025079823, 0.4237903952598572, -0.4431472718715668, -0.6669501662254333, -0.423319935798645, 9.380871772766113, 1.7930207252502441, -2.7830657958984375, 0.1970503181219101, -1.9862685203552246, 0.6308273673057556, -1.449951171875, 0.2861328125, 0.480224609375, 0, 
419, 1025088156, 0.4237404465675354, -0.4431608319282532, -0.6669177412986755, -0.4234069585800171, 9.387754440307617, 1.7772771120071411, -2.882175922393799, 2.1258788108825684, -1.1645382642745972, 0.8927329182624817, -1.454345703125, 0.290283203125, 0.484130859375, 0, 
420, 1025096489, 0.4237844944000244, -0.4430968463420868, -0.6669546961784363, -0.42337170243263245, 9.378971099853516, 1.8252413272857666, -2.9301950931549072, 4.714735984802246, -0.9942805767059326, 1.0066394805908203, -1.45751953125, 0.290771484375, 0.482421875, 0, 
421, 1025104822, 0.4238525927066803, -0.4430184066295624, -0.6670418977737427, -0.4232483208179474, 9.38723373413086, 1.815400242805481, -2.8747339248657227, 5.927236557006836, -1.540222406387329, 1.256070852279663, -1.455322265625, 0.29638671875, 0.478271484375, 0, 
422, 1025113155, 0.4238662123680115, -0.44301310181617737, -0.6670794486999512, -0.4231809973716736, 9.42707633972168, 1.811023473739624, -2.781589984893799, 4.485308647155762, -1.8128602504730225, 1.5507625341415405, -1.456787109375, 0.292724609375, 0.48291015625, 0, 
423, 1025121488, 0.42383870482444763, -0.44306373596191406, -0.6670588850975037, -0.42318764328956604, 9.434052467346191, 1.80344820022583, -2.7325079441070557, 2.8731229305267334, -1.731022834777832, 1.7549848556518555, -1.45361328125, 0.295654296875, 0.478759765625, 0, 
424, 1025129821, 0.4238128960132599, -0.44312143325805664, -0.6670190095901489, -0.4232160151004791, 9.477895736694336, 1.8174034357070923, -2.744816541671753, 2.549205780029297, -1.5086913108825684, 1.8136160373687744, -1.453125, 0.290771484375, 0.4833984375, 0, 
425, 1025138154, 0.4238113760948181, -0.4431668519973755, -0.6669719219207764, -0.42324405908584595, 9.48165225982666, 1.7966452836990356, -2.782125234603882, 2.75783371925354, -1.1633858680725098, 1.87693452835083, -1.4560546875, 0.295654296875, 0.48095703125, 0, 
426, 1025146487, 0.4238535463809967, -0.44317591190338135, -0.6669430136680603, -0.4232379198074341, 9.461545944213867, 1.7876124382019043, -2.8045010566711426, 3.628589153289795, -0.8772746920585632, 1.8964265584945679, -1.454345703125, 0.2919921875, 0.478271484375, 0, 
427, 1025154820, 0.42392244935035706, -0.44316333532333374, -0.6669310331344604, -0.4232010543346405, 9.458931922912598, 1.7629077434539795, -2.8395774364471436, 4.3021416664123535, -0.7870358228683472, 1.9280601739883423, -1.45361328125, 0.294921875, 0.476318359375, 0, 
428, 1025163153, 0.4239922761917114, -0.44314706325531006, -0.6669185757637024, -0.423167884349823, 9.433168411254883, 1.7684029340744019, -2.8164403438568115, 4.2886433601379395, -0.7368575930595398, 1.8834917545318604, -1.4541015625, 0.295166015625, 0.480712890625, 0, 
429, 1025171486, 0.4240398108959198, -0.4431479573249817, -0.6668851375579834, -0.4231720268726349, 9.414536476135254, 1.7788256406784058, -2.8187592029571533, 3.467578172683716, -0.7091428637504578, 1.8521395921707153, -1.454833984375, 0.291259765625, 0.478515625, 0, 
430, 1025179819, 0.42405226826667786, -0.44319918751716614, -0.6668087244033813, -0.42322635650634766, 9.40965461730957, 1.7913767099380493, -2.767162561416626, 2.3694193363189697, -0.7490242719650269, 2.046628713607788, -1.455322265625, 0.295166015625, 0.482177734375, 0, 
431, 1025188152, 0.42403653264045715, -0.44330447912216187, -0.6666867733001709, -0.42332398891448975, 9.410823822021484, 1.8324662446975708, -2.734631061553955, 1.389316201210022, -0.7564525008201599, 2.353794574737549, -1.456787109375, 0.292724609375, 0.480224609375, 0, 
432, 1025196485, 0.4240086078643799, -0.44342973828315735, -0.666562020778656, -0.4234173595905304, 9.388572692871094, 1.821564793586731, -2.7471306324005127, 1.0528987646102905, -1.0290391445159912, 2.558016777038574, -1.456787109375, 0.2939453125, 0.482177734375, 0, 
433, 1025204818, 0.4239811897277832, -0.44355037808418274, -0.6664514541625977, -0.4234922528266907, 9.402552604675293, 1.851577877998352, -2.78603458404541, 1.3240255117416382, -1.1915358304977417, 2.5435702800750732, -1.453125, 0.28955078125, 0.48291015625, 0, 
434, 1025213151, 0.4239591658115387, -0.44366273283958435, -0.6663545966148376, -0.4235490560531616, 9.365018844604492, 1.8622256517410278, -2.834317684173584, 1.660775899887085, -1.2873586416244507, 2.5169572830200195, -1.4560546875, 0.293212890625, 0.478515625, 0, 
435, 1025221484, 0.42394155263900757, -0.44375061988830566, -0.6662858128547668, -0.4235829710960388, 9.377664566040039, 1.8742711544036865, -2.81118106842041, 2.2306158542633057, -1.397525429725647, 2.2710347175598145, -1.4580078125, 0.2939453125, 0.479736328125, 0, 
436, 1025229817, 0.4239422380924225, -0.44380366802215576, -0.6662563681602478, -0.42357301712036133, 9.361056327819824, 1.8718501329421997, -2.791313886642456, 3.149782419204712, -1.5323331356048584, 2.084435224533081, -1.452392578125, 0.293701171875, 0.47509765625, 0, 
437, 1025238150, 0.4239489734172821, -0.44380804896354675, -0.666286826133728, -0.42351362109184265, 9.37309741973877, 1.8919826745986938, -2.8632123470306396, 4.275400161743164, -1.844288945198059, 1.5953059196472168, -1.453125, 0.290771484375, 0.482177734375, 0, 
438, 1025246483, 0.4239664375782013, -0.4437894821166992, -0.6663448214530945, -0.4234244227409363, 9.362872123718262, 1.8907995223999023, -2.84924578666687, 4.903512477874756, -1.9553266763687134, 1.454939842224121, -1.450927734375, 0.295166015625, 0.483154296875, 0, 
439, 1025254816, 0.4239684045314789, -0.4437786042690277, -0.6663869023323059, -0.42336753010749817, 9.414609909057617, 1.8656158447265625, -2.8417632579803467, 4.393148899078369, -1.8463126420974731, 1.3356287479400635, -1.4541015625, 0.293212890625, 0.48095703125, 0, 
440, 1025263149, 0.42395004630088806, -0.4437805712223053, -0.6664122939109802, -0.4233438968658447, 9.38562297821045, 1.8736950159072876, -2.839226245880127, 3.7763326168060303, -1.8132447004318237, 1.2501283884048462, -1.454833984375, 0.2919921875, 0.482177734375, 0, 
441, 1025271482, 0.4239213466644287, -0.44377946853637695, -0.6664363741874695, -0.4233357906341553, 9.425477027893066, 1.86870539188385, -2.812469244003296, 3.5502097606658936, -1.7926762104034424, 1.0870168209075928, -1.454833984375, 0.29248046875, 0.4765625, 0, 
442, 1025279815, 0.42387890815734863, -0.4437905550003052, -0.6664682626724243, -0.42331644892692566, 9.434734344482422, 1.8705692291259766, -2.759986639022827, 3.5756194591522217, -2.0997140407562256, 1.1292548179626465, -1.454833984375, 0.29638671875, 0.4814453125, 0, 
443, 1025288148, 0.4238341450691223, -0.4437951147556305, -0.6665108799934387, -0.42328941822052, 9.395010948181152, 1.8804911375045776, -2.7639150619506836, 3.4449098110198975, -2.2397983074188232, 1.1190603971481323, -1.45166015625, 0.29248046875, 0.476318359375, 0, 
