PacketCounter,SampleTimeFine,Quat_W,Quat_X,Quat_Y,Quat_Z,Acc_X,Acc_Y,Acc_Z,Gyr_X,Gyr_Y,Gyr_Z,Mag_X,Mag_Y,Mag_Z,Status,
0, 1039420916, 0.5200837254524231, -0.4500458240509033, -0.6267346143722534, -0.36629989743232727, 0, 0, 0, 0, 0, 0, -1.45703125, 0.5537109375, 0.311767578125, 0, 
1, 1039429249, 0.5199037790298462, -0.4504055380821228, -0.6266107559204102, -0.3663252890110016, 9.911664962768555, -0.29155176877975464, -2.057710886001587, -0.9933328032493591, -3.660466194152832, 4.134880542755127, -1.457275390625, 0.55126953125, 0.313720703125, 0, 
2, 1039437582, 0.5197523236274719, -0.45075535774230957, -0.6264724135398865, -0.36634621024131775, 9.857379913330078, -0.2656862735748291, -1.910220980644226, -0.7740365862846375, -3.290302276611328, 4.3331475257873535, -1.458251953125, 0.55517578125, 0.310546875, 0, 
3, 1039445915, 0.5195619463920593, -0.451174259185791, -0.6262784004211426, -0.3664326071739197, 9.796086311340332, -0.2638093829154968, -1.8879224061965942, -2.3605823516845703, -3.1715035438537598, 4.591697692871094, -1.458984375, 0.558837890625, 0.31103515625, 0, 
4, 1039454248, 0.5194035768508911, -0.4515882134437561, -0.6260362863540649, -0.3665609657764435, 9.812297821044922, -0.20380666851997375, -1.7367870807647705, -2.715506076812744, -2.2650797367095947, 4.725493907928467, -1.45458984375, 0.55615234375, 0.30908203125, 0, 
5, 1039462581, 0.519289493560791, -0.4519704580307007, -0.6257982850074768, -0.3666577637195587, 9.743730545043945, -0.16391383111476898, -1.7111537456512451, -1.9352707862854004, -1.9498707056045532, 4.859071731567383, -1.458984375, 0.55517578125, 0.311767578125, 0, 
6, 1039470914, 0.5190816521644592, -0.45243361592292786, -0.6255959272384644, -0.3667258322238922, 9.687161445617676, -0.1894901841878891, -1.7870111465454102, -2.6618189811706543, -3.5977377891540527, 5.082991600036621, -1.45458984375, 0.556396484375, 0.31298828125, 0, 
7, 1039479247, 0.518879771232605, -0.45288094878196716, -0.6254265904426575, -0.3667483925819397, 9.726530075073242, -0.22118593752384186, -1.9570001363754272, -1.9612433910369873, -3.9850757122039795, 5.079814910888672, -1.457763671875, 0.557861328125, 0.31689453125, 0, 
8, 1039487580, 0.5187773704528809, -0.45328402519226074, -0.6251901984214783, -0.3667983114719391, 9.720846176147461, -0.24097003042697906, -2.0342395305633545, -1.594217300415039, -2.260648488998413, 5.4370574951171875, -1.455810546875, 0.558349609375, 0.3154296875, 0, 
9, 1039495913, 0.5187023878097534, -0.45368102192878723, -0.6249703764915466, -0.36678799986839294, 9.709113121032715, -0.2084486484527588, -2.0071122646331787, -0.7822971940040588, -2.4835691452026367, 5.8358964920043945, -1.456298828125, 0.55908203125, 0.3193359375, 0, 
10, 1039504246, 0.5186695456504822, -0.45407137274742126, -0.6247128844261169, -0.36679044365882874, 9.733275413513184, -0.17567892372608185, -1.9401394128799438, -0.7675049304962158, -1.7424341440200806, 6.151886463165283, -1.4521484375, 0.5556640625, 0.314697265625, 0, 
11, 1039512579, 0.5186662673950195, -0.4544461965560913, -0.6244792938232422, -0.3667285740375519, 9.784929275512695, -0.15164639055728912, -1.9498584270477295, 0.19551342725753784, -1.9806846380233765, 6.460857391357422, -1.453857421875, 0.5595703125, 0.317138671875, 0, 
12, 1039520912, 0.5187202095985413, -0.45472487807273865, -0.6243077516555786, -0.36659860610961914, 9.875184059143066, -0.21034328639507294, -1.8463042974472046, 2.147907018661499, -1.8732842206954956, 6.036582946777344, -1.454345703125, 0.5615234375, 0.318359375, 0, 
13, 1039529245, 0.518768846988678, -0.45498010516166687, -0.624163031578064, -0.3664597272872925, 9.846091270446777, -0.22356829047203064, -1.8678817749023438, 2.481635093688965, -2.046692371368408, 5.6889214515686035, -1.453369140625, 0.558349609375, 0.318603515625, 0, 
14, 1039537578, 0.5187731981277466, -0.4552212655544281, -0.6241037249565125, -0.36625534296035767, 9.875876426696777, -0.22173385322093964, -1.961495041847229, 3.3127145767211914, -3.3766093254089355, 5.291849613189697, -1.451171875, 0.5634765625, 0.319580078125, 0, 
15, 1039545911, 0.5188074707984924, -0.45545142889022827, -0.624026358127594, -0.3660525977611542, 9.875539779663086, -0.15225812792778015, -1.8349556922912598, 3.458049774169922, -2.9234678745269775, 5.4358015060424805, -1.453857421875, 0.562744140625, 0.31591796875, 0, 
16, 1039554244, 0.5188960433006287, -0.45560112595558167, -0.6240012049674988, -0.3657827377319336, 9.791121482849121, -0.04838108271360397, -1.887485146522522, 5.218721866607666, -2.847470998764038, 5.18442440032959, -1.451904296875, 0.560791015625, 0.318359375, 0, 
17, 1039562577, 0.5191546678543091, -0.4555780291557312, -0.6240134239196777, -0.3654233515262604, 9.698195457458496, 0.05428008735179901, -1.9653128385543823, 8.46670913696289, -1.3455030918121338, 4.9477739334106445, -1.452392578125, 0.564697265625, 0.31884765625, 0, 
18, 1039570910, 0.5194993019104004, -0.45544835925102234, -0.6240655779838562, -0.36500659584999084, 9.543784141540527, 0.13115312159061432, -2.0660159587860107, 10.47458267211914, -0.7168015241622925, 4.6377387046813965, -1.451171875, 0.564453125, 0.313720703125, 0, 
19, 1039579243, 0.5198065042495728, -0.45529797673225403, -0.6242135167121887, -0.3645034432411194, 9.45417594909668, 0.1128464862704277, -2.1121325492858887, 11.594976425170898, -2.1578075885772705, 4.275246620178223, -1.449951171875, 0.5634765625, 0.31884765625, 0, 
20, 1039587576, 0.5199988484382629, -0.45521143078804016, -0.6243823766708374, -0.36404743790626526, 9.480985641479492, -0.008622739464044571, -2.0163674354553223, 10.129816055297852, -3.319746255874634, 3.7965939044952393, -1.45361328125, 0.56640625, 0.31640625, 0, 
21, 1039595909, 0.5199705362319946, -0.45534831285476685, -0.6245138645172119, -0.36369091272354126, 9.544428825378418, -0.04509318992495537, -2.0163450241088867, 6.099493503570557, -5.441552639007568, 4.117002487182617, -1.449951171875, 0.56884765625, 0.31689453125, 0, 
22, 1039604242, 0.5197441577911377, -0.45568016171455383, -0.624626636505127, -0.3634054958820343, 9.670780181884766, -0.060297053307294846, -2.0146660804748535, 2.7415432929992676, -7.540409564971924, 4.429880142211914, -1.44482421875, 0.565185546875, 0.316650390625, 0, 
23, 1039612575, 0.5193890333175659, -0.4561891555786133, -0.6246370077133179, -0.3632568418979645, 9.755846977233887, -0.11045613884925842, -2.118600368499756, -0.9984814524650574, -7.939991474151611, 4.952308654785156, -1.448486328125, 0.572265625, 0.322265625, 0, 
24, 1039620908, 0.5190531611442566, -0.4567495584487915, -0.6245028972625732, -0.3632631003856659, 9.784196853637695, -0.12388106435537338, -2.3427886962890625, -3.2894697189331055, -6.030654430389404, 5.303760528564453, -1.4453125, 0.57080078125, 0.31982421875, 0, 
25, 1039629241, 0.518844485282898, -0.45721903443336487, -0.6243410706520081, -0.3632487654685974, 9.787026405334473, -0.06432566046714783, -2.500006914138794, -1.8094024658203125, -4.412141799926758, 5.465950012207031, -1.446044921875, 0.567626953125, 0.318603515625, 0, 
26, 1039637574, 0.5189366936683655, -0.45740172266960144, -0.6242289543151855, -0.363079696893692, 9.794367790222168, -0.05005652830004692, -2.5071542263031006, 3.710016965866089, -1.7268733978271484, 5.3129563331604, -1.446044921875, 0.57080078125, 0.319091796875, 0, 
27, 1039645907, 0.5191788077354431, -0.45741334557533264, -0.6242022514343262, -0.3627646565437317, 9.80716609954834, -0.042829710990190506, -2.254664897918701, 7.547504425048828, -1.1116068363189697, 5.0819807052612305, -1.44482421875, 0.572021484375, 0.321044921875, 0, 
28, 1039654240, 0.5193890929222107, -0.45746323466300964, -0.6241416335105896, -0.3625050485134125, 9.889974594116211, -0.017928283661603928, -1.8058141469955444, 6.438521862030029, -0.9851362109184265, 5.086858749389648, -1.44482421875, 0.5703125, 0.32421875, 0, 
29, 1039662573, 0.5194218754768372, -0.4576811194419861, -0.6240208745002747, -0.36239102482795715, 9.885490417480469, 0.12600144743919373, -1.7725698947906494, 2.562422513961792, -2.001124858856201, 4.963911056518555, -1.447998046875, 0.569091796875, 0.32421875, 0, 
30, 1039670906, 0.5193332433700562, -0.4580172896385193, -0.6238216757774353, -0.3624359369277954, 9.85463809967041, 0.2636505663394928, -1.9916132688522339, -0.7936186790466309, -2.0715126991271973, 4.750210762023926, -1.448486328125, 0.57470703125, 0.323486328125, 0, 
31, 1039679239, 0.5191636085510254, -0.45845863223075867, -0.6234921813011169, -0.36268773674964905, 9.783178329467773, 0.31335821747779846, -2.1692488193511963, -4.486448764801025, -1.056241512298584, 4.574728012084961, -1.447998046875, 0.57275390625, 0.321044921875, 0, 
32, 1039687572, 0.5189199447631836, -0.45902296900749207, -0.6230834126472473, -0.36302512884140015, 9.657470703125, 0.3232037425041199, -2.2409448623657227, -6.931839942932129, -1.199655532836914, 5.162959098815918, -1.447998046875, 0.571044921875, 0.322998046875, 0, 
33, 1039695905, 0.5185578465461731, -0.4597049355506897, -0.622667133808136, -0.36339378356933594, 9.6869478225708, 0.2178996354341507, -2.319523334503174, -8.85336971282959, -2.550550699234009, 5.389005184173584, -1.450927734375, 0.57421875, 0.32177734375, 0, 
34, 1039704238, 0.5182342529296875, -0.46037766337394714, -0.6221876740455627, -0.36382460594177246, 9.742255210876465, 0.0754358246922493, -2.5143673419952393, -9.387066841125488, -1.3323116302490234, 5.4774250984191895, -1.44775390625, 0.579345703125, 0.327880859375, 0, 
35, 1039712571, 0.5178797245025635, -0.4610508382320404, -0.621774435043335, -0.3641834855079651, 9.618844032287598, 0.039782676845788956, -2.4832141399383545, -8.642934799194336, -2.524027109146118, 5.403464317321777, -1.44482421875, 0.57421875, 0.323974609375, 0, 
36, 1039720904, 0.5176538825035095, -0.46162545680999756, -0.6213347911834717, -0.36452680826187134, 9.649430274963379, -0.0586484856903553, -2.5454139709472656, -7.1381754875183105, -0.841632604598999, 5.50173282623291, -1.443359375, 0.57470703125, 0.32666015625, 0, 
37, 1039729237, 0.517527163028717, -0.46215540170669556, -0.620807409286499, -0.36493343114852905, 9.711530685424805, -0.11179276555776596, -2.4932756423950195, -7.157271862030029, 1.2543805837631226, 5.703907012939453, -1.444091796875, 0.5712890625, 0.33056640625, 0, 
38, 1039737570, 0.5174274444580078, -0.4627085328102112, -0.6202210187911987, -0.3653705418109894, 9.756109237670898, -0.06612037867307663, -2.394698143005371, -7.700266361236572, 1.9863325357437134, 6.2116570472717285, -1.4453125, 0.57421875, 0.325439453125, 0, 
39, 1039745903, 0.517372190952301, -0.4632106423377991, -0.6196634769439697, -0.36575847864151, 9.821893692016602, 0.030316093936562538, -2.2671358585357666, -6.498063564300537, 2.1004700660705566, 6.149824619293213, -1.444091796875, 0.572265625, 0.327880859375, 0, 
40, 1039754236, 0.5172523260116577, -0.4636910557746887, -0.6192100644111633, -0.36608707904815674, 9.893653869628906, 0.12050100415945053, -2.0277066230773926, -5.720953464508057, 0.5432524085044861, 5.419717311859131, -1.448486328125, 0.572998046875, 0.329345703125, 0, 
41, 1039762569, 0.5170738101005554, -0.4640951156616211, -0.6188774108886719, -0.36638951301574707, 9.987178802490234, 0.11289559304714203, -2.143064022064209, -4.725826740264893, -0.6004489064216614, 3.8698370456695557, -1.442138671875, 0.573486328125, 0.327880859375, 0, 
42, 1039770902, 0.516963005065918, -0.46429768204689026, -0.6186342835426331, -0.36670008301734924, 9.974775314331055, 0.08661484718322754, -2.3329007625579834, -2.4738357067108154, 0.40765056014060974, 1.886718988418579, -1.439697265625, 0.571044921875, 0.32470703125, 0, 
43, 1039779235, 0.5169442296028137, -0.46432554721832275, -0.6184413433074951, -0.3670167028903961, 9.903759002685547, 0.05395578593015671, -2.4447109699249268, -0.44867172837257385, 1.752653956413269, 0.47952404618263245, -1.439697265625, 0.571044921875, 0.32958984375, 0, 
44, 1039787568, 0.5170082449913025, -0.46422651410102844, -0.6182268857955933, -0.3674125075340271, 9.814715385437012, 0.07258716970682144, -2.4323906898498535, 0.21020318567752838, 3.7581584453582764, -0.5855925679206848, -1.447998046875, 0.572509765625, 0.32861328125, 0, 
45, 1039795901, 0.5171277523040771, -0.46403345465660095, -0.6180185675621033, -0.36783868074417114, 9.690749168395996, 0.17404040694236755, -2.437727451324463, 0.9970340728759766, 4.850900173187256, -1.3802870512008667, -1.448486328125, 0.572998046875, 0.326171875, 0, 
46, 1039804234, 0.5173518657684326, -0.46366164088249207, -0.6178396344184875, -0.3682927191257477, 9.574853897094727, 0.34904181957244873, -2.4405784606933594, 2.8595993518829346, 6.618258476257324, -2.7361514568328857, -1.447998046875, 0.566650390625, 0.324462890625, 0, 
47, 1039812567, 0.5176557302474976, -0.4631078243255615, -0.6177316904067993, -0.36874330043792725, 9.489486694335938, 0.5696395635604858, -2.4029524326324463, 5.03775691986084, 7.686653137207031, -4.327691555023193, -1.44482421875, 0.57275390625, 0.321044921875, 0, 
48, 1039820900, 0.5179789662361145, -0.4623933732509613, -0.6176890134811401, -0.3692570924758911, 9.50830078125, 0.736148476600647, -2.426210641860962, 6.112504482269287, 8.608227729797363, -6.4363837242126465, -1.447998046875, 0.569580078125, 0.320556640625, 0, 
49, 1039829233, 0.518284022808075, -0.46159714460372925, -0.6176525354385376, -0.36988604068756104, 9.442937850952148, 0.8921473026275635, -2.3440330028533936, 5.619712829589844, 9.550909996032715, -8.105255126953125, -1.453125, 0.569091796875, 0.32080078125, 0, 
50, 1039837566, 0.5185628533363342, -0.4607638418674469, -0.6175712943077087, -0.37066829204559326, 9.46231460571289, 0.9598053097724915, -2.3424274921417236, 4.208317279815674, 10.817380905151367, -9.339093208312988, -1.451171875, 0.565185546875, 0.319580078125, 0, 
51, 1039845899, 0.518852174282074, -0.459846556186676, -0.6174334287643433, -0.37163108587265015, 9.403843879699707, 1.103163242340088, -2.3207855224609375, 3.0301523208618164, 12.874398231506348, -10.950115203857422, -1.454833984375, 0.56689453125, 0.313232421875, 0, 
52, 1039854232, 0.5191919207572937, -0.4587564170360565, -0.6172953844070435, -0.37273192405700684, 9.342671394348145, 1.2316045761108398, -2.356654405593872, 3.4265201091766357, 15.069911003112793, -13.119038581848145, -1.45458984375, 0.55712890625, 0.321044921875, 0, 
53, 1039862565, 0.5195823907852173, -0.457462340593338, -0.6172327995300293, -0.3738800287246704, 9.377588272094727, 1.347102403640747, -2.281691312789917, 5.17210578918457, 16.295042037963867, -15.429702758789062, -1.457763671875, 0.5556640625, 0.3125, 0, 
54, 1039870898, 0.5199638605117798, -0.45597416162490845, -0.6173252463340759, -0.37501347064971924, 9.525915145874023, 1.4687409400939941, -2.1408231258392334, 7.4315643310546875, 16.024477005004883, -17.964744567871094, -1.46533203125, 0.552978515625, 0.303955078125, 0, 
55, 1039879231, 0.5202247500419617, -0.4544239342212677, -0.6175447106361389, -0.37617024779319763, 9.720860481262207, 1.5088598728179932, -1.8052586317062378, 7.5674238204956055, 14.552274703979492, -20.105714797973633, -1.457763671875, 0.552978515625, 0.30419921875, 0, 
56, 1039887564, 0.5203837156295776, -0.45283934473991394, -0.6177768111228943, -0.37747740745544434, 9.706782341003418, 1.6583118438720703, -1.6699485778808594, 5.969452857971191, 14.723251342773438, -22.046892166137695, -1.46484375, 0.546142578125, 0.30224609375, 0, 
57, 1039895897, 0.5203837156295776, -0.4511687159538269, -0.6181755661964417, -0.3788226842880249, 9.709657669067383, 1.831676959991455, -1.7346192598342896, 6.131642818450928, 12.853487968444824, -24.945554733276367, -1.467529296875, 0.538330078125, 0.296875, 0, 
58, 1039904230, 0.5201276540756226, -0.4494241178035736, -0.618824303150177, -0.3801867663860321, 9.780558586120605, 2.0067453384399414, -1.9415630102157593, 6.214506149291992, 9.400254249572754, -28.560476303100586, -1.471923828125, 0.539306640625, 0.298828125, 0, 
59, 1039912563, 0.519633948802948, -0.4476338028907776, -0.6195785403251648, -0.38174232840538025, 9.860136032104492, 1.9645752906799316, -2.181129217147827, 3.9945952892303467, 8.035987854003906, -32.247928619384766, -1.47216796875, 0.531005859375, 0.294677734375, 0, 
60, 1039920896, 0.5189351439476013, -0.4458514153957367, -0.6203103065490723, -0.38358592987060547, 9.811382293701172, 2.0984442234039307, -2.6194143295288086, 0.11180625855922699, 8.191800117492676, -35.13771057128906, -1.475341796875, 0.52587890625, 0.293701171875, 0, 
61, 1039929229, 0.5180593132972717, -0.4440910518169403, -0.6210439205169678, -0.38561975955963135, 9.776175498962402, 2.2105345726013184, -2.851983070373535, -2.752009630203247, 7.707486152648926, -37.29023361206055, -1.479248046875, 0.5166015625, 0.292236328125, 0, 
62, 1039937562, 0.516978919506073, -0.4424391984939575, -0.6217226982116699, -0.38786780834198, 9.918102264404297, 2.41225266456604, -2.798921585083008, -6.8769330978393555, 7.096997261047363, -38.600181579589844, -1.47900390625, 0.5048828125, 0.296875, 0, 
63, 1039945895, 0.5157438516616821, -0.44081830978393555, -0.6223241090774536, -0.39038529992103577, 10.39077377319336, 2.597499132156372, -2.7662529945373535, -10.770892143249512, 7.7858171463012695, -40.644100189208984, -1.486572265625, 0.499755859375, 0.29345703125, 0, 
64, 1039954228, 0.5144480466842651, -0.43915989995002747, -0.6227148771286011, -0.39332959055900574, 10.664796829223633, 2.7441868782043457, -2.6167044639587402, -15.64147663116455, 11.562799453735352, -42.998863220214844, -1.4892578125, 0.490234375, 0.291259765625, 0, 
65, 1039962561, 0.5130348205566406, -0.43748074769973755, -0.6228231191635132, -0.39685964584350586, 10.922759056091309, 3.026977300643921, -2.434218168258667, -22.763629913330078, 16.190324783325195, -46.29320526123047, -1.491943359375, 0.482666015625, 0.2890625, 0, 
66, 1039970894, 0.5114514231681824, -0.43581321835517883, -0.6225876212120056, -0.4010851979255676, 11.344868659973145, 3.390308141708374, -2.165712356567383, -31.6801700592041, 21.295494079589844, -49.911903381347656, -1.492919921875, 0.4677734375, 0.290771484375, 0, 
67, 1039979227, 0.509731113910675, -0.4341736435890198, -0.6218271255493164, -0.4062005579471588, 11.537446022033691, 3.9048995971679688, -1.990675926208496, -43.233642578125, 28.98026466369629, -53.58811950683594, -1.49951171875, 0.4541015625, 0.288330078125, 0, 
68, 1039987560, 0.5077359080314636, -0.4325826168060303, -0.6206992268562317, -0.412079393863678, 11.597110748291016, 4.564173698425293, -1.9477965831756592, -53.77593231201172, 33.504276275634766, -57.81568908691406, -1.511962890625, 0.439697265625, 0.28466796875, 0, 
69, 1039995893, 0.5053741931915283, -0.43089669942855835, -0.6195632219314575, -0.41841021180152893, 11.908170700073242, 5.152145862579346, -2.3171699047088623, -59.21860122680664, 33.64598846435547, -63.86130142211914, -1.5107421875, 0.42822265625, 0.282470703125, 0, 
70, 1040004226, 0.502596378326416, -0.4290314018726349, -0.6183401346206665, -0.4254229664802551, 11.830171585083008, 5.457915782928467, -2.4114532470703125, -66.72808837890625, 35.79185485839844, -71.94852447509766, -1.51513671875, 0.40576171875, 0.283203125, 0, 
71, 1040012559, 0.49930626153945923, -0.4271887540817261, -0.616740345954895, -0.4333993196487427, 11.587844848632812, 5.498812198638916, -1.962977409362793, -80.32411193847656, 39.579742431640625, -79.2497329711914, -1.521728515625, 0.39013671875, 0.275634765625, 0, 
72, 1040020892, 0.4953542649745941, -0.4255244731903076, -0.6147171258926392, -0.4423529803752899, 11.862985610961914, 5.526554107666016, -1.3456801176071167, -96.24652862548828, 41.56438064575195, -85.8359375, -1.52734375, 0.3662109375, 0.271484375, 0, 
73, 1040029225, 0.4906856119632721, -0.4240437150001526, -0.6123218536376953, -0.45219120383262634, 12.063815116882324, 5.561374664306641, -0.8490921258926392, -111.4329605102539, 42.08708190917969, -92.5628890991211, -1.531005859375, 0.34228515625, 0.26953125, 0, 
74, 1040037558, 0.4852522611618042, -0.4228520691394806, -0.6095640063285828, -0.4627726972103119, 11.882343292236328, 5.67582893371582, -0.21892064809799194, -126.30530548095703, 40.650787353515625, -97.71118927001953, -1.540283203125, 0.316650390625, 0.268798828125, 0, 
75, 1040045891, 0.4790530502796173, -0.4218316078186035, -0.6068071126937866, -0.47365802526474, 12.285587310791016, 5.929608345031738, -0.1611289381980896, -134.49644470214844, 34.8826904296875, -103.25763702392578, -1.54541015625, 0.28857421875, 0.265869140625, 0, 
76, 1040054224, 0.4722772240638733, -0.42060816287994385, -0.6039943099021912, -0.4850093722343445, 13.08676528930664, 5.953248977661133, -0.45238175988197327, -140.75003051757812, 34.4729118347168, -111.36921691894531, -1.5537109375, 0.259033203125, 0.262451171875, 0, 
77, 1040062557, 0.46491044759750366, -0.4192506968975067, -0.6008381247520447, -0.49707260727882385, 13.14209270477295, 5.806201457977295, -1.0666732788085938, -151.5091552734375, 36.797584533691406, -119.1456298828125, -1.557373046875, 0.22900390625, 0.260986328125, 0, 
78, 1040070890, 0.4571947753429413, -0.41762250661849976, -0.5973068475723267, -0.5096951127052307, 12.702820777893066, 5.194664478302002, -1.7998862266540527, -158.95419311523438, 41.394264221191406, -125.09104919433594, -1.5595703125, 0.194580078125, 0.260009765625, 0, 
79, 1040079223, 0.4492740035057068, -0.4156515896320343, -0.5934699177742004, -0.5226665139198303, 12.356232643127441, 4.212808609008789, -1.6786233186721802, -163.00770568847656, 46.03252029418945, -129.8728485107422, -1.568603515625, 0.157470703125, 0.253662109375, 0, 
80, 1040087556, 0.4418916404247284, -0.41277554631233215, -0.5904992818832397, -0.5344708561897278, 12.393736839294434, 4.072534084320068, -1.2244350910186768, -138.56495666503906, 44.90980529785156, -131.031982421875, -1.566650390625, 0.132080078125, 0.242919921875, 0, 
81, 1040095889, 0.43511655926704407, -0.4090592861175537, -0.5886220932006836, -0.5448563694953918, 12.682356834411621, 3.5356903076171875, 0.22013698518276215, -110.47186279296875, 41.316078186035156, -131.073974609375, -1.5712890625, 0.090087890625, 0.236572265625, 0, 
82, 1040104222, 0.4288136065006256, -0.40469130873680115, -0.586925745010376, -0.5548532009124756, 13.44094181060791, 2.2952096462249756, 1.4572933912277222, -99.39966583251953, 46.75230407714844, -131.40533447265625, -1.574462890625, 0.05908203125, 0.22802734375, 0, 
83, 1040112555, 0.4225621521472931, -0.40003135800361633, -0.5851815342903137, -0.5647821426391602, 13.499197006225586, 2.0757789611816406, 1.3004226684570312, -97.22374725341797, 49.301029205322266, -132.79840087890625, -1.574462890625, 0.023681640625, 0.21826171875, 0, 
84, 1040120888, 0.41700416803359985, -0.394262433052063, -0.584406852722168, -0.5737015008926392, 14.06490421295166, 2.327409267425537, 0.6529179811477661, -71.29515838623047, 52.30060958862305, -135.70748901367188, -1.5751953125, -0.0029296875, 0.210693359375, 0, 
85, 1040129221, 0.41204309463500977, -0.3877173960208893, -0.5848749279975891, -0.5812203884124756, 13.24885368347168, 3.23095440864563, 0.424770325422287, -42.564369201660156, 48.50749206542969, -136.0389862060547, -1.57958984375, -0.03662109375, 0.19482421875, 0, 
86, 1040137554, 0.4075378179550171, -0.38044190406799316, -0.5865147709846497, -0.5875181555747986, 13.312800407409668, 3.1762678623199463, -0.11992465704679489, -16.789432525634766, 44.853057861328125, -137.50811767578125, -1.57373046875, -0.0595703125, 0.185546875, 0, 
87, 1040145887, 0.4031791388988495, -0.3724031448364258, -0.588676929473877, -0.5934832096099854, 13.172226905822754, 3.7485384941101074, -0.07641589641571045, -4.858080863952637, 47.541900634765625, -143.4390869140625, -1.57470703125, -0.0947265625, 0.18017578125, 0, 
88, 1040154220, 0.3988179862499237, -0.3637489974498749, -0.5916033983230591, -0.5988626480102539, 12.790938377380371, 4.428923606872559, -0.0369051918387413, 9.533029556274414, 45.30136489868164, -149.02110290527344, -1.571533203125, -0.12255859375, 0.172607421875, 0, 
89, 1040162553, 0.3943253755569458, -0.35478389263153076, -0.5951037406921387, -0.603728175163269, 12.09318733215332, 5.16820764541626, 0.7104262113571167, 19.476577758789062, 41.08116149902344, -152.77188110351562, -1.56787109375, -0.1572265625, 0.16650390625, 0, 
90, 1040170886, 0.38969916105270386, -0.3457300066947937, -0.5990278720855713, -0.6080882549285889, 12.179698944091797, 5.777914047241211, 1.849389672279358, 26.9671573638916, 35.95311737060547, -153.8503875732422, -1.562744140625, -0.185791015625, 0.158203125, 0, 
91, 1040179219, 0.38477563858032227, -0.33655697107315063, -0.6029181480407715, -0.61250901222229, 12.642008781433105, 6.312567710876465, 1.967885971069336, 25.399826049804688, 34.97846984863281, -157.5680389404297, -1.556396484375, -0.21435546875, 0.15087890625, 0, 
92, 1040187552, 0.37950485944747925, -0.32724741101264954, -0.6067980527877808, -0.6169938445091248, 12.952146530151367, 6.900035858154297, 1.6514394283294678, 23.911422729492188, 33.5999870300293, -161.83145141601562, -1.551025390625, -0.247802734375, 0.144775390625, 0, 
93, 1040195885, 0.3736996054649353, -0.31766408681869507, -0.6104893088340759, -0.6218851804733276, 12.168328285217285, 7.37078857421875, 2.03971791267395, 17.93013572692871, 34.27724838256836, -170.00698852539062, -1.540283203125, -0.28173828125, 0.145751953125, 0, 
94, 1040204218, 0.3672887086868286, -0.30829253792762756, -0.6138630509376526, -0.6270782351493835, 12.64229965209961, 7.927840232849121, 2.6333813667297363, 8.971785545349121, 30.329544067382812, -173.48841857910156, -1.53173828125, -0.3154296875, 0.137451171875, 0, 
95, 1040212551, 0.36066240072250366, -0.2988707721233368, -0.6167664527893066, -0.6326122283935547, 13.223624229431152, 7.38916540145874, 2.749168872833252, 1.3529306650161743, 32.767059326171875, -175.58363342285156, -1.5244140625, -0.354248046875, 0.13818359375, 0, 
96, 1040220884, 0.35389769077301025, -0.28960856795310974, -0.6195555329322815, -0.6379925608634949, 12.977653503417969, 6.187299728393555, 2.736128091812134, 0.3356069028377533, 30.143558502197266, -174.1176300048828, -1.510498046875, -0.38232421875, 0.12890625, 0, 
97, 1040229217, 0.34681838750839233, -0.28011998534202576, -0.6222013235092163, -0.6435180902481079, 13.038518905639648, 5.3114190101623535, 1.9432488679885864, -2.344705820083618, 30.720354080200195, -179.02728271484375, -1.5, -0.41845703125, 0.125, 0, 
98, 1040237550, 0.33953380584716797, -0.2703285813331604, -0.6248330473899841, -0.6490171551704407, 12.716724395751953, 4.190208435058594, 1.2960481643676758, -1.5742859840393066, 31.602678298950195, -183.17442321777344, -1.48388671875, -0.453125, 0.118896484375, 0, 
99, 1040245883, 0.3318925201892853, -0.2601522207260132, -0.6275642514228821, -0.6544705033302307, 11.899430274963379, 3.79714035987854, 1.1964538097381592, 0.16280938684940338, 31.34693145751953, -189.9019012451172, -1.46826171875, -0.48828125, 0.109619140625, 0, 
100, 1040254216, 0.323805034160614, -0.2500075399875641, -0.6305105686187744, -0.6596235036849976, 11.50433349609375, 3.4995296001434326, 0.7724286317825317, 2.952343702316284, 25.131141662597656, -192.97300720214844, -1.453857421875, -0.52294921875, 0.108154296875, 0, 
101, 1040262549, 0.3153804838657379, -0.23990826308727264, -0.6336429715156555, -0.6644365191459656, 10.32571792602539, 4.07457160949707, -0.1285364329814911, 6.223048210144043, 19.823360443115234, -194.8346710205078, -1.44140625, -0.558349609375, 0.104736328125, 0, 
102, 1040270882, 0.30656179785728455, -0.22992974519729614, -0.637017011642456, -0.6688509583473206, 9.77707576751709, 4.400071144104004, -0.8987512588500977, 10.107222557067871, 12.91453742980957, -196.3868408203125, -1.4169921875, -0.59326171875, 0.099609375, 0, 
103, 1040279215, 0.2976958453655243, -0.21995759010314941, -0.6402437686920166, -0.6731151342391968, 9.146081924438477, 4.776412010192871, -1.0533905029296875, 9.867361068725586, 12.594012260437012, -195.7315216064453, -1.39599609375, -0.6298828125, 0.09912109375, 0, 
104, 1040287548, 0.2887515425682068, -0.21006949245929718, -0.6430553793907166, -0.6774756908416748, 8.72983169555664, 5.243330001831055, -1.539932370185852, 4.6079888343811035, 13.113531112670898, -194.79833984375, -1.377197265625, -0.664794921875, 0.0947265625, 0, 
105, 1040295881, 0.2798064351081848, -0.20034515857696533, -0.6456298232078552, -0.6817128658294678, 8.397452354431152, 5.732181072235107, -1.1379008293151855, 2.822268486022949, 12.170259475708008, -192.2389678955078, -1.359130859375, -0.6962890625, 0.096923828125, 0, 
106, 1040304214, 0.2711387276649475, -0.19076007604599, -0.6479514837265015, -0.6857503652572632, 8.531171798706055, 5.9842705726623535, -0.46098393201828003, 2.4481306076049805, 13.71866512298584, -186.8893280029297, -1.330810546875, -0.72607421875, 0.09521484375, 0, 
107, 1040312547, 0.26245591044425964, -0.18141821026802063, -0.6500817537307739, -0.6896365880966187, 7.721596717834473, 6.278743743896484, 0.12161089479923248, 1.052085041999817, 11.638200759887695, -183.84503173828125, -1.310791015625, -0.757080078125, 0.0927734375, 0, 
108, 1040320880, 0.2534964978694916, -0.172469362616539, -0.6520835161209106, -0.6933838129043579, 7.536085605621338, 6.312117576599121, 0.13887861371040344, -1.0248171091079712, 5.556325435638428, -182.0867919921875, -1.284912109375, -0.784912109375, 0.09423828125, 0, 
109, 1040329213, 0.24449418485164642, -0.16361026465892792, -0.6538180112838745, -0.697120189666748, 7.673182964324951, 6.130450248718262, 0.056209877133369446, -3.899893283843994, 5.220434665679932, -181.06593322753906, -1.25537109375, -0.814453125, 0.0849609375, 0, 
110, 1040337546, 0.23524446785449982, -0.15496067702770233, -0.6551541090011597, -0.7010139226913452, 6.8110737800598145, 5.290547847747803, 0.1604711264371872, -10.386630058288574, 2.6873185634613037, -181.14569091796875, -1.23583984375, -0.84228515625, 0.086181640625, 0, 
111, 1040345879, 0.22608043253421783, -0.14644086360931396, -0.6557278633117676, -0.7053112387657166, 6.567741394042969, 4.8423848152160645, 0.2911212742328644, -21.615921020507812, 5.52860689163208, -178.87257385253906, -1.21142578125, -0.870849609375, 0.08349609375, 0, 
112, 1040354212, 0.21713529527187347, -0.13820883631706238, -0.6556947231292725, -0.7097992897033691, 6.7151312828063965, 4.126666069030762, 0.049016520380973816, -29.673377990722656, 6.980838298797607, -173.49102783203125, -1.182861328125, -0.89501953125, 0.08349609375, 0, 
113, 1040362545, 0.20859944820404053, -0.12982602417469025, -0.65533846616745, -0.714257001876831, 5.563899517059326, 3.604098320007324, 0.37051495909690857, -31.330432891845703, 13.052669525146484, -170.18394470214844, -1.158203125, -0.92041015625, 0.070068359375, 0, 
114, 1040370878, 0.2000231295824051, -0.12173398584127426, -0.6549762487411499, -0.7184551954269409, 4.525906085968018, 3.574007511138916, 0.3999646008014679, -29.946147918701172, 9.387063026428223, -167.17669677734375, -1.135498046875, -0.944580078125, 0.062255859375, 0, 
115, 1040379211, 0.19156941771507263, -0.11413328349590302, -0.6545958518981934, -0.7223430275917053, 4.353461742401123, 3.635468006134033, -0.21527184545993805, -28.48696517944336, 5.164822578430176, -160.68421936035156, -1.1103515625, -0.969482421875, 0.06298828125, 0, 
116, 1040387544, 0.183503195643425, -0.10712243616580963, -0.6539595723152161, -0.7260776162147522, 3.597198247909546, 3.4045932292938232, -0.5349320769309998, -30.58755874633789, 3.228485584259033, -150.69703674316406, -1.081787109375, -0.984375, 0.056640625, 0, 
117, 1040395877, 0.17588090896606445, -0.1002470850944519, -0.6532320976257324, -0.7295923233032227, 3.804335832595825, 2.6644415855407715, -0.608173668384552, -29.215452194213867, 5.772867202758789, -144.37918090820312, -1.060791015625, -1.005126953125, 0.04443359375, 0, 
118, 1040404210, 0.16874726116657257, -0.09370581060647964, -0.6526368260383606, -0.7326726317405701, 3.085284471511841, 1.8833500146865845, 0.18900084495544434, -24.122777938842773, 5.884098529815674, -135.58895874023438, -1.03466796875, -1.021240234375, 0.044921875, 0, 
119, 1040412543, 0.16232524812221527, -0.08743707835674286, -0.65196293592453, -0.7354930639266968, 3.041518211364746, 1.600930094718933, 0.3266185224056244, -22.29447364807129, 9.380425453186035, -125.28571319580078, -1.01171875, -1.04052734375, 0.038818359375, 0, 
120, 1040420876, 0.1561824381351471, -0.08186817169189453, -0.6514562964439392, -0.7379089593887329, 1.8666318655014038, 1.5284863710403442, 0.4543777108192444, -18.201215744018555, 3.9416425228118896, -115.46903228759766, -0.992431640625, -1.0498046875, 0.03271484375, 0, 
121, 1040429209, 0.15053090453147888, -0.07698117941617966, -0.6510659456253052, -0.7399511337280273, 1.9144494533538818, 1.4195911884307861, -0.20591679215431213, -14.585693359375, 0.7577532529830933, -103.71861267089844, -0.975341796875, -1.065673828125, 0.030517578125, 0, 
122, 1040437542, 0.14545086026191711, -0.07256525009870529, -0.650783121585846, -0.7416602373123169, 1.9721696376800537, 1.4440556764602661, -0.46708035469055176, -10.882930755615234, 0.5106620788574219, -93.09960174560547, -0.958984375, -1.072509765625, 0.0224609375, 0, 
123, 1040445875, 0.14113660156726837, -0.06865593791007996, -0.650363028049469, -0.7432329058647156, 1.6172391176223755, 1.3765449523925781, -0.13940969109535217, -11.30928897857666, 2.32951283454895, -80.35649108886719, -0.939208984375, -1.082763671875, 0.0224609375, 0, 
124, 1040454208, 0.13708306849002838, -0.06544061005115509, -0.6498997807502747, -0.7446852922439575, 1.155287742614746, 1.2740951776504517, 0.10858755558729172, -11.774994850158691, -2.459259510040283, -71.20134735107422, -0.931884765625, -1.093017578125, 0.01806640625, 0, 
125, 1040462541, 0.13383054733276367, -0.06269246339797974, -0.6493905782699585, -0.7459564805030823, 1.3551949262619019, 1.5188798904418945, -0.06520608812570572, -10.784868240356445, -0.1635858118534088, -58.449337005615234, -0.918212890625, -1.10205078125, 0.0185546875, 0, 
126, 1040470874, 0.13106794655323029, -0.060636915266513824, -0.6490435600280762, -0.7469184994697571, 0.7772661447525024, 1.4306306838989258, 0.03696896880865097, -7.208949089050293, -3.4405746459960938, -46.80109786987305, -0.907470703125, -1.104248046875, 0.01123046875, 0, 
127, 1040479207, 0.12891098856925964, -0.059132710099220276, -0.6489576101303101, -0.7474889755249023, 0.7830789089202881, 1.483639121055603, -0.1303183138370514, -1.5246890783309937, -4.512542247772217, -35.180015563964844, -0.8974609375, -1.10986328125, 0.0126953125, 0, 
128, 1040487540, 0.12729060649871826, -0.05821429193019867, -0.6493258476257324, -0.7475188374519348, 0.6931660771369934, 1.5233134031295776, -0.10865220427513123, 7.357631206512451, -6.993741512298584, -23.844003677368164, -0.897705078125, -1.115478515625, 0.0166015625, 0, 
129, 1040495873, 0.12610502541065216, -0.05794113129377365, -0.6500691771507263, -0.7470949292182922, 0.681369423866272, 1.6266210079193115, -0.06041992828249931, 14.493410110473633, -10.759917259216309, -13.120908737182617, -0.89013671875, -1.115478515625, 0.01708984375, 0, 
130, 1040504206, 0.12540079653263092, -0.058221589773893356, -0.6510721445083618, -0.7463177442550659, 0.646199643611908, 1.5951952934265137, -0.0217524915933609, 19.735036849975586, -12.861900329589844, -2.817298173904419, -0.895263671875, -1.113525390625, 0.019775390625, 0, 
131, 1040512539, 0.1251365840435028, -0.05898982286453247, -0.6522555351257324, -0.7452678084373474, 0.5928491950035095, 1.725714921951294, 0.05726534500718117, 23.546411514282227, -14.472884178161621, 6.386862754821777, -0.893310546875, -1.11083984375, 0.02587890625, 0, 
132, 1040520872, 0.12518909573554993, -0.06026679277420044, -0.6537292003631592, -0.7438642978668213, 0.3909144103527069, 2.112563371658325, 0.20500263571739197, 29.07070541381836, -17.63231086730957, 14.572443962097168, -0.89453125, -1.11376953125, 0.032958984375, 0, 
133, 1040529205, 0.12535792589187622, -0.06232627481222153, -0.6555810570716858, -0.7420342564582825, 0.5243798494338989, 2.4733493328094482, 0.16273051500320435, 35.52698516845703, -25.594823837280273, 23.215219497680664, -0.896240234375, -1.108642578125, 0.0361328125, 0, 
134, 1040537538, 0.1258736401796341, -0.06500470638275146, -0.6575300693511963, -0.7399896383285522, 0.9937271475791931, 2.812385320663452, 0.04070743918418884, 37.67853927612305, -29.141965866088867, 32.62409210205078, -0.900146484375, -1.109375, 0.047607421875, 0, 
135, 1040545871, 0.12689168751239777, -0.06836125254631042, -0.6593263149261475, -0.737912118434906, 1.2014833688735962, 2.9711110591888428, 0.17518751323223114, 35.69840621948242, -31.25897216796875, 44.05769348144531, -0.90625, -1.102783203125, 0.057861328125, 0, 
136, 1040554204, 0.12837660312652588, -0.07237724214792252, -0.6610367298126221, -0.7357389330863953, 1.5653084516525269, 3.094820261001587, 0.06970348209142685, 34.976348876953125, -33.66862106323242, 55.023292541503906, -0.918212890625, -1.09521484375, 0.06689453125, 0, 
137, 1040562537, 0.13067249953746796, -0.07681913673877716, -0.6626620292663574, -0.7334186434745789, 1.9791067838668823, 3.2417871952056885, -0.1510487198829651, 35.51604080200195, -30.590816497802734, 67.4430160522461, -0.9326171875, -1.089111328125, 0.077392578125, 0, 
138, 1040570870, 0.13368165493011475, -0.08181244879961014, -0.664573609828949, -0.7306011915206909, 2.3140242099761963, 3.2110531330108643, -0.6049656867980957, 42.6914176940918, -30.69085693359375, 80.2567367553711, -0.932861328125, -1.080322265625, 0.0791015625, 0, 
139, 1040579203, 0.1373457908630371, -0.0870296061038971, -0.6670448184013367, -0.7270582318305969, 2.1434855461120605, 2.915348768234253, -0.8730815649032593, 55.274051666259766, -28.800243377685547, 89.58354949951172, -0.95166015625, -1.072021484375, 0.095458984375, 0, 
140, 1040587536, 0.14158719778060913, -0.09243945777416229, -0.6700146794319153, -0.7228335738182068, 2.636225938796997, 2.186058759689331, -1.183435320854187, 66.83467102050781, -27.202415466308594, 97.8140640258789, -0.9697265625, -1.054443359375, 0.107666015625, 0, 
141, 1040595869, 0.1464519500732422, -0.09772834181785583, -0.6731260418891907, -0.7182634472846985, 2.7553353309631348, 1.645287275314331, -0.9034320712089539, 72.4592056274414, -20.958921432495117, 103.3883285522461, -0.984130859375, -1.050537109375, 0.120849609375, 0, 
142, 1040604202, 0.15188804268836975, -0.10323698073625565, -0.6760494112968445, -0.7136032581329346, 3.102870464324951, 1.6577813625335693, -0.4575522541999817, 71.75666809082031, -17.59164810180664, 111.49943542480469, -1.00244140625, -1.031982421875, 0.131103515625, 0, 
143, 1040612535, 0.1576160490512848, -0.1092647910118103, -0.6786473989486694, -0.7089827060699463, 2.9061498641967773, 2.2048113346099854, 0.22884126007556915, 67.53038787841797, -19.228469848632812, 119.56997680664062, -1.019775390625, -1.0166015625, 0.14794921875, 0, 
144, 1040620868, 0.16348052024841309, -0.1160566508769989, -0.6815921664237976, -0.7037310004234314, 3.4696247577667236, 3.190727710723877, -0.10155002027750015, 75.34001159667969, -27.107994079589844, 128.8723907470703, -1.04345703125, -0.997314453125, 0.1552734375, 0, 
145, 1040629201, 0.16920211911201477, -0.12386813759803772, -0.6854864358901978, -0.6972346305847168, 3.2300198078155518, 4.138663291931152, -0.5977811217308044, 93.68570709228516, -42.43175506591797, 138.33682250976562, -1.05615234375, -0.978271484375, 0.177978515625, 0, 
146, 1040637534, 0.1755925863981247, -0.1320476084947586, -0.6901534795761108, -0.689506471157074, 4.349857330322266, 4.254674434661865, -1.5503463745117188, 112.98165893554688, -43.546119689941406, 149.76022338867188, -1.08349609375, -0.955322265625, 0.197509765625, 0, 
147, 1040645867, 0.1831049621105194, -0.13999244570732117, -0.6946054100990295, -0.6814677119255066, 5.52219295501709, 4.36018180847168, -2.4848129749298096, 116.50178527832031, -30.7232666015625, 159.3216094970703, -1.1025390625, -0.934326171875, 0.218505859375, 0, 
148, 1040654200, 0.19159366190433502, -0.14817999303340912, -0.6980227828025818, -0.673868715763092, 6.194056510925293, 4.700022220611572, -2.276195526123047, 103.86994171142578, -20.212223052978516, 171.66159057617188, -1.129638671875, -0.905029296875, 0.2373046875, 0, 
149, 1040662533, 0.20049798488616943, -0.1570398211479187, -0.7006692886352539, -0.6664847731590271, 6.795589447021484, 5.567429542541504, -2.1400723457336426, 93.74372863769531, -19.991342544555664, 182.9849853515625, -1.154052734375, -0.87548828125, 0.253173828125, 0, 
150, 1040670866, 0.21018458902835846, -0.1663050800561905, -0.7025421261787415, -0.6592419743537903, 7.887060642242432, 6.423694610595703, -1.8357588052749634, 85.84976959228516, -13.71678352355957, 195.32301330566406, -1.17431640625, -0.84912109375, 0.2646484375, 0, 
151, 1040679199, 0.22057442367076874, -0.17628763616085052, -0.7033253908157349, -0.6523827910423279, 7.90843391418457, 7.344436168670654, -1.1792516708374023, 71.81401062011719, -9.413166046142578, 210.03225708007812, -1.20458984375, -0.815673828125, 0.2763671875, 0, 
152, 1040687532, 0.23090225458145142, -0.1877288520336151, -0.7033452987670898, -0.6455600261688232, 7.7981367111206055, 8.246624946594238, -1.1200249195098877, 60.0143928527832, -20.690961837768555, 225.30018615722656, -1.234619140625, -0.778564453125, 0.28857421875, 0, 
153, 1040695865, 0.24223068356513977, -0.19973042607307434, -0.702306866645813, -0.6389033198356628, 9.822641372680664, 8.29327392578125, -1.5293676853179932, 49.84088134765625, -12.204279899597168, 241.83407592773438, -1.2607421875, -0.7392578125, 0.2919921875, 0, 
154, 1040704198, 0.25354573130607605, -0.2120203971862793, -0.7004327774047852, -0.63257896900177, 9.993352890014648, 8.502148628234863, -1.2051795721054077, 38.26826095581055, -11.167314529418945, 245.66114807128906, -1.29296875, -0.696533203125, 0.30029296875, 0, 
155, 1040712531, 0.26515042781829834, -0.22405603528022766, -0.6975201368331909, -0.6268654465675354, 11.527125358581543, 8.445268630981445, -1.1002744436264038, 25.103961944580078, -0.7640628218650818, 246.65980529785156, -1.322265625, -0.6572265625, 0.303466796875, 0, 
156, 1040720864, 0.2763608396053314, -0.23613673448562622, -0.6935644149780273, -0.6219586133956909, 11.919764518737793, 9.189037322998047, -0.43881604075431824, 6.970613479614258, 1.3548847436904907, 243.92947387695312, -1.345458984375, -0.615478515625, 0.307861328125, 0, 
157, 1040729197, 0.28660181164741516, -0.24823403358459473, -0.6883113980293274, -0.6184391379356384, 12.837210655212402, 9.310744285583496, 0.29450878500938416, -20.546066284179688, 1.4024479389190674, 234.77084350585938, -1.36962890625, -0.58154296875, 0.302978515625, 0, 
158, 1040737530, 0.2953587472438812, -0.2602173388004303, -0.6819588541984558, -0.6164272427558899, 13.82403564453125, 9.254150390625, -0.22360771894454956, -48.808502197265625, -2.1883981227874756, 218.83792114257812, -1.3896484375, -0.5419921875, 0.297607421875, 0, 
159, 1040745863, 0.30284762382507324, -0.27146705985069275, -0.6752393841743469, -0.6153380870819092, 12.997516632080078, 9.545042991638184, -0.9748066067695618, -62.10701370239258, -3.0780270099639893, 198.81512451171875, -1.412841796875, -0.509765625, 0.291259765625, 0, 
160, 1040754196, 0.30977126955986023, -0.2818829417228699, -0.6691209077835083, -0.6138902306556702, 11.535835266113281, 9.94487476348877, -1.2458460330963135, -52.34676742553711, -5.107247829437256, 185.48941040039062, -1.430908203125, -0.481689453125, 0.28173828125, 0, 
161, 1040762529, 0.3161478042602539, -0.29174110293388367, -0.6635031700134277, -0.612128734588623, 11.005191802978516, 9.191690444946289, -0.6088804006576538, -44.95883560180664, -8.787652015686035, 175.18092346191406, -1.44287109375, -0.45263671875, 0.281005859375, 0, 
162, 1040770862, 0.321631520986557, -0.30175650119781494, -0.657572329044342, -0.610815167427063, 11.70002269744873, 8.608577728271484, -0.4717586934566498, -55.97935104370117, -15.095968246459961, 168.35958862304688, -1.461669921875, -0.42431640625, 0.281005859375, 0, 
163, 1040779195, 0.32658109068870544, -0.31188324093818665, -0.6512946486473083, -0.6098273396492004, 12.617646217346191, 8.615137100219727, -1.0014010667800903, -64.51515197753906, -17.9793758392334, 164.92726135253906, -1.46533203125, -0.395751953125, 0.27099609375, 0, 
164, 1040787528, 0.33163928985595703, -0.321759968996048, -0.6448228359222412, -0.6088427901268005, 11.72851276397705, 8.48949146270752, -1.194472312927246, -64.61363220214844, -14.018841743469238, 164.36648559570312, -1.481201171875, -0.370361328125, 0.2734375, 0, 
165, 1040795861, 0.33662864565849304, -0.33173784613609314, -0.6382374167442322, -0.607687771320343, 10.657405853271484, 8.425788879394531, -0.7123705148696899, -64.78746032714844, -15.717196464538574, 166.01953125, -1.488037109375, -0.340576171875, 0.2666015625, 0, 
166, 1040804194, 0.34120821952819824, -0.3417760133743286, -0.6318643689155579, -0.6062291264533997, 10.44091510772705, 8.420938491821289, -0.24008753895759583, -62.52214431762695, -22.173622131347656, 163.50802612304688, -1.49755859375, -0.315673828125, 0.273193359375, 0, 
167, 1040812527, 0.3452807068824768, -0.3516686260700226, -0.6259005069732666, -0.6044495105743408, 10.719354629516602, 8.386362075805664, 0.27752265334129333, -57.996337890625, -28.808605194091797, 157.64938354492188, -1.505859375, -0.28955078125, 0.267333984375, 0, 
168, 1040820860, 0.34892451763153076, -0.3613891303539276, -0.6201315522193909, -0.6025667190551758, 10.862730979919434, 8.463845252990723, 0.3658669888973236, -56.76639175415039, -32.4740104675293, 152.10418701171875, -1.515869140625, -0.26611328125, 0.268798828125, 0, 
169, 1040829193, 0.35201379656791687, -0.3709520995616913, -0.6143825054168701, -0.6008455753326416, 10.439837455749512, 8.771011352539062, 0.3751862347126007, -59.959163665771484, -35.206199645996094, 145.33953857421875, -1.513916015625, -0.234619140625, 0.273681640625, 0, 
170, 1040837526, 0.3543489873409271, -0.3804979622364044, -0.6087239980697632, -0.5992607474327087, 10.072291374206543, 8.91985034942627, 0.7339915633201599, -64.1504898071289, -41.16170120239258, 137.79849243164062, -1.523681640625, -0.2138671875, 0.276123046875, 0, 
171, 1040845859, 0.3561112880706787, -0.3899863064289093, -0.6032471656799316, -0.5976525545120239, 9.928327560424805, 8.827127456665039, 1.2550740242004395, -65.15174865722656, -46.50813674926758, 131.80154418945312, -1.523193359375, -0.19287109375, 0.280029296875, 0, 
172, 1040854192, 0.35775312781333923, -0.3992215096950531, -0.597989022731781, -0.5958559513092041, 9.826936721801758, 8.559141159057617, 2.1030240058898926, -61.2134895324707, -47.497249603271484, 128.42311096191406, -1.52978515625, -0.17626953125, 0.287353515625, 0, 
173, 1040862525, 0.35965025424957275, -0.4078282117843628, -0.5932270288467407, -0.593641459941864, 10.2484769821167, 8.159388542175293, 3.1059489250183105, -49.20136260986328, -44.99384307861328, 124.71778106689453, -1.5341796875, -0.147216796875, 0.29248046875, 0, 
174, 1040870858, 0.3619871139526367, -0.4151405394077301, -0.5897064208984375, -0.5906524658203125, 11.026765823364258, 7.501393795013428, 3.1660943031311035, -23.898801803588867, -41.30880355834961, 114.58409118652344, -1.533447265625, -0.1240234375, 0.296875, 0, 
175, 1040879191, 0.36510810256004333, -0.42056772112846375, -0.5876867771148682, -0.5868931412696838, 10.62775707244873, 7.01093864440918, 2.9382691383361816, 8.419188499450684, -31.521883010864258, 100.96260070800781, -1.535888671875, -0.110595703125, 0.3037109375, 0, 
176, 1040887524, 0.368882417678833, -0.4243316948413849, -0.5871980786323547, -0.582294762134552, 9.699119567871094, 6.746988773345947, 2.4333503246307373, 39.67456817626953, -25.348926544189453, 88.12619018554688, -1.5390625, -0.089111328125, 0.308349609375, 0, 
177, 1040895857, 0.3729083240032196, -0.42677268385887146, -0.5879736542701721, -0.5771411657333374, 9.821795463562012, 6.4817914962768555, 1.623328685760498, 62.47119140625, -22.385746002197266, 74.92212677001953, -1.539306640625, -0.07080078125, 0.3134765625, 0, 
178, 1040904190, 0.3768724799156189, -0.4280509352684021, -0.5896543860435486, -0.5718807578086853, 10.369491577148438, 6.432172775268555, 0.9365968704223633, 76.10375213623047, -18.92620086669922, 60.248558044433594, -1.53515625, -0.0517578125, 0.318603515625, 0, 
179, 1040912523, 0.3807685971260071, -0.42824873328208923, -0.5922318696975708, -0.5664628148078918, 10.200560569763184, 6.695072174072266, -0.22911404073238373, 89.64898681640625, -16.555824279785156, 46.50817108154297, -1.535400390625, -0.03857421875, 0.320068359375, 0, 
180, 1040920856, 0.3844250738620758, -0.4277871549129486, -0.5953118801116943, -0.5610878467559814, 9.961830139160156, 7.0806097984313965, -1.352582573890686, 95.23046112060547, -15.75301742553711, 36.07391357421875, -1.53955078125, -0.0234375, 0.326904296875, 0, 
181, 1040929189, 0.38789835572242737, -0.4268948435783386, -0.5985689759254456, -0.5558878183364868, 10.434676170349121, 7.518404960632324, -2.4265689849853516, 96.38749694824219, -13.832952499389648, 29.180618286132812, -1.534912109375, -0.0126953125, 0.331298828125, 0, 
182, 1040937522, 0.391248881816864, -0.42580315470695496, -0.6013373732566833, -0.5513709187507629, 10.862221717834473, 7.78757905960083, -2.6476058959960938, 87.37020111083984, -6.702359199523926, 25.818260192871094, -1.535888671875, -0.002685546875, 0.329345703125, 0, 
183, 1040945855, 0.3946523070335388, -0.4245385527610779, -0.6034725308418274, -0.5475746393203735, 10.518378257751465, 7.9473114013671875, -2.2188363075256348, 77.84910583496094, 2.6749868392944336, 24.62753677368164, -1.538818359375, 0.010009765625, 0.334228515625, 0, 
184, 1040954188, 0.39760205149650574, -0.42361873388290405, -0.605373203754425, -0.5440434813499451, 10.221474647521973, 8.373400688171387, -2.315497875213623, 69.36207580566406, -0.8653041124343872, 24.002073287963867, -1.5380859375, 0.0126953125, 0.336669921875, 0, 
185, 1040962521, 0.39987120032310486, -0.4231846332550049, -0.6067862510681152, -0.5411361455917358, 10.626754760742188, 8.615096092224121, -1.7644869089126587, 53.90140151977539, -3.8654427528381348, 22.385038375854492, -1.5390625, 0.025146484375, 0.3369140625, 0, 
186, 1040970854, 0.4010768532752991, -0.42339932918548584, -0.6070842742919922, -0.5397401452064514, 10.672056198120117, 7.865448951721191, 0.21277791261672974, 23.232023239135742, -2.637896776199341, 18.069522857666016, -1.537109375, 0.0302734375, 0.33740234375, 0, 
187, 1040979187, 0.40100663900375366, -0.42428386211395264, -0.6061034798622131, -0.540199875831604, 10.62060832977295, 6.882205963134766, 1.7633121013641357, -12.870144844055176, -0.4065108001232147, 11.395903587341309, -1.537841796875, 0.031005859375, 0.340576171875, 0, 
188, 1040987520, 0.40002697706222534, -0.42537298798561096, -0.6046844720840454, -0.5416578650474548, 10.793484687805176, 6.6946282386779785, 1.6028169393539429, -30.891036987304688, -1.2618223428726196, 3.413022994995117, -1.540283203125, 0.026611328125, 0.338134765625, 0, 
189, 1040995853, 0.39873695373535156, -0.4260607063770294, -0.6035687327384949, -0.5433104038238525, 10.96410083770752, 6.963893413543701, 0.8537699580192566, -29.846208572387695, -1.3863589763641357, -5.0971479415893555, -1.533447265625, 0.0263671875, 0.33544921875, 0, 
190, 1041004186, 0.39722713828086853, -0.4261769652366638, -0.6028223633766174, -0.5451505184173584, 11.182562828063965, 7.2479472160339355, 0.2997538447380066, -26.791166305541992, 0.13455168902873993, -14.651826858520508, -1.537353515625, 0.022705078125, 0.33447265625, 0, 
191, 1041012519, 0.39548352360725403, -0.4258560538291931, -0.6022167801856995, -0.5473340749740601, 11.111021041870117, 7.7788896560668945, 0.18516172468662262, -27.569976806640625, 2.714343547821045, -22.752317428588867, -1.536865234375, 0.016357421875, 0.335205078125, 0, 
192, 1041020852, 0.3934273421764374, -0.4252636432647705, -0.6017560958862305, -0.5497778058052063, 11.168905258178711, 8.264049530029297, -0.28184208273887634, -28.980653762817383, 2.903032064437866, -29.588329315185547, -1.54150390625, 0.005126953125, 0.335693359375, 0, 
193, 1041029185, 0.39118894934654236, -0.42433422803878784, -0.6013004779815674, -0.5525845289230347, 11.162337303161621, 8.326889038085938, -0.43717747926712036, -31.19782829284668, 6.040360927581787, -35.77702331542969, -1.537841796875, 0.00048828125, 0.3310546875, 0, 
194, 1041037518, 0.3886271119117737, -0.42315128445625305, -0.6008634567260742, -0.5557655096054077, 11.150589942932129, 8.213348388671875, -0.16165269911289215, -34.650943756103516, 7.375485897064209, -42.414588928222656, -1.5361328125, -0.0107421875, 0.330078125, 0, 
195, 1041045851, 0.3857446312904358, -0.42186418175697327, -0.6002703309059143, -0.559381365776062, 11.73664379119873, 8.173418045043945, -0.2768367826938629, -40.76784133911133, 8.887222290039062, -47.180850982666016, -1.53759765625, -0.02099609375, 0.325927734375, 0, 
196, 1041054184, 0.3827363848686218, -0.4203832745552063, -0.5994188189506531, -0.5634607672691345, 12.086318969726562, 8.070115089416504, -0.12080207467079163, -46.2650032043457, 13.397454261779785, -50.66085433959961, -1.537841796875, -0.036376953125, 0.3271484375, 0, 
197, 1041062517, 0.37955808639526367, -0.4186776876449585, -0.5983681082725525, -0.5679792761802673, 12.164580345153809, 7.781380653381348, -0.10216348618268967, -51.24678421020508, 17.326557159423828, -55.036582946777344, -1.536376953125, -0.0498046875, 0.322998046875, 0, 
198, 1041070850, 0.3763708174228668, -0.4166129529476166, -0.5972883701324463, -0.5727351903915405, 12.230541229248047, 7.355424880981445, 0.3877596855163574, -51.599552154541016, 21.567338943481445, -59.07912826538086, -1.53857421875, -0.064453125, 0.315185546875, 0, 
199, 1041079183, 0.373149037361145, -0.4141622483730316, -0.5965594053268433, -0.5773619413375854, 12.46982192993164, 7.205796718597412, 0.35207313299179077, -45.98251724243164, 21.777965545654297, -63.91822814941406, -1.53955078125, -0.080078125, 0.3125, 0, 
200, 1041087516, 0.36990228295326233, -0.41122013330459595, -0.5962931513786316, -0.5818119645118713, 12.683363914489746, 7.083555221557617, -0.027215253561735153, -38.46767807006836, 22.078989028930664, -69.8141860961914, -1.535400390625, -0.097900390625, 0.30712890625, 0, 
201, 1041095849, 0.3665848672389984, -0.40773698687553406, -0.5963082313537598, -0.5863300561904907, 12.760567665100098, 6.758455753326416, 0.3581850826740265, -34.43486785888672, 24.797178268432617, -76.81551361083984, -1.538330078125, -0.10986328125, 0.302490234375, 0, 
202, 1041104182, 0.36304935812950134, -0.4038573205471039, -0.5966830253601074, -0.5908165574073792, 12.456780433654785, 6.529178142547607, 0.9764599204063416, -30.488691329956055, 24.198566436767578, -83.61537170410156, -1.536865234375, -0.134521484375, 0.29736328125, 0, 
203, 1041112515, 0.3593575954437256, -0.3994893729686737, -0.5975885987281799, -0.5951125025749207, 12.623093605041504, 6.0277557373046875, 1.3964062929153442, -23.05249786376953, 23.192108154296875, -90.95423126220703, -1.533447265625, -0.1494140625, 0.2900390625, 0, 
204, 1041120848, 0.3555285632610321, -0.39445436000823975, -0.599017322063446, -0.599319338798523, 12.572876930236816, 5.876665115356445, 1.553741693496704, -15.481520652770996, 24.43048858642578, -99.92938232421875, -1.53515625, -0.16943359375, 0.282958984375, 0, 
205, 1041129181, 0.35132741928100586, -0.3888351619243622, -0.6009842753410339, -0.6034853458404541, 12.384527206420898, 6.229877948760986, 1.3696390390396118, -9.886773109436035, 23.345016479492188, -110.59272003173828, -1.528076171875, -0.1904296875, 0.279541015625, 0, 
206, 1041137514, 0.3468096852302551, -0.38262084126472473, -0.603551983833313, -0.6074946522712708, 12.338576316833496, 6.583130836486816, 0.7148677110671997, -2.4125726222991943, 21.908504486083984, -120.52880096435547, -1.52294921875, -0.21826171875, 0.27685546875, 0, 
207, 1041145847, 0.34211599826812744, -0.37579378485679626, -0.6065642833709717, -0.6114049553871155, 12.17695426940918, 7.090485572814941, 0.6256164908409119, 4.108277797698975, 22.9439640045166, -129.0160369873047, -1.517333984375, -0.243408203125, 0.272705078125, 0, 
208, 1041154180, 0.33720123767852783, -0.3686601221561432, -0.6098159551620483, -0.615231454372406, 12.017498970031738, 7.866983890533447, 1.0821516513824463, 7.156759262084961, 22.10416603088379, -134.21128845214844, -1.5146484375, -0.267333984375, 0.270263671875, 0, 
209, 1041162513, 0.33193814754486084, -0.3614504635334015, -0.6130226254463196, -0.6191722750663757, 12.364461898803711, 8.676213264465332, 1.1470531225204468, 4.366918087005615, 20.630367279052734, -138.160888671875, -1.505859375, -0.295166015625, 0.26416015625, 0, 
210, 1041170846, 0.32621824741363525, -0.35417047142982483, -0.6159897446632385, -0.6234597563743591, 12.865804672241211, 9.770465850830078, 0.8564581274986267, -2.514070510864258, 20.171119689941406, -142.96902465820312, -1.4970703125, -0.323486328125, 0.2626953125, 0, 
211, 1041179179, 0.32005608081817627, -0.34672975540161133, -0.6187203526496887, -0.6281148791313171, 13.153463363647461, 10.34798812866211, 0.40515026450157166, -9.118632316589355, 20.676273345947266, -148.6873321533203, -1.491943359375, -0.35009765625, 0.2568359375, 0, 
212, 1041187512, 0.313478022813797, -0.33905303478240967, -0.6209540367126465, -0.6333961486816406, 13.425943374633789, 10.86211109161377, 0.34092068672180176, -19.641260147094727, 24.336671829223633, -154.6048583984375, -1.4775390625, -0.37939453125, 0.25146484375, 0, 
213, 1041195845, 0.3064228296279907, -0.33109647035598755, -0.6226826310157776, -0.6393329501152039, 13.698667526245117, 10.943211555480957, 0.6662519574165344, -30.69886016845703, 27.94611930847168, -161.69204711914062, -1.473388671875, -0.413330078125, 0.24755859375, 0, 
214, 1041204178, 0.29884323477745056, -0.3228591978549957, -0.6240049004554749, -0.6458115577697754, 13.724611282348633, 10.922317504882812, 1.002516269683838, -40.0805549621582, 30.090944290161133, -169.06509399414062, -1.458251953125, -0.444580078125, 0.236572265625, 0, 
215, 1041212511, 0.29063472151756287, -0.3142005503177643, -0.6250616312026978, -0.652769148349762, 13.512197494506836, 10.106948852539062, 0.3441878855228424, -47.64546203613281, 31.665918350219727, -179.13197326660156, -1.44580078125, -0.482666015625, 0.228759765625, 0, 
216, 1041220844, 0.28211215138435364, -0.30501678586006165, -0.6259323954582214, -0.659989595413208, 13.677435874938965, 9.468183517456055, -0.09475859999656677, -50.78652572631836, 35.552616119384766, -186.6348876953125, -1.430908203125, -0.518310546875, 0.21630859375, 0, 
217, 1041229177, 0.27338719367980957, -0.2954200506210327, -0.6267856955528259, -0.6671779155731201, 13.110696792602539, 8.761371612548828, 0.17865490913391113, -49.96128845214844, 37.49947738647461, -191.90599060058594, -1.41796875, -0.55517578125, 0.209228515625, 0, 
218, 1041237510, 0.26438942551612854, -0.2854597866535187, -0.6275020241737366, -0.6744274497032166, 12.875779151916504, 8.374954223632812, 0.01254253089427948, -51.45753479003906, 39.226593017578125, -197.1439971923828, -1.400390625, -0.591064453125, 0.19189453125, 0, 
219, 1041245843, 0.25520431995391846, -0.2751619815826416, -0.6278209686279297, -0.6819074749946594, 12.852581977844238, 8.215058326721191, 0.04406189173460007, -56.670597076416016, 43.10955810546875, -201.14584350585938, -1.379150390625, -0.6240234375, 0.184814453125, 0, 
220, 1041254176, 0.2458800971508026, -0.2643722593784332, -0.6276320219039917, -0.6897308826446533, 12.859386444091797, 8.16897964477539, -0.14600452780723572, -63.177188873291016, 49.57233428955078, -205.91329956054688, -1.359130859375, -0.666259765625, 0.16748046875, 0, 
221, 1041262509, 0.23662225902080536, -0.25337129831314087, -0.627293050289154, -0.6973641514778137, 11.872270584106445, 7.961299419403076, 0.04720210283994675, -62.024532318115234, 51.99732208251953, -205.98703002929688, -1.334228515625, -0.7041015625, 0.151123046875, 0, 
222, 1041270842, 0.2273634672164917, -0.24229511618614197, -0.6268301606178284, -0.7047575116157532, 11.275434494018555, 7.376106262207031, 0.04530354589223862, -60.87171173095703, 52.2574462890625, -205.3709716796875, -1.31298828125, -0.738525390625, 0.140380859375, 0, 
223, 1041279175, 0.21788959205150604, -0.23132406175136566, -0.6261090040206909, -0.7120400071144104, 10.453256607055664, 6.929981231689453, -0.032399967312812805, -63.49284362792969, 49.841575622558594, -205.4039764404297, -1.28662109375, -0.776123046875, 0.1181640625, 0, 
224, 1041287508, 0.20820307731628418, -0.22036240994930267, -0.6253425478935242, -0.7190541625022888, 10.386894226074219, 6.326594352722168, -1.0516976118087769, -62.301631927490234, 47.193485260009766, -206.40283203125, -1.26025390625, -0.809326171875, 0.103515625, 0, 
225, 1041295841, 0.1984328031539917, -0.20922888815402985, -0.6242676377296448, -0.7260428667068481, 9.685103416442871, 5.378048896789551, -0.819481372833252, -64.92512512207031, 48.986549377441406, -207.75555419921875, -1.234375, -0.83642578125, 0.091064453125, 0, 
226, 1041304174, 0.1884482502937317, -0.19803878664970398, -0.6230664849281311, -0.7328411936759949, 8.827383995056152, 4.598170757293701, -0.8580674529075623, -64.98085021972656, 47.498992919921875, -209.45289611816406, -1.205810546875, -0.873779296875, 0.074462890625, 0, 
227, 1041312507, 0.178047776222229, -0.18706245720386505, -0.6220276355743408, -0.7391809225082397, 8.014301300048828, 3.7234058380126953, -1.355817198753357, -61.1367301940918, 40.12100601196289, -211.11276245117188, -1.17431640625, -0.903564453125, 0.05810546875, 0, 
228, 1041320840, 0.16747435927391052, -0.17624521255493164, -0.6213967204093933, -0.7448195815086365, 7.378999710083008, 3.045957088470459, -1.5627697706222534, -51.8017578125, 34.2123908996582, -210.8095245361328, -1.1416015625, -0.93408203125, 0.04248046875, 0, 
229, 1041329173, 0.15689478814601898, -0.1654549390077591, -0.620952308177948, -0.7499514222145081, 7.2702555656433105, 2.3442113399505615, -1.5465103387832642, -45.662471771240234, 32.23594665527344, -209.95883178710938, -1.114013671875, -0.966796875, 0.0302734375, 0, 
230, 1041337506, 0.1461092233657837, -0.15482501685619354, -0.6207377910614014, -0.7545633912086487, 6.034956455230713, 1.4127894639968872, -1.316881775856018, -39.642433166503906, 27.136653900146484, -210.09213256835938, -1.0791015625, -0.99072265625, 0.01806640625, 0, 
231, 1041345839, 0.13545957207679749, -0.14426259696483612, -0.620732843875885, -0.7586369514465332, 5.0856428146362305, 0.7965691685676575, -0.892263650894165, -32.741981506347656, 26.036767959594727, -207.4926300048828, -1.0419921875, -1.019775390625, 0.010498046875, 0, 
232, 1041354172, 0.12448467314243317, -0.13410763442516327, -0.6209820508956909, -0.7621680498123169, 3.7572131156921387, 0.4723081588745117, -0.564831018447876, -26.849349975585938, 17.461334228515625, -206.8905487060547, -1.009765625, -1.04052734375, 0.002685546875, 0, 
233, 1041362505, 0.11348268389701843, -0.12435297667980194, -0.6211407780647278, -0.7654033303260803, 3.606431245803833, 0.6698225140571594, -0.13574625551700592, -26.021427154541016, 12.640939712524414, -203.09304809570312, -0.97705078125, -1.064208984375, -0.004150390625, 0, 
234, 1041370838, 0.10302737355232239, -0.11520817875862122, -0.6209700703620911, -0.7684457898139954, 3.3000543117523193, 0.7169761657714844, 0.21875818073749542, -27.84670066833496, 11.0660982131958, -191.26473999023438, -0.9384765625, -1.087646484375, -0.01220703125, 0, 
235, 1041379171, 0.09343018382787704, -0.10656095296144485, -0.6205112934112549, -0.7712857127189636, 2.7036781311035156, 0.5070579648017883, 0.46132147312164307, -28.519804000854492, 13.233471870422363, -177.20213317871094, -0.907470703125, -1.107666015625, -0.015380859375, 0, 
236, 1041387504, 0.08479205518960953, -0.0982106477022171, -0.6198054552078247, -0.7739550471305847, 2.049940824508667, -0.031793080270290375, 0.7761932611465454, -28.654983520507812, 18.328462600708008, -163.92750549316406, -0.876953125, -1.122802734375, -0.0263671875, 0, 
237, 1041395837, 0.07727460563182831, -0.09037523716688156, -0.618799090385437, -0.7764978408813477, 1.2630523443222046, -0.1743086725473404, 0.8664857745170593, -29.86423110961914, 22.58609390258789, -147.0433807373047, -0.85009765625, -1.13720703125, -0.033203125, 0, 
238, 1041404170, 0.07068675756454468, -0.08308834582567215, -0.617654025554657, -0.7788475751876831, 0.7900171875953674, -0.2939136326313019, 1.1917206048965454, -29.123394012451172, 24.542583465576172, -132.088134765625, -0.8232421875, -1.147216796875, -0.040283203125, 0, 
239, 1041412503, 0.0650034248828888, -0.07638175785541534, -0.6163160800933838, -0.7810859680175781, 0.22396107017993927, -0.39101535081863403, 1.3765722513198853, -29.779727935791016, 26.07343864440918, -117.12610626220703, -0.805419921875, -1.158935546875, -0.049072265625, 0, 
240, 1041420836, 0.060136862099170685, -0.07020688056945801, -0.614621639251709, -0.783386766910553, -0.34633544087409973, -0.7753546833992004, 1.437044620513916, -33.74345397949219, 27.693111419677734, -103.53653717041016, -0.781005859375, -1.16845703125, -0.05859375, 0, 
241, 1041429169, 0.05607729032635689, -0.06470777839422226, -0.6127472519874573, -0.7856266498565674, -0.8563793897628784, -0.9347931742668152, 1.033187985420227, -34.95983123779297, 27.30124855041504, -88.89637756347656, -0.76611328125, -1.17529296875, -0.06787109375, 0, 
242, 1041437502, 0.052689746022224426, -0.060094207525253296, -0.6111000776290894, -0.7875081896781921, -1.1693270206451416, -1.0980875492095947, 0.615742564201355, -29.555789947509766, 22.89006996154785, -74.12124633789062, -0.7529296875, -1.185791015625, -0.076904296875, 0, 
243, 1041445835, 0.049927763640880585, -0.05646897479891777, -0.6097642779350281, -0.7889905571937561, -1.7065385580062866, -0.9641833305358887, 0.3680276572704315, -23.04264259338379, 16.900747299194336, -58.98823165893555, -0.738525390625, -1.18408203125, -0.081298828125, 0, 
244, 1041454168, 0.04802349954843521, -0.053855326026678085, -0.6087138056755066, -0.7901018261909485, -0.8781765103340149, -0.8467894792556763, 0.11695632338523865, -16.849727630615234, 12.628201484680176, -41.180789947509766, -0.732421875, -1.18994140625, -0.08642578125, 0, 
245, 1041462501, 0.047069400548934937, -0.05208805575966835, -0.6079297065734863, -0.7908810377120972, -0.8159072399139404, -1.1941229104995728, -0.04979932680726051, -11.043828010559082, 10.968841552734375, -23.73622703552246, -0.72412109375, -1.194091796875, -0.088623046875, 0, 
246, 1041470834, 0.04709136486053467, -0.050952181220054626, -0.6073831915855408, -0.7913735508918762, -0.465129554271698, -1.604426383972168, -0.01753370836377144, -5.752791881561279, 11.928167343139648, -7.832540035247803, -0.7197265625, -1.195068359375, -0.09765625, 0, 
247, 1041479167, 0.047996386885643005, -0.050319746136665344, -0.6072017550468445, -0.7914989590644836, -0.2664324641227722, -1.5360156297683716, -0.0026581687852740288, 1.556679606437683, 13.306211471557617, 5.97029447555542, -0.722412109375, -1.1962890625, -0.1005859375, 0, 
248, 1041487500, 0.049516066908836365, -0.05032450705766678, -0.607824444770813, -0.7909268140792847, -0.20330791175365448, -1.0232902765274048, -0.30007630586624146, 16.162744522094727, 10.495950698852539, 17.878950119018555, -0.722900390625, -1.193603515625, -0.094970703125, 0, 
249, 1041495833, 0.05150463804602623, -0.05099790543317795, -0.6096256375312805, -0.7893689870834351, -0.034032270312309265, -0.5475238561630249, -0.6966938376426697, 37.06536102294922, 5.650537490844727, 28.428043365478516, -0.7265625, -1.1923828125, -0.09619140625, 0, 
250, 1041504166, 0.053896479308605194, -0.05226941406726837, -0.6125659942626953, -0.7868458032608032, -0.024515876546502113, -0.21174779534339905, -0.5658800005912781, 57.40559005737305, 1.0640324354171753, 37.69765853881836, -0.729736328125, -1.19189453125, -0.083984375, 0, 
251, 1041512499, 0.05672487989068031, -0.05419761314988136, -0.6162030100822449, -0.7836703062057495, 0.42718374729156494, 0.33242830634117126, -0.3474452495574951, 70.2430191040039, -3.3575093746185303, 47.94452667236328, -0.74169921875, -1.188232421875, -0.073486328125, 0, 
252, 1041520832, 0.06006193161010742, -0.05667901784181595, -0.6203652620315552, -0.7799533605575562, 0.49066081643104553, 0.8201530575752258, -0.018373699858784676, 80.46031188964844, -5.808320999145508, 58.138668060302734, -0.75439453125, -1.183837890625, -0.057373046875, 0, 
253, 1041529165, 0.06398860365152359, -0.05984870344400406, -0.624959409236908, -0.7757253050804138, 0.8094154000282288, 1.6432812213897705, 0.1562597006559372, 89.32352447509766, -8.929954528808594, 70.42587280273438, -0.76123046875, -1.17822265625, -0.0458984375, 0, 
254, 1041537498, 0.06864991039037704, -0.063704714179039, -0.6299943923950195, -0.7709320187568665, 1.0143228769302368, 2.1792383193969727, 0.25344210863113403, 98.90431213378906, -10.799057960510254, 84.28395080566406, -0.77978515625, -1.17041015625, -0.027587890625, 0, 
255, 1041545831, 0.07394871115684509, -0.06805182993412018, -0.635222852230072, -0.765762984752655, 1.1165605783462524, 2.588827133178711, -0.21912389993667603, 104.2882308959961, -10.985794067382812, 95.49539947509766, -0.793701171875, -1.162841796875, -0.00830078125, 0, 
256, 1041554164, 0.0796864777803421, -0.07283244282007217, -0.640772819519043, -0.7601027488708496, 1.4059505462646484, 2.9937191009521484, -0.8027851581573486, 111.95177459716797, -12.498944282531738, 104.09221649169922, -0.805419921875, -1.153076171875, 0.011474609375, 0, 
257, 1041562497, 0.08575491607189178, -0.07829292863607407, -0.6464827656745911, -0.7540403604507446, 1.6596589088439941, 3.2669193744659424, -1.4360769987106323, 116.73677062988281, -17.274456024169922, 113.83078002929688, -0.827392578125, -1.142822265625, 0.03369140625, 0, 
258, 1041570830, 0.09225913882255554, -0.08418284356594086, -0.6519811153411865, -0.7478784918785095, 2.448517084121704, 3.2772862911224365, -1.3571977615356445, 115.4056396484375, -17.717952728271484, 122.49785614013672, -0.849609375, -1.128662109375, 0.0556640625, 0, 
259, 1041579163, 0.09949977695941925, -0.09017137438058853, -0.656731903553009, -0.7420729994773865, 2.8002824783325195, 3.2974917888641357, -0.9333367347717285, 105.23217010498047, -10.759913444519043, 131.38478088378906, -0.8740234375, -1.1142578125, 0.080322265625, 0, 
260, 1041587496, 0.10732099413871765, -0.09640242159366608, -0.6608588695526123, -0.7365151047706604, 3.286214828491211, 3.6000590324401855, -0.6150029897689819, 97.03106689453125, -6.828429698944092, 139.91815185546875, -0.893310546875, -1.102783203125, 0.093994140625, 0, 
261, 1041595829, 0.11563682556152344, -0.10292787849903107, -0.6650159358978271, -0.7306079864501953, 3.5645029544830322, 3.848175525665283, -0.8115376830101013, 100.71984100341797, -5.825699806213379, 148.0951690673828, -0.920654296875, -1.082275390625, 0.115966796875, 0, 
262, 1041604162, 0.12449115514755249, -0.10950776189565659, -0.6698129773139954, -0.7237821817398071, 4.194395542144775, 3.8568928241729736, -1.7890175580978394, 116.2378158569336, -3.764199733734131, 154.53892517089844, -0.946044921875, -1.0615234375, 0.131103515625, 0, 
263, 1041612495, 0.13409312069416046, -0.11585599929094315, -0.6747753024101257, -0.7164320945739746, 4.376175403594971, 3.5094447135925293, -1.8626478910446167, 124.22325897216797, 4.353630065917969, 160.51612854003906, -0.9765625, -1.047119140625, 0.152099609375, 0, 
264, 1041620828, 0.14414037764072418, -0.1225355714559555, -0.6794837713241577, -0.7088800668716431, 4.536432266235352, 3.468139171600342, -1.6598591804504395, 123.694580078125, 5.356629848480225, 168.72525024414062, -1.00439453125, -1.0205078125, 0.168212890625, 0, 
265, 1041629161, 0.15413689613342285, -0.12995080649852753, -0.6838967800140381, -0.7011706233024597, 4.750641822814941, 3.8168678283691406, -1.4487162828445435, 120.74298095703125, -1.958324909210205, 175.94505310058594, -1.033935546875, -0.9951171875, 0.189697265625, 0, 
266, 1041637494, 0.16441397368907928, -0.13784924149513245, -0.6876065135002136, -0.6936593651771545, 5.806037902832031, 4.534358501434326, -1.8200671672821045, 111.57592010498047, -2.1289498805999756, 183.9958038330078, -1.057861328125, -0.966552734375, 0.205078125, 0, 
267, 1041645827, 0.17538583278656006, -0.14613188803195953, -0.691130518913269, -0.6857290267944336, 6.829983234405518, 5.3285722732543945, -3.486523389816284, 114.2145004272461, 0.39743563532829285, 195.59341430664062, -1.0927734375, -0.9443359375, 0.218994140625, 0, 
268, 1041654160, 0.18692927062511444, -0.1546187400817871, -0.6952992677688599, -0.6765424609184265, 8.016322135925293, 6.0640668869018555, -5.036923408508301, 132.88479614257812, -0.17531302571296692, 204.61607360839844, -1.119140625, -0.910888671875, 0.239501953125, 0, 
269, 1041662493, 0.19940276443958282, -0.16329288482666016, -0.6995285153388977, -0.6665089130401611, 9.458178520202637, 6.478890419006348, -4.953665256500244, 143.0505828857422, 5.017000198364258, 217.15365600585938, -1.15478515625, -0.876708984375, 0.255126953125, 0, 
270, 1041670826, 0.21261104941368103, -0.1721736490726471, -0.7024194002151489, -0.6570843458175659, 10.475574493408203, 6.8500213623046875, -3.612983226776123, 125.98954772949219, 15.228468894958496, 227.15692138671875, -1.18408203125, -0.8359375, 0.275634765625, 0, 
271, 1041679159, 0.22599337995052338, -0.18231476843357086, -0.7029849290847778, -0.6492308378219604, 11.689676284790039, 7.552848815917969, -1.8743937015533447, 86.54596710205078, 16.04210662841797, 241.8726348876953, -1.215576171875, -0.80078125, 0.28466796875, 0, 
272, 1041687492, 0.23905140161514282, -0.19402730464935303, -0.701900839805603, -0.6422953009605408, 12.716078758239746, 8.822000503540039, -1.6074070930480957, 57.2111930847168, 6.2958984375, 255.38624572753906, -1.25146484375, -0.75244140625, 0.29248046875, 0, 
273, 1041695825, 0.25208792090415955, -0.2068178355693817, -0.6998667120933533, -0.6355037689208984, 14.093056678771973, 9.723483085632324, -2.6652274131774902, 43.86363220214844, 0.08171471208333969, 267.7303466796875, -1.283447265625, -0.7138671875, 0.2958984375, 0, 
274, 1041704158, 0.2644299268722534, -0.21943393349647522, -0.6977302432060242, -0.6285684108734131, 15.35419750213623, 11.089559555053711, -3.5506558418273926, 42.94290542602539, -5.126556396484375, 260.6872863769531, -1.313232421875, -0.670654296875, 0.298583984375, 0, 
275, 1041712491, 0.2759109139442444, -0.23014310002326965, -0.6956561803817749, -0.6220691800117493, 14.88546085357666, 12.094069480895996, -3.9528400897979736, 43.67397689819336, 4.179579257965088, 233.2538604736328, -1.338623046875, -0.6279296875, 0.309814453125, 0, 
276, 1041720824, 0.28721609711647034, -0.23907211422920227, -0.6936700344085693, -0.6157705783843994, 11.29989242553711, 11.888750076293945, -2.1245601177215576, 48.66914749145508, 18.028091430664062, 213.58164978027344, -1.3642578125, -0.592041015625, 0.30419921875, 0, 
277, 1041729157, 0.2967464327812195, -0.24918141961097717, -0.6901755928993225, -0.6111531853675842, 9.269001960754395, 10.282888412475586, 0.004672052804380655, 9.393996238708496, 2.587085723876953, 208.22348022460938, -1.38427734375, -0.552978515625, 0.3046875, 0, 
278, 1041737490, 0.3038269281387329, -0.2615237236022949, -0.6849857568740845, -0.6083496809005737, 9.99289608001709, 10.283135414123535, 0.7958096265792847, -39.61922073364258, -26.29060173034668, 207.1370849609375, -1.403564453125, -0.515869140625, 0.298095703125, 0, 
279, 1041745823, 0.3097265660762787, -0.27498891949653625, -0.6795557737350464, -0.6055203676223755, 12.2253999710083, 10.563506126403809, -0.018420947715640068, -50.28310012817383, -45.90605545043945, 208.90780639648438, -1.4208984375, -0.478515625, 0.305419921875, 0, 
280, 1041754156, 0.31582656502723694, -0.28823795914649963, -0.6736575365066528, -0.602791965007782, 13.280698776245117, 10.678040504455566, -0.2831142842769623, -53.48686218261719, -39.85282516479492, 209.79898071289062, -1.435302734375, -0.450927734375, 0.302734375, 0, 
281, 1041762489, 0.32220205664634705, -0.301513135433197, -0.6668210029602051, -0.6005211472511292, 11.85078239440918, 10.787882804870605, 0.28602927923202515, -64.48432159423828, -31.632173538208008, 214.154541015625, -1.44970703125, -0.41748046875, 0.3056640625, 0, 
282, 1041770822, 0.3282783627510071, -0.3152310848236084, -0.6591335535049438, -0.5986701250076294, 11.45242691040039, 10.69290828704834, 0.8184882402420044, -78.59937286376953, -32.508670806884766, 217.31478881835938, -1.462646484375, -0.38037109375, 0.30322265625, 0, 
283, 1041779155, 0.3333810567855835, -0.3289570212364197, -0.6512836217880249, -0.597054660320282, 12.681313514709473, 10.469765663146973, 0.7042164206504822, -86.29573822021484, -39.6580696105957, 209.10975646972656, -1.47705078125, -0.345703125, 0.30419921875, 0, 
284, 1041787488, 0.33787885308265686, -0.3417666256427765, -0.6434907913208008, -0.595779538154602, 12.47409439086914, 9.861536026000977, 0.3914562463760376, -87.44129943847656, -36.265716552734375, 194.02316284179688, -1.481201171875, -0.31298828125, 0.30419921875, 0, 
285, 1041795821, 0.3418344557285309, -0.3539554178714752, -0.6354784369468689, -0.5950062274932861, 11.567395210266113, 9.13584041595459, 0.8409602642059326, -93.31130981445312, -32.60771179199219, 182.88133239746094, -1.4970703125, -0.285888671875, 0.302734375, 0, 
286, 1041804154, 0.34519389271736145, -0.3659495711326599, -0.6273109912872314, -0.5944774150848389, 12.119330406188965, 8.429990768432617, 1.2451491355895996, -98.73719787597656, -34.289695739746094, 175.8158416748047, -1.505615234375, -0.251953125, 0.305419921875, 0, 
287, 1041812487, 0.34831249713897705, -0.3775861859321594, -0.6193493008613586, -0.5937289595603943, 12.142041206359863, 7.792784690856934, 1.8028149604797363, -94.64273834228516, -35.54167938232422, 170.860107421875, -1.509033203125, -0.23193359375, 0.3037109375, 0, 
288, 1041820820, 0.35149136185646057, -0.3889886140823364, -0.612183690071106, -0.591923177242279, 11.971117973327637, 8.07331371307373, 2.2705283164978027, -77.7522964477539, -42.414241790771484, 170.20164489746094, -1.521484375, -0.20458984375, 0.30859375, 0, 
289, 1041829153, 0.3552485704421997, -0.3994409143924713, -0.606491208076477, -0.5885695815086365, 12.761541366577148, 8.991031646728516, 2.007103204727173, -44.993648529052734, -45.2163200378418, 166.59832763671875, -1.51904296875, -0.17431640625, 0.312255859375, 0, 
290, 1041837486, 0.3599662482738495, -0.40786194801330566, -0.6026522517204285, -0.5838522911071777, 12.5106782913208, 10.043400764465332, 1.6025948524475098, -3.4388768672943115, -37.3032341003418, 153.82798767089844, -1.521484375, -0.14404296875, 0.317138671875, 0, 
291, 1041845819, 0.36514756083488464, -0.4143063724040985, -0.6004752516746521, -0.5783141255378723, 11.609297752380371, 10.758965492248535, 1.2187336683273315, 29.11506462097168, -30.42995834350586, 135.99049377441406, -1.52587890625, -0.11767578125, 0.320556640625, 0, 
292, 1041854152, 0.3699656128883362, -0.41923433542251587, -0.5994082689285278, -0.5727808475494385, 11.59939193725586, 10.712377548217773, 0.9236425757408142, 43.43842315673828, -26.90472984313965, 114.15699005126953, -1.531494140625, -0.087158203125, 0.331298828125, 0, 
293, 1041862485, 0.3737873136997223, -0.42297253012657166, -0.5989664793014526, -0.5679935216903687, 11.80477523803711, 10.246927261352539, 0.3301107883453369, 42.5327033996582, -24.636268615722656, 89.1769027709961, -1.531005859375, -0.06640625, 0.331298828125, 0, 
294, 1041870818, 0.37704265117645264, -0.4254398047924042, -0.5989855527877808, -0.5639649033546448, 10.8727445602417, 9.838050842285156, -0.2877587676048279, 43.11219024658203, -17.32768440246582, 67.64178466796875, -1.5263671875, -0.050048828125, 0.33642578125, 0, 
295, 1041879151, 0.37985560297966003, -0.42676424980163574, -0.5998455882072449, -0.5601497888565063, 10.490303993225098, 9.589897155761719, -0.9311768412590027, 51.221431732177734, -15.222545623779297, 48.83171463012695, -1.53173828125, -0.034912109375, 0.340087890625, 0, 
296, 1041887484, 0.38247227668762207, -0.42688360810279846, -0.6016032099723816, -0.5563802719116211, 10.928753852844238, 9.332311630249023, -1.1910157203674316, 62.89896011352539, -11.978103637695312, 31.82616424560547, -1.53076171875, -0.026611328125, 0.345458984375, 0, 
297, 1041895817, 0.38498926162719727, -0.42609214782714844, -0.6036867499351501, -0.5529839396476746, 10.976360321044922, 9.190558433532715, -0.5856100916862488, 66.51268005371094, -5.358072280883789, 19.700119018554688, -1.52880859375, -0.016357421875, 0.349609375, 0, 
298, 1041904150, 0.3873592019081116, -0.4249415099620819, -0.6054635643959045, -0.5502651333808899, 10.833637237548828, 9.457781791687012, 0.1720469892024994, 59.586734771728516, 1.7399804592132568, 13.77714729309082, -1.532470703125, -0.009033203125, 0.346435546875, 0, 
299, 1041912483, 0.3896324634552002, -0.42367181181907654, -0.6066768765449524, -0.5482993125915527, 10.821174621582031, 9.693694114685059, 0.921142041683197, 49.13279724121094, 9.2422513961792, 11.367597579956055, -1.52978515625, -0.007080078125, 0.349365234375, 0, 
300, 1041920816, 0.3916674852371216, -0.42255961894989014, -0.6072187423706055, -0.5471066832542419, 10.998373031616211, 9.7318696975708, 1.4532392024993896, 35.38663864135742, 14.167010307312012, 10.637516975402832, -1.53466796875, -0.002685546875, 0.344482421875, 0, 
301, 1041929149, 0.3933611512184143, -0.4212493300437927, -0.6082026958465576, -0.5458075404167175, 10.77170181274414, 9.419032096862793, 1.102329969406128, 38.685508728027344, 9.810315132141113, 4.438542366027832, -1.53515625, 0.00390625, 0.338623046875, 0, 
302, 1041937482, 0.3947097063064575, -0.4195047914981842, -0.6095119714736938, -0.5447158217430115, 11.120566368103027, 9.2747802734375, 0.018911035731434822, 39.745819091796875, 9.615801811218262, -4.794466495513916, -1.533203125, 0.00830078125, 0.339599609375, 0, 
303, 1041945815, 0.39591994881629944, -0.41731688380241394, -0.609815239906311, -0.5451786518096924, 11.328301429748535, 8.573662757873535, 0.30613937973976135, 20.787019729614258, 26.21552848815918, -12.176519393920898, -1.538330078125, 0.005615234375, 0.33349609375, 0, 
304, 1041954148, 0.3966565728187561, -0.41494154930114746, -0.6091827154159546, -0.5471598505973816, 11.037012100219727, 7.491813659667969, 2.2174599170684814, -0.6600926518440247, 37.44371032714844, -20.18597984313965, -1.537109375, 0.001708984375, 0.33056640625, 0, 
305, 1041962481, 0.3968832492828369, -0.4124279022216797, -0.6085860133171082, -0.5495548248291016, 10.65357494354248, 7.11818790435791, 2.5787289142608643, -6.013427257537842, 36.39139175415039, -27.653549194335938, -1.54052734375, -0.008544921875, 0.322021484375, 0, 
306, 1041970814, 0.396307110786438, -0.40992534160614014, -0.6084020137786865, -0.5520409345626831, 10.646775245666504, 7.076711177825928, 2.0078985691070557, -8.262284278869629, 27.836502075195312, -36.446861267089844, -1.537353515625, -0.013671875, 0.31640625, 0, 
307, 1041979147, 0.3951232135295868, -0.4072446823120117, -0.6085855960845947, -0.5546650290489197, 10.973361015319824, 7.389688968658447, 1.3143125772476196, -9.089040756225586, 22.895437240600586, -45.39448165893555, -1.5458984375, -0.025146484375, 0.310546875, 0, 
308, 1041987480, 0.3936873972415924, -0.40420910716056824, -0.6090065240859985, -0.5574377775192261, 10.903046607971191, 7.823632717132568, 1.0726840496063232, -7.986450672149658, 23.014122009277344, -52.39159393310547, -1.5439453125, -0.031005859375, 0.3037109375, 0, 
309, 1041995813, 0.39211198687553406, -0.40088361501693726, -0.6095796227455139, -0.5603159070014954, 10.663097381591797, 7.824631690979004, 1.1641184091567993, -6.926638126373291, 23.850622177124023, -57.33690643310547, -1.544921875, -0.046630859375, 0.305419921875, 0, 
310, 1042004146, 0.39048969745635986, -0.3972214162349701, -0.6102982759475708, -0.5632665753364563, 10.626237869262695, 7.411562442779541, 0.5831311941146851, -4.833962917327881, 25.640871047973633, -61.67818832397461, -1.54150390625, -0.05859375, 0.300048828125, 0, 
311, 1042012479, 0.3890209197998047, -0.3932468295097351, -0.6115524172782898, -0.5657063722610474, 10.765279769897461, 6.921766757965088, -0.013430512510240078, 6.0943684577941895, 23.709861755371094, -63.32777404785156, -1.546142578125, -0.074462890625, 0.294921875, 0, 
312, 1042020812, 0.387744665145874, -0.38916316628456116, -0.6130626201629639, -0.5677682161331177, 10.994606971740723, 6.548726558685303, -0.24271152913570404, 12.926324844360352, 22.736513137817383, -62.065982818603516, -1.549072265625, -0.0859375, 0.28759765625, 0, 
313, 1042029145, 0.38623350858688354, -0.38531187176704407, -0.6142839193344116, -0.5701001286506653, 11.492923736572266, 6.504286766052246, -0.5345392227172852, 5.860507488250732, 21.95650291442871, -61.88072204589844, -1.54296875, -0.095458984375, 0.28515625, 0, 
314, 1042037478, 0.3844166100025177, -0.38181138038635254, -0.614595890045166, -0.573337733745575, 11.88031005859375, 6.740037441253662, -0.48299896717071533, -12.368817329406738, 26.21806526184082, -61.2536506652832, -1.543212890625, -0.10888671875, 0.27734375, 0, 
315, 1042045811, 0.3821748197078705, -0.37856215238571167, -0.6140653491020203, -0.5775442123413086, 12.103580474853516, 7.540956020355225, -0.6635823845863342, -30.792476654052734, 30.22096061706543, -63.228904724121094, -1.5390625, -0.120361328125, 0.273681640625, 0, 
316, 1042054144, 0.3795866370201111, -0.3752778470516205, -0.6131036281585693, -0.582395613193512, 12.290961265563965, 8.689120292663574, -0.8006181120872498, -41.24311828613281, 33.16903305053711, -67.36595916748047, -1.53564453125, -0.139892578125, 0.26708984375, 0, 
317, 1042062477, 0.3766898810863495, -0.3717384934425354, -0.611984372138977, -0.5876994132995605, 12.100643157958984, 9.496024131774902, -0.6371523141860962, -46.61945724487305, 35.795631408691406, -73.59252166748047, -1.539794921875, -0.156005859375, 0.257568359375, 0, 
318, 1042070810, 0.3734019696712494, -0.3678378164768219, -0.6107977032661438, -0.5934582948684692, 11.80277156829834, 9.277066230773926, 0.19604897499084473, -51.095706939697266, 38.061973571777344, -81.74537658691406, -1.53759765625, -0.17431640625, 0.24853515625, 0, 
319, 1042079143, 0.36961156129837036, -0.3636644184589386, -0.6097658276557922, -0.5994341969490051, 11.877983093261719, 8.516549110412598, 1.1814696788787842, -52.822120666503906, 36.406585693359375, -90.09651184082031, -1.53564453125, -0.195556640625, 0.23681640625, 0, 
320, 1042087476, 0.3655722141265869, -0.3589448034763336, -0.6093674302101135, -0.6051339507102966, 12.447346687316895, 7.337116241455078, 1.225413203239441, -43.73451614379883, 34.18753433227539, -98.4229965209961, -1.5361328125, -0.217041015625, 0.231689453125, 0, 
321, 1042095809, 0.36152759194374084, -0.3533110022544861, -0.6097947359085083, -0.6104260087013245, 12.607461929321289, 5.9723429679870605, 2.107560873031616, -28.899110794067383, 35.62158966064453, -108.22428894042969, -1.53076171875, -0.23779296875, 0.225830078125, 0, 
322, 1042104142, 0.3573009967803955, -0.3469516634941101, -0.6109226942062378, -0.6154139041900635, 12.343512535095215, 5.304696083068848, 2.5208966732025146, -17.704891204833984, 35.18975067138672, -117.6541519165039, -1.522705078125, -0.26708984375, 0.216064453125, 0, 
323, 1042112475, 0.3527006506919861, -0.340128630399704, -0.6126760840415955, -0.620115339756012, 12.0407075881958, 5.454484462738037, 1.6931350231170654, -9.548144340515137, 31.5690975189209, -126.36310577392578, -1.525146484375, -0.289306640625, 0.209716796875, 0, 
324, 1042120808, 0.34760424494743347, -0.3329951763153076, -0.6148495674133301, -0.6246965527534485, 11.526346206665039, 6.142607688903809, 1.2160415649414062, -5.726759910583496, 27.39362907409668, -134.5194091796875, -1.519287109375, -0.31640625, 0.20458984375, 0, 
325, 1042129141, 0.34202131628990173, -0.32564210891723633, -0.6175950765609741, -0.6289318799972534, 11.863988876342773, 7.209354400634766, 0.49594730138778687, 0.8940810561180115, 20.89208984375, -141.5946044921875, -1.508544921875, -0.34375, 0.19482421875, 0, 
326, 1042137474, 0.3362453579902649, -0.31793561577796936, -0.6208141446113586, -0.6328080892562866, 12.586653709411621, 8.454769134521484, 0.003116895444691181, 8.880523681640625, 18.433563232421875, -146.62774658203125, -1.497314453125, -0.36962890625, 0.195556640625, 0, 
327, 1042145807, 0.3301537036895752, -0.31001290678977966, -0.6242847442626953, -0.6365214586257935, 13.043404579162598, 9.611527442932129, 0.004257200285792351, 12.036480903625488, 15.785533905029297, -151.63755798339844, -1.488525390625, -0.399169921875, 0.19677734375, 0, 
328, 1042154140, 0.32384586334228516, -0.30166980624198914, -0.627699613571167, -0.6404002904891968, 13.497292518615723, 10.29859447479248, -0.41767022013664246, 11.16539192199707, 18.53564453125, -157.5826416015625, -1.47216796875, -0.426513671875, 0.191650390625, 0, 
329, 1042162473, 0.31747007369995117, -0.2927016317844391, -0.6308575868606567, -0.6446376442909241, 13.669090270996094, 10.489023208618164, -0.1466192603111267, 8.259690284729004, 26.117372512817383, -164.17771911621094, -1.468505859375, -0.456787109375, 0.18603515625, 0, 
330, 1042170806, 0.3108401596546173, -0.2829289734363556, -0.633303165435791, -0.6498130559921265, 13.209756851196289, 9.920791625976562, 0.319257915019989, -3.660262107849121, 37.89820098876953, -174.56832885742188, -1.453369140625, -0.48828125, 0.18505859375, 0, 
331, 1042179139, 0.3036371171474457, -0.27274569869041443, -0.6358872056007385, -0.6550283432006836, 12.273588180541992, 9.746898651123047, -0.42712756991386414, -3.287010431289673, 36.16978073120117, -184.04660034179688, -1.44091796875, -0.525146484375, 0.177734375, 0, 
332, 1042187472, 0.29563605785369873, -0.2623578906059265, -0.6379166841506958, -0.6609312295913696, 11.710836410522461, 9.842674255371094, 0.0006886087357997894, -16.39891242980957, 35.8956413269043, -193.74530029296875, -1.419677734375, -0.556396484375, 0.170166015625, 0, 
333, 1042195805, 0.2869755029678345, -0.251787394285202, -0.6393404006958008, -0.6674519181251526, 12.30825138092041, 10.058839797973633, 0.07269024848937988, -28.99813461303711, 36.4972038269043, -201.73898315429688, -1.401611328125, -0.598388671875, 0.159912109375, 0, 
334, 1042204138, 0.2777394950389862, -0.24125856161117554, -0.6399325728416443, -0.6746419072151184, 12.77062702178955, 10.684399604797363, -0.41136670112609863, -44.628143310546875, 36.62481689453125, -206.34840393066406, -1.383544921875, -0.62841796875, 0.1484375, 0, 
335, 1042212471, 0.26828500628471375, -0.23067602515220642, -0.639554500579834, -0.6824823021888733, 12.742195129394531, 10.326790809631348, -0.2283642590045929, -59.91865539550781, 41.09421920776367, -208.18206787109375, -1.359130859375, -0.665283203125, 0.1376953125, 0, 
336, 1042220804, 0.25849783420562744, -0.21999399363994598, -0.6385283470153809, -0.6906976103782654, 12.028401374816895, 9.83381462097168, -0.5887701511383057, -69.93934631347656, 42.66508102416992, -211.4452667236328, -1.33544921875, -0.706787109375, 0.127197265625, 0, 
337, 1042229137, 0.24838808178901672, -0.20933230221271515, -0.6374256610870361, -0.6986931562423706, 11.534080505371094, 8.3706693649292, -1.5348141193389893, -69.83273315429688, 39.26447296142578, -213.38076782226562, -1.3134765625, -0.74267578125, 0.109375, 0, 
338, 1042237470, 0.23846584558486938, -0.1984470784664154, -0.6357951164245605, -0.7067655920982361, 11.108389854431152, 7.265147686004639, -1.419555902481079, -74.23670196533203, 45.061058044433594, -212.22630310058594, -1.29052734375, -0.780029296875, 0.088134765625, 0, 
339, 1042245803, 0.22858020663261414, -0.18729960918426514, -0.6341431140899658, -0.714515745639801, 9.839459419250488, 5.337377548217773, -1.901787519454956, -70.70611572265625, 47.14004135131836, -213.10333251953125, -1.254638671875, -0.816650390625, 0.07421875, 0, 
340, 1042254136, 0.21854890882968903, -0.17586937546730042, -0.6324874758720398, -0.7219876050949097, 8.203307151794434, 4.209244251251221, -1.3262771368026733, -67.76525115966797, 47.92835998535156, -216.07302856445312, -1.229736328125, -0.848876953125, 0.060302734375, 0, 
341, 1042262469, 0.20791089534759521, -0.16452836990356445, -0.6312630772590637, -0.7288421392440796, 7.332315444946289, 3.499629020690918, -1.5879271030426025, -59.88554763793945, 38.98973083496094, -220.5521240234375, -1.197021484375, -0.887451171875, 0.044189453125, 0, 
342, 1042270802, 0.1969507485628128, -0.15313059091567993, -0.6304225921630859, -0.7350707054138184, 6.704576015472412, 3.096972703933716, -1.8919436931610107, -51.148014068603516, 34.22841262817383, -223.32290649414062, -1.166259765625, -0.91650390625, 0.031005859375, 0, 
343, 1042279135, 0.18555700778961182, -0.14182090759277344, -0.6301282644271851, -0.7405362725257874, 5.562153339385986, 2.407655715942383, -1.6609617471694946, -40.18443298339844, 26.512710571289062, -226.05508422851562, -1.1298828125, -0.945556640625, 0.01953125, 0, 
344, 1042287468, 0.1736065298318863, -0.13068071007728577, -0.6304460763931274, -0.7451987862586975, 4.752851963043213, 1.9828007221221924, -1.9538910388946533, -28.491317749023438, 16.835508346557617, -229.3847198486328, -1.09765625, -0.974365234375, 0.011474609375, 0, 
345, 1042295801, 0.1613893359899521, -0.11993013322353363, -0.6314109563827515, -0.7489264011383057, 4.796358585357666, 1.931570291519165, -2.3917298316955566, -15.182562828063965, 7.304094314575195, -227.6857452392578, -1.0625, -1.00439453125, 0.00830078125, 0, 
346, 1042304134, 0.14924193918704987, -0.10944830626249313, -0.6329501867294312, -0.7517462372779846, 4.953838348388672, 1.756710410118103, -2.19594407081604, -1.8551287651062012, 2.372238874435425, -223.56272888183594, -1.021728515625, -1.03466796875, -0.000732421875, 0, 
347, 1042312467, 0.13694126904010773, -0.09923087060451508, -0.6345430016517639, -0.7541590929031372, 4.525632858276367, 1.8845621347427368, -1.383288025856018, 1.4546444416046143, -2.419203042984009, -222.0952606201172, -0.985107421875, -1.056640625, -0.00146484375, 0, 
348, 1042320800, 0.1248127818107605, -0.08944857120513916, -0.6358675956726074, -0.7563684582710266, 3.684047222137451, 1.8628352880477905, -0.7398221492767334, -0.12981827557086945, -5.203310012817383, -215.76998901367188, -0.9453125, -1.082275390625, -0.001220703125, 0, 
349, 1042329133, 0.11305783689022064, -0.08026038855314255, -0.6368453502655029, -0.758422315120697, 3.3276259899139404, 1.7767854928970337, -0.4487134516239166, -2.940368175506592, -7.712325096130371, -205.98670959472656, -0.9130859375, -1.099365234375, 0.005615234375, 0, 
350, 1042337466, 0.10180129110813141, -0.07180669158697128, -0.6370594501495361, -0.7606809735298157, 2.7066588401794434, 2.108611822128296, -0.026904648169875145, -13.297382354736328, -9.59664249420166, -193.85096740722656, -0.878173828125, -1.1181640625, 0.000732421875, 0, 
351, 1042345799, 0.09102479368448257, -0.0646887794137001, -0.6363601088523865, -0.7632665634155273, 1.3795888423919678, 1.674272894859314, 0.5767108201980591, -27.10902976989746, -17.75967025756836, -176.66006469726562, -0.840087890625, -1.1337890625, -0.00537109375, 0, 
352, 1042354132, 0.08113812655210495, -0.05833403021097183, -0.6349465847015381, -0.7660658955574036, 0.7699143290519714, 1.141915202140808, 0.38428446650505066, -36.64163589477539, -16.890254974365234, -160.29937744140625, -0.80908203125, -1.150634765625, -0.004150390625, 0, 
353, 1042362465, 0.07194288074970245, -0.05312541127204895, -0.6331465244293213, -0.7688483595848083, 0.06586141139268875, 0.5691439509391785, 0.44093117117881775, -41.287471771240234, -22.519725799560547, -142.65354919433594, -0.782958984375, -1.1669921875, -0.016845703125, 0, 
354, 1042370798, 0.06390122324228287, -0.048849865794181824, -0.6310588121414185, -0.7715537548065186, 0.02727586403489113, -0.21221058070659637, 0.44414326548576355, -43.74325942993164, -22.112171173095703, -122.07514953613281, -0.758056640625, -1.175048828125, -0.02197265625, 0, 
355, 1042379131, 0.05696341022849083, -0.04538349807262421, -0.6287522315979004, -0.7741875052452087, -0.5449643731117249, -1.230170488357544, 0.6327809691429138, -45.407066345214844, -20.973215103149414, -103.10002899169922, -0.741943359375, -1.184814453125, -0.02880859375, 0, 
356, 1042387464, 0.05118579417467117, -0.042504820972681046, -0.6263585686683655, -0.7766907811164856, -1.1106504201889038, -1.871856689453125, 0.7106800079345703, -44.94709777832031, -17.20534324645996, -85.53829193115234, -0.71484375, -1.18994140625, -0.042236328125, 0, 
357, 1042395797, 0.04639371484518051, -0.04016362130641937, -0.6243771910667419, -0.7787091135978699, -1.5640267133712769, -2.326416254043579, 0.5912350416183472, -36.16436767578125, -15.037395477294922, -70.25341796875, -0.70556640625, -1.197021484375, -0.039306640625, 0, 
358, 1042404130, 0.042375486344099045, -0.03837735205888748, -0.6232069134712219, -0.7799647450447083, -1.9151126146316528, -2.7476158142089844, 0.5027973651885986, -20.854761123657227, -15.276369094848633, -57.19179916381836, -0.693603515625, -1.201416015625, -0.0537109375, 0, 
359, 1042412463, 0.039104633033275604, -0.03708053380250931, -0.6228542327880859, -0.780479907989502, -1.996244192123413, -2.54237961769104, 0.4091402590274811, -5.632747173309326, -14.986109733581543, -44.95295333862305, -0.677490234375, -1.208984375, -0.049072265625, 0, 
360, 1042420796, 0.03666844218969345, -0.036242932081222534, -0.6234548091888428, -0.7801576852798462, -1.6626625061035156, -1.803901195526123, 0.31319817900657654, 11.955177307128906, -13.709127426147461, -32.120304107666016, -0.677001953125, -1.20947265625, -0.04833984375, 0, 
361, 1042429129, 0.035115599632263184, -0.03579184412956238, -0.6248159408569336, -0.7791605591773987, -1.4848865270614624, -1.0792768001556396, 0.8167449831962585, 26.1414794921875, -10.998290061950684, -19.345260620117188, -0.671630859375, -1.203857421875, -0.04736328125, 0, 
362, 1042437462, 0.034451648592948914, -0.03585495054721832, -0.6264664530754089, -0.7778608202934265, -1.3533787727355957, -0.40427958965301514, 1.2621325254440308, 32.038204193115234, -9.147953987121582, -5.414546966552734, -0.66943359375, -1.208251953125, -0.04052734375, 0, 
363, 1042445795, 0.03450440987944603, -0.036501429975032806, -0.6284187436103821, -0.7762519717216492, -1.3019919395446777, 0.2664920687675476, 1.2909901142120361, 38.000526428222656, -9.520413398742676, 7.290807723999023, -0.664306640625, -1.209228515625, -0.03369140625, 0, 
364, 1042454128, 0.03525659441947937, -0.03771698474884033, -0.6309053897857666, -0.7741401791572571, -1.0494840145111084, 0.9968118667602539, 1.2084888219833374, 48.13823699951172, -10.06639289855957, 19.632369995117188, -0.676513671875, -1.2119140625, -0.02294921875, 0, 
365, 1042462461, 0.036655962467193604, -0.03952167183160782, -0.6338807344436646, -0.7715502381324768, -0.6184695363044739, 1.869123935699463, 0.920296311378479, 57.530635833740234, -11.198932647705078, 31.624279022216797, -0.67822265625, -1.207275390625, -0.017333984375, 0, 
366, 1042470794, 0.03849274292588234, -0.042132191359996796, -0.6375855207443237, -0.768263041973114, -0.14860717952251434, 2.5344176292419434, 0.0004039844498038292, 71.19528198242188, -16.67415428161621, 43.23563003540039, -0.6845703125, -1.204833984375, -0.00390625, 0, 
367, 1042479127, 0.04094688966870308, -0.04551175236701965, -0.6419724822044373, -0.764279842376709, 0.4000030755996704, 2.515977621078491, -0.641991376876831, 84.44158172607422, -20.158966064453125, 56.483707427978516, -0.691162109375, -1.196044921875, 0.011962890625, 0, 
368, 1042487460, 0.04444408416748047, -0.04915712773799896, -0.646592378616333, -0.7599520087242126, 0.8225322365760803, 2.14727783203125, -0.7340019941329956, 90.44975280761719, -14.10557746887207, 69.8326187133789, -0.70458984375, -1.194580078125, 0.029541015625, 0, 
369, 1042495793, 0.04892798885703087, -0.05295910686254501, -0.6510695815086365, -0.7555862069129944, 1.0807198286056519, 1.938887119293213, -0.6501691341400146, 89.8510513305664, -6.892456531524658, 81.66473388671875, -0.718994140625, -1.188232421875, 0.04638671875, 0, 
370, 1042504126, 0.0541071780025959, -0.05703037604689598, -0.6553069353103638, -0.7512609362602234, 1.1080631017684937, 1.9471913576126099, -0.2682310938835144, 87.3329849243164, -3.271406412124634, 91.43856811523438, -0.737060546875, -1.177978515625, 0.063232421875, 0, 
371, 1042512459, 0.059990156441926956, -0.061434704810380936, -0.6591930985450745, -0.7470552921295166, 1.1773505210876465, 2.3070075511932373, 0.08816711604595184, 82.92305755615234, -0.01863463968038559, 101.90672302246094, -0.753173828125, -1.17236328125, 0.079345703125, 0, 
372, 1042520792, 0.06635934114456177, -0.06641332060098648, -0.6628267168998718, -0.7428638339042664, 1.5482242107391357, 3.0736465454101562, 0.05606064200401306, 80.142578125, -1.297152042388916, 112.29862976074219, -0.77197265625, -1.158447265625, 0.094970703125, 0, 
373, 1042529125, 0.07292123883962631, -0.07213664799928665, -0.6670924425125122, -0.7378799915313721, 1.7326438426971436, 4.012723922729492, -1.5071890354156494, 93.31245422363281, -8.441628456115723, 121.21371459960938, -0.79736328125, -1.148193359375, 0.109619140625, 0, 
374, 1042537458, 0.07994470000267029, -0.07828227430582047, -0.6725395321846008, -0.7315543293952942, 2.4235997200012207, 4.233153343200684, -2.7925477027893066, 117.65123748779297, -11.004545211791992, 129.92910766601562, -0.81494140625, -1.135498046875, 0.127685546875, 0, 
375, 1042545791, 0.08789688348770142, -0.08430973440408707, -0.6777936220169067, -0.7250946760177612, 2.9276723861694336, 4.061397552490234, -2.8696541786193848, 118.07140350341797, -1.1620237827301025, 138.55043029785156, -0.839599609375, -1.117431640625, 0.14794921875, 0, 
376, 1042554124, 0.09669718891382217, -0.09016363322734833, -0.6820335388183594, -0.7192710041999817, 3.4275588989257812, 4.381295680999756, -2.37083101272583, 103.22164154052734, 10.432689666748047, 145.7793426513672, -0.866455078125, -1.100830078125, 0.164794921875, 0, 
377, 1042562457, 0.10612400621175766, -0.09605489671230316, -0.6853059530258179, -0.7140499949455261, 3.8049943447113037, 4.909104824066162, -1.2709388732910156, 88.72773742675781, 17.97808074951172, 152.74252319335938, -0.88623046875, -1.085693359375, 0.179931640625, 0, 
378, 1042570790, 0.11575893312692642, -0.10246343165636063, -0.6875556111335754, -0.7094849348068237, 4.133376598358154, 5.488062381744385, -0.010811595246195793, 72.01360321044922, 17.203596115112305, 160.02847290039062, -0.919921875, -1.064208984375, 0.19384765625, 0, 
379, 1042579123, 0.12539362907409668, -0.10967691987752914, -0.6894114017486572, -0.7049537897109985, 4.991326808929443, 6.01926326751709, -0.5754141211509705, 66.57618713378906, 10.036996841430664, 168.16433715820312, -0.9453125, -1.04736328125, 0.20068359375, 0, 
380, 1042587456, 0.13538601994514465, -0.11741165816783905, -0.6916782259941101, -0.6996188759803772, 6.1037983894348145, 6.401611328125, -2.038041114807129, 77.82095336914062, 6.466681480407715, 177.3081817626953, -0.97802734375, -1.02587890625, 0.212158203125, 0, 
381, 1042595789, 0.14596402645111084, -0.12520214915275574, -0.6936835050582886, -0.6941344141960144, 6.892034530639648, 6.187035083770752, -1.8451957702636719, 77.57134246826172, 11.734538078308105, 184.2074737548828, -1.005126953125, -0.99755859375, 0.220703125, 0, 
382, 1042604122, 0.15714992582798004, -0.13300783932209015, -0.6943190693855286, -0.6895898580551147, 7.450218200683594, 5.831824779510498, -0.7840884327888489, 56.52938461303711, 21.746843338012695, 190.58290100097656, -1.04052734375, -0.97412109375, 0.235595703125, 0, 
383, 1042612455, 0.1687544733285904, -0.1412615031003952, -0.6934638023376465, -0.6860578060150146, 8.273527145385742, 6.118064880371094, -0.20665979385375977, 32.53803253173828, 26.57791519165039, 199.4108428955078, -1.06787109375, -0.9560546875, 0.235595703125, 0, 
384, 1042620788, 0.18072694540023804, -0.15031607449054718, -0.6915642023086548, -0.6829951405525208, 8.745356559753418, 6.718078136444092, 0.18105259537696838, 17.045318603515625, 25.866374969482422, 211.4046630859375, -1.10302734375, -0.927978515625, 0.236083984375, 0, 
385, 1042629121, 0.1926245391368866, -0.16053788363933563, -0.6889823079109192, -0.6800200939178467, 8.898364067077637, 7.716167449951172, 0.20674113929271698, 6.768296241760254, 16.068134307861328, 223.0524444580078, -1.138916015625, -0.895751953125, 0.23095703125, 0, 
386, 1042637454, 0.20429687201976776, -0.17192798852920532, -0.6862754225730896, -0.6765574216842651, 9.621691703796387, 8.161856651306152, -0.27527350187301636, 6.6074323654174805, 2.2716562747955322, 233.51197814941406, -1.1689453125, -0.865966796875, 0.2294921875, 0, 
387, 1042645787, 0.21507923305034637, -0.18411532044410706, -0.6838948130607605, -0.6724066734313965, 9.63955020904541, 8.307880401611328, -0.2028544545173645, 11.813243865966797, -16.09821319580078, 233.9890899658203, -1.20166015625, -0.834228515625, 0.231201171875, 0, 
388, 1042654120, 0.22526006400585175, -0.19643782079219818, -0.6817944049835205, -0.6677025556564331, 10.779617309570312, 7.539592742919922, -0.7437443733215332, 17.666725158691406, -25.227214813232422, 230.5389404296875, -1.23486328125, -0.801513671875, 0.237548828125, 0, 
389, 1042662453, 0.23509779572486877, -0.2081434726715088, -0.6797977685928345, -0.6627825498580933, 11.796337127685547, 7.823399066925049, -1.7661889791488647, 21.6457462310791, -23.69337272644043, 222.0780487060547, -1.262939453125, -0.760498046875, 0.239501953125, 0, 
390, 1042670786, 0.24548599123954773, -0.2183968871831894, -0.6780950427055359, -0.6574395298957825, 12.60683822631836, 8.920303344726562, -2.7753500938415527, 34.52324676513672, -7.464232444763184, 213.94366455078125, -1.28857421875, -0.729736328125, 0.2490234375, 0, 
391, 1042679119, 0.25550851225852966, -0.22850950062274933, -0.6761563420295715, -0.6521593332290649, 10.606834411621094, 9.181804656982422, -2.267322301864624, 31.208303451538086, -8.621196746826172, 209.92337036132812, -1.3125, -0.696044921875, 0.249755859375, 0, 
392, 1042687452, 0.26431524753570557, -0.23995855450630188, -0.6736829280853271, -0.6470771431922913, 8.47677230834961, 8.783827781677246, -0.06614942848682404, 16.026247024536133, -29.401020050048828, 212.3125457763672, -1.337890625, -0.65869140625, 0.25439453125, 0, 
393, 1042695785, 0.27143004536628723, -0.2536744475364685, -0.6708608865737915, -0.6418107748031616, 9.192207336425781, 8.445711135864258, 0.7808527946472168, 0.8371376395225525, -64.60010528564453, 220.1973876953125, -1.358642578125, -0.62060546875, 0.262451171875, 0, 
394, 1042704118, 0.2773740589618683, -0.2683151960372925, -0.6676932573318481, -0.6365976929664612, 11.998138427734375, 8.274041175842285, -0.19659605622291565, -10.279809951782227, -82.07667541503906, 219.27772521972656, -1.38037109375, -0.587890625, 0.275634765625, 0, 
395, 1042712451, 0.28335845470428467, -0.28211110830307007, -0.6642807722091675, -0.6315479278564453, 13.677494049072266, 8.660377502441406, -0.24328641593456268, -10.512086868286133, -72.78484344482422, 212.27972412109375, -1.396728515625, -0.54833984375, 0.29052734375, 0, 
396, 1042720784, 0.2901822626590729, -0.2946084439754486, -0.6606577634811401, -0.6265233755111694, 12.968960762023926, 8.51820182800293, 0.21312010288238525, -4.28676700592041, -52.90581512451172, 208.2931365966797, -1.410888671875, -0.51416015625, 0.292724609375, 0, 
397, 1042729117, 0.29800236225128174, -0.30633631348609924, -0.6567688584327698, -0.6212950348854065, 12.092385292053223, 8.91901683807373, 1.2017836570739746, 2.4129209518432617, -37.00342559814453, 211.9076385498047, -1.427001953125, -0.4755859375, 0.29736328125, 0, 
398, 1042737450, 0.30643534660339355, -0.3176887035369873, -0.6529654860496521, -0.6154734492301941, 11.457167625427246, 9.4216947555542, 1.7168313264846802, 12.589347839355469, -31.0926570892334, 215.6848602294922, -1.440673828125, -0.440673828125, 0.302734375, 0, 
399, 1042745783, 0.3149538040161133, -0.3288484215736389, -0.6490930914878845, -0.6093777418136597, 11.393448829650879, 9.450348854064941, 1.9356231689453125, 15.683514595031738, -29.61736297607422, 216.2742919921875, -1.456787109375, -0.400146484375, 0.309326171875, 0, 
400, 1042754116, 0.3231658339500427, -0.3395165205001831, -0.6454675197601318, -0.6030457615852356, 11.678482055664062, 8.684953689575195, 1.5950874090194702, 20.577667236328125, -30.359630584716797, 209.08554077148438, -1.468505859375, -0.35791015625, 0.3154296875, 0, 
401, 1042762449, 0.3305145800113678, -0.349964439868927, -0.6420544981956482, -0.5967003107070923, 13.574148178100586, 8.339816093444824, 0.47710472345352173, 19.43614959716797, -37.215370178222656, 199.17828369140625, -1.480224609375, -0.31494140625, 0.318603515625, 0, 
402, 1042770782, 0.33764293789863586, -0.35916510224342346, -0.6388276219367981, -0.5906749963760376, 13.88271713256836, 8.105810165405273, -1.145402431488037, 22.722013473510742, -28.226924896240234, 183.86514282226562, -1.488037109375, -0.280029296875, 0.330078125, 0, 
403, 1042779115, 0.3447835147380829, -0.3675619065761566, -0.6352511048316956, -0.5852167010307312, 11.425530433654785, 8.242999076843262, -1.7209192514419556, 18.714439392089844, -17.169767379760742, 176.1357879638672, -1.496826171875, -0.24755859375, 0.3291015625, 0, 
404, 1042787448, 0.3515769839286804, -0.3758721351623535, -0.6315960884094238, -0.5798279047012329, 10.497199058532715, 8.801759719848633, -1.7918187379837036, 16.1041259765625, -18.7851505279541, 172.5131378173828, -1.505615234375, -0.216552734375, 0.331787109375, 0, 
405, 1042795781, 0.3578850030899048, -0.38392361998558044, -0.6285076141357422, -0.574020504951477, 11.318124771118164, 9.197834014892578, -0.4233786165714264, 23.028059005737305, -25.838584899902344, 165.6309051513672, -1.508544921875, -0.179443359375, 0.335205078125, 0, 
406, 1042804114, 0.36399322748184204, -0.39110007882118225, -0.6263630986213684, -0.5676435232162476, 12.995805740356445, 9.901405334472656, 0.9302611351013184, 38.6200065612793, -28.31376838684082, 154.17489624023438, -1.517822265625, -0.142822265625, 0.343505859375, 0, 
407, 1042812447, 0.369983047246933, -0.3968292772769928, -0.6250219941139221, -0.5612368583679199, 12.785792350769043, 10.949967384338379, 0.9379605054855347, 51.79072952270508, -22.214977264404297, 136.74513244628906, -1.52099609375, -0.116455078125, 0.343505859375, 0, 
408, 1042820780, 0.3755597472190857, -0.40144750475883484, -0.6239844560623169, -0.5553722977638245, 11.612892150878906, 11.784037590026855, -0.3608238101005554, 52.84810256958008, -15.777658462524414, 119.47036743164062, -1.519775390625, -0.091064453125, 0.352294921875, 0, 
409, 1042829113, 0.3802834153175354, -0.4053841531276703, -0.6229186058044434, -0.5504732131958008, 11.090434074401855, 11.630932807922363, -1.34269380569458, 43.181304931640625, -12.414880752563477, 102.39922332763672, -1.5185546875, -0.0654296875, 0.351806640625, 0, 
410, 1042837446, 0.38404837250709534, -0.40904077887535095, -0.6216461658477783, -0.5465792417526245, 10.574981689453125, 10.873323440551758, -1.1723039150238037, 29.106475830078125, -11.823969841003418, 88.53268432617188, -1.523193359375, -0.0458984375, 0.3525390625, 0, 
411, 1042845779, 0.3873611390590668, -0.41217172145843506, -0.6204357147216797, -0.5432549118995667, 10.338513374328613, 10.363855361938477, -0.3373279571533203, 24.954761505126953, -8.863024711608887, 77.38874053955078, -1.52783203125, -0.026123046875, 0.358642578125, 0, 
412, 1042854112, 0.39023810625076294, -0.4145734906196594, -0.6195683479309082, -0.5403500199317932, 10.717535972595215, 10.166311264038086, 0.033074021339416504, 25.34037208557129, -6.586203575134277, 63.64997863769531, -1.523681640625, -0.013916015625, 0.35498046875, 0, 
413, 1042862445, 0.3926857113838196, -0.4160707890987396, -0.6190317273139954, -0.5380361676216125, 11.134188652038574, 10.370116233825684, -0.6200487017631531, 25.180648803710938, -1.924876093864441, 47.77919387817383, -1.528564453125, -0.001953125, 0.354248046875, 0, 
414, 1042870778, 0.39469218254089355, -0.4169284403324127, -0.6186533570289612, -0.5363367199897766, 10.293159484863281, 10.702932357788086, -1.4696356058120728, 22.045101165771484, 1.7057057619094849, 34.7828483581543, -1.527099609375, 0.00634765625, 0.357666015625, 0, 
415, 1042879111, 0.3962748050689697, -0.41757863759994507, -0.6182010173797607, -0.5351844429969788, 9.172263145446777, 10.880796432495117, -2.0478708744049072, 15.548060417175293, 3.1755785942077637, 27.409122467041016, -1.52734375, 0.014892578125, 0.353759765625, 0, 
416, 1042887444, 0.3976266086101532, -0.41808000206947327, -0.6176727414131165, -0.5343995094299316, 9.145970344543457, 10.490619659423828, -2.134141206741333, 11.345218658447266, 4.821345329284668, 22.841150283813477, -1.529296875, 0.018798828125, 0.356201171875, 0, 
417, 1042895777, 0.39895641803741455, -0.4183851480484009, -0.6172053813934326, -0.5337092876434326, 9.971075057983398, 9.928962707519531, -2.0039758682250977, 11.940312385559082, 6.299184322357178, 20.182565689086914, -1.52587890625, 0.02392578125, 0.35595703125, 0, 
418, 1042904110, 0.40063655376434326, -0.4181812107563019, -0.6169766783714294, -0.5328742265701294, 10.750710487365723, 8.802770614624023, -1.0420976877212524, 19.733989715576172, 10.861160278320312, 17.837661743164062, -1.5302734375, 0.027587890625, 0.35302734375, 0, 
419, 1042912443, 0.4022117257118225, -0.41783398389816284, -0.616686224937439, -0.5322959423065186, 11.308145523071289, 7.255131721496582, 0.40370795130729675, 17.28498077392578, 12.842369079589844, 14.810543060302734, -1.531982421875, 0.030517578125, 0.347900390625, 0, 
420, 1042920776, 0.40291139483451843, -0.41772425174713135, -0.6162723302841187, -0.5323321223258972, 11.39183521270752, 6.851074695587158, -0.42744550108909607, 4.809944152832031, 7.8825764656066895, 7.735141277313232, -1.53076171875, 0.034912109375, 0.350830078125, 0, 
421, 1042929109, 0.4028525948524475, -0.41803181171417236, -0.615309476852417, -0.5332484245300293, 11.321857452392578, 7.127292156219482, -1.974500060081482, -13.318572998046875, 6.507194995880127, 3.9870359897613525, -1.536376953125, 0.032470703125, 0.345458984375, 0, 
422, 1042937442, 0.40288710594177246, -0.4181022644042969, -0.6140832901000977, -0.5345789194107056, 11.05571460723877, 6.899186134338379, -0.7603055238723755, -16.89615249633789, 12.869556427001953, 1.9012811183929443, -1.534423828125, 0.0341796875, 0.3466796875, 0, 
423, 1042945775, 0.40271884202957153, -0.4180369973182678, -0.6125761866569519, -0.5364826917648315, 10.549997329711914, 6.642062664031982, 1.7313625812530518, -24.226194381713867, 17.013206481933594, -2.3130440711975098, -1.5390625, 0.031005859375, 0.340576171875, 0, 
424, 1042954108, 0.4018535017967224, -0.41801130771636963, -0.6110095977783203, -0.5389318466186523, 10.520681381225586, 6.455428123474121, 2.370790719985962, -33.46412658691406, 14.314624786376953, -9.77450942993164, -1.535400390625, 0.02587890625, 0.336669921875, 0, 
425, 1042962441, 0.40006494522094727, -0.41794735193252563, -0.6096214652061462, -0.5418762564659119, 10.516790390014648, 6.417999744415283, 1.7718514204025269, -41.41877365112305, 8.700736999511719, -20.72693634033203, -1.5380859375, 0.016357421875, 0.331298828125, 0, 
426, 1042970774, 0.39799854159355164, -0.4173111021518707, -0.6087005734443665, -0.5449149012565613, 10.815657615661621, 6.6911702156066895, 0.8438803553581238, -37.161739349365234, 8.590777397155762, -30.764286041259766, -1.536865234375, 0.009521484375, 0.336669921875, 0, 
427, 1042979107, 0.39615991711616516, -0.41583478450775146, -0.6083356142044067, -0.547783374786377, 10.630109786987305, 6.588343143463135, 0.8352705836296082, -25.681884765625, 12.79063606262207, -38.383445739746094, -1.53466796875, 0.001708984375, 0.3291015625, 0, 
428, 1042987440, 0.39458245038986206, -0.4136531352996826, -0.6084835529327393, -0.550403356552124, 10.368793487548828, 6.436031818389893, 0.5678803324699402, -14.375736236572266, 16.04715919494629, -43.84947967529297, -1.5380859375, -0.009521484375, 0.330078125, 0, 
429, 1042995773, 0.393555611371994, -0.41084805130958557, -0.6090834140777588, -0.5525718331336975, 10.819901466369629, 6.339660167694092, -0.46823176741600037, -0.6902027130126953, 20.378435134887695, -45.06521987915039, -1.5380859375, -0.020263671875, 0.32421875, 0, 
430, 1043004106, 0.3926163911819458, -0.4079988896846771, -0.6096608638763428, -0.5547099709510803, 11.015172004699707, 5.992784023284912, -0.6747404336929321, 0.15089379251003265, 21.364290237426758, -44.422367095947266, -1.539794921875, -0.0322265625, 0.3232421875, 0, 
431, 1043012439, 0.3911576271057129, -0.4056631922721863, -0.6096059679985046, -0.557506799697876, 11.451822280883789, 5.8533782958984375, -0.7427216172218323, -15.904645919799805, 20.232707977294922, -44.145660400390625, -1.53857421875, -0.043212890625, 0.315185546875, 0, 
432, 1043020772, 0.38930463790893555, -0.4037841558456421, -0.608719527721405, -0.5611245632171631, 12.05508041381836, 6.054267883300781, -1.4169468879699707, -33.7873649597168, 22.445207595825195, -43.056339263916016, -1.53955078125, -0.048828125, 0.31298828125, 0, 
433, 1043029105, 0.38728344440460205, -0.4019651710987091, -0.6073682904243469, -0.565278172492981, 12.294295310974121, 6.5999932289123535, -1.0711945295333862, -43.145477294921875, 26.07381820678711, -44.19843292236328, -1.537841796875, -0.062255859375, 0.304931640625, 0, 
434, 1043037438, 0.3849973678588867, -0.399916410446167, -0.6056349873542786, -0.5701318979263306, 12.210609436035156, 7.583582401275635, -0.29343339800834656, -52.17367172241211, 31.522764205932617, -49.72783660888672, -1.543701171875, -0.07177734375, 0.302978515625, 0, 
435, 1043045771, 0.3823929727077484, -0.39754021167755127, -0.6040183901786804, -0.5752386450767517, 11.68676471710205, 8.490835189819336, 0.7297475337982178, -53.412227630615234, 32.239891052246094, -56.9985466003418, -1.540771484375, -0.087646484375, 0.293212890625, 0, 
436, 1043054104, 0.3792501389980316, -0.394803524017334, -0.6027997136116028, -0.5804587602615356, 11.95737075805664, 8.287618637084961, 1.590566635131836, -52.22343063354492, 29.115116119384766, -66.95042419433594, -1.543701171875, -0.101806640625, 0.283447265625, 0, 
437, 1043062437, 0.3757553696632385, -0.39143118262290955, -0.6024405360221863, -0.5853677988052368, 12.650753021240234, 7.375864028930664, 1.912950038909912, -41.41099166870117, 25.133440017700195, -78.14604949951172, -1.542236328125, -0.120849609375, 0.27880859375, 0, 
438, 1043070770, 0.37220868468284607, -0.3872572183609009, -0.6030962467193604, -0.5897183418273926, 12.738373756408691, 6.154457092285156, 2.1968209743499756, -24.713687896728516, 22.872997283935547, -87.69795989990234, -1.543212890625, -0.140380859375, 0.2705078125, 0, 
439, 1043079103, 0.3684411942958832, -0.3824785351753235, -0.6046843528747559, -0.5935642123222351, 12.69651985168457, 5.351038932800293, 1.6974740028381348, -11.085003852844238, 18.518587112426758, -96.96930694580078, -1.53564453125, -0.161376953125, 0.265625, 0, 
440, 1043087436, 0.3643541932106018, -0.37703266739845276, -0.6070204973220825, -0.5971754789352417, 12.573637962341309, 5.174643516540527, 1.466039776802063, -1.2871158123016357, 16.240541458129883, -107.78514862060547, -1.53857421875, -0.18505859375, 0.265869140625, 0, 
441, 1043095769, 0.35992100834846497, -0.3709872364997864, -0.6097770929336548, -0.6008305549621582, 12.642489433288574, 6.014334201812744, 1.100917100906372, 2.9683940410614014, 16.437759399414062, -118.11904907226562, -1.5283203125, -0.20849609375, 0.26025390625, 0, 
