PacketCounter,SampleTimeFine,Quat_W,Quat_X,Quat_Y,Quat_Z,Acc_X,Acc_Y,Acc_Z,Gyr_X,Gyr_Y,Gyr_Z,Mag_X,Mag_Y,Mag_Z,Status,
0, 3629217320, -0.3045666217803955, 0.7177356481552124, 0.3502318263053894, 0.5190799236297607, 0, 0, 0, 0, 0, 0, -1.351318359375, 0.230224609375, 0.698486328125, 0, 
1, 3629225653, -0.3045434057712555, 0.717751681804657, 0.3502037525177002, 0.5190904140472412, 9.600105285644531, -0.8151568174362183, -2.7415199279785156, 2.9943552017211914, -1.3051092624664307, 1.4768142700195312, -1.34521484375, 0.224365234375, 0.694580078125, 0, 
2, 3629233986, -0.30452948808670044, 0.7177661657333374, 0.3501763939857483, 0.5190970301628113, 9.616589546203613, -0.8323456048965454, -2.732159376144409, 3.089614152908325, -1.3145095109939575, 1.4481773376464844, -1.344482421875, 0.22802734375, 0.6943359375, 0, 
3, 3629242319, -0.3045195937156677, 0.7177785634994507, 0.3501439690589905, 0.5191075205802917, 9.603903770446777, -0.830035924911499, -2.7270493507385254, 3.110285520553589, -1.1983236074447632, 1.596381664276123, -1.34716796875, 0.2265625, 0.701416015625, 0, 
4, 3629250652, -0.30449265241622925, 0.7178092002868652, 0.3500852584838867, 0.5191207528114319, 9.590710639953613, -0.8368045091629028, -2.7267017364501953, 2.636601686477661, -1.295401692390442, 1.7152831554412842, -1.349609375, 0.225830078125, 0.698974609375, 0, 
5, 3629258985, -0.30443713068962097, 0.7178457975387573, 0.3500301241874695, 0.51913982629776, 9.60197925567627, -0.8093993663787842, -2.7375943660736084, 2.3552799224853516, -1.4118436574935913, 1.5765048265457153, -1.3515625, 0.225830078125, 0.69775390625, 0, 
6, 3629267318, -0.3043902814388275, 0.7178798317909241, 0.34997400641441345, 0.519158124923706, 9.597068786621094, -0.8344482183456421, -2.7346367835998535, 2.4174716472625732, -1.3749079704284668, 1.5429757833480835, -1.351318359375, 0.2275390625, 0.693359375, 0, 
7, 3629275651, -0.3043360710144043, 0.7179149985313416, 0.3499186635017395, 0.5191785097122192, 9.604898452758789, -0.8602614998817444, -2.7178006172180176, 2.3657567501068115, -1.3797492980957031, 1.5744558572769165, -1.35009765625, 0.22705078125, 0.69775390625, 0, 
8, 3629283984, -0.30430227518081665, 0.7179476022720337, 0.34986063838005066, 0.5191923379898071, 9.587873458862305, -0.8739829063415527, -2.7360522747039795, 2.558349847793579, -1.340559482574463, 1.666564702987671, -1.35009765625, 0.23095703125, 0.700927734375, 0, 
9, 3629292317, -0.30425941944122314, 0.7179805636405945, 0.3498144745826721, 0.5192028880119324, 9.59669017791748, -0.8988416194915771, -2.723386764526367, 2.601330518722534, -1.4447070360183716, 1.5961512327194214, -1.349609375, 0.2275390625, 0.69775390625, 0, 
10, 3629300650, -0.3042200207710266, 0.7180123329162598, 0.3497697412967682, 0.5192123651504517, 9.593443870544434, -0.9203006625175476, -2.6812121868133545, 2.624537467956543, -1.4598450660705566, 1.5092421770095825, -1.34814453125, 0.22900390625, 0.7001953125, 0, 
11, 3629308983, -0.3041784167289734, 0.7180448770523071, 0.3497360348701477, 0.519214391708374, 9.592592239379883, -0.9234469532966614, -2.7232229709625244, 2.7438483238220215, -1.5723427534103394, 1.5152103900909424, -1.345703125, 0.2255859375, 0.697021484375, 0, 
12, 3629317316, -0.3041606545448303, 0.7180695533752441, 0.3497001528739929, 0.5192149877548218, 9.596589088439941, -0.925818681716919, -2.7456815242767334, 2.974888324737549, -1.4299018383026123, 1.579655408859253, -1.34765625, 0.228759765625, 0.694580078125, 0, 
13, 3629325649, -0.3041612207889557, 0.7180812954902649, 0.349673330783844, 0.5192164778709412, 9.582727432250977, -0.932945191860199, -2.7314016819000244, 3.2999582290649414, -1.2555201053619385, 1.6512982845306396, -1.345703125, 0.228271484375, 0.6982421875, 0, 
14, 3629333982, -0.30417510867118835, 0.7180919647216797, 0.34965014457702637, 0.519209086894989, 9.600020408630371, -0.932182788848877, -2.6887526512145996, 3.481614589691162, -1.3078243732452393, 1.6450742483139038, -1.34814453125, 0.228759765625, 0.694580078125, 0, 
15, 3629342315, -0.3041939437389374, 0.7180901765823364, 0.3496459126472473, 0.5192033052444458, 9.59910774230957, -0.9607509970664978, -2.6622684001922607, 3.7330446243286133, -1.237641453742981, 1.5246362686157227, -1.35205078125, 0.223388671875, 0.69921875, 0, 
16, 3629350648, -0.30423659086227417, 0.7180835604667664, 0.3496498465538025, 0.5191848874092102, 9.612210273742676, -0.9417171478271484, -2.698896884918213, 4.076684951782227, -1.2696081399917603, 1.5448201894760132, -1.34619140625, 0.22998046875, 0.69384765625, 0, 
17, 3629358981, -0.30429282784461975, 0.7180670499801636, 0.3496710956096649, 0.5191603899002075, 9.584251403808594, -0.9246604442596436, -2.671335220336914, 4.437231063842773, -1.2434046268463135, 1.5461008548736572, -1.346923828125, 0.228759765625, 0.697021484375, 0, 
18, 3629367314, -0.30437302589416504, 0.7180465459823608, 0.3496975898742676, 0.5191237926483154, 9.590139389038086, -0.8966375589370728, -2.715999126434326, 4.7601237297058105, -1.2650997638702393, 1.5999932289123535, -1.35009765625, 0.228271484375, 0.697021484375, 0, 
19, 3629375647, -0.30445265769958496, 0.7180227637290955, 0.3497333526611328, 0.5190859436988831, 9.584696769714355, -0.8878669738769531, -2.689096689224243, 4.865193843841553, -1.2706838846206665, 1.591796636581421, -1.346923828125, 0.226318359375, 0.695068359375, 0, 
20, 3629383980, -0.30454325675964355, 0.7180032730102539, 0.3497697710990906, 0.5190351605415344, 9.614267349243164, -0.8641341328620911, -2.7214767932891846, 4.9976701736450195, -1.4041084051132202, 1.640566349029541, -1.34326171875, 0.2294921875, 0.69677734375, 0, 
21, 3629392313, -0.3046290874481201, 0.71797776222229, 0.34982508420944214, 0.5189828276634216, 9.603351593017578, -0.8699718117713928, -2.707454204559326, 5.1422119140625, -1.4537231922149658, 1.4941552877426147, -1.34814453125, 0.234375, 0.695068359375, 0, 
22, 3629400646, -0.3046962022781372, 0.7179598212242126, 0.34986209869384766, 0.5189434289932251, 9.629210472106934, -0.8444225192070007, -2.735783576965332, 4.705898284912109, -1.4182473421096802, 1.4274555444717407, -1.350830078125, 0.2294921875, 0.6953125, 0, 
23, 3629408979, -0.30475449562072754, 0.7179436683654785, 0.3498991131782532, 0.5189065933227539, 9.588445663452148, -0.8228698968887329, -2.763240337371826, 4.6270060539245605, -1.4250093698501587, 1.4590123891830444, -1.342041015625, 0.225830078125, 0.70068359375, 0, 
24, 3629417312, -0.3048239052295685, 0.7179275751113892, 0.34993332624435425, 0.5188649296760559, 9.59322452545166, -0.8229395151138306, -2.747502088546753, 4.714377403259277, -1.4287749528884888, 1.4897751808166504, -1.34130859375, 0.2294921875, 0.697998046875, 0, 
25, 3629425645, -0.30489423871040344, 0.7179126739501953, 0.34996268153190613, 0.5188244581222534, 9.604716300964355, -0.8255559206008911, -2.7441558837890625, 4.703439712524414, -1.3798004388809204, 1.6423590183258057, -1.345703125, 0.2275390625, 0.69873046875, 0, 
26, 3629433978, -0.3049628734588623, 0.7178928852081299, 0.3499872088432312, 0.5187949538230896, 9.592938423156738, -0.8028139472007751, -2.734534502029419, 4.586536407470703, -1.247733473777771, 1.510087251663208, -1.351318359375, 0.23193359375, 0.695068359375, 0, 
27, 3629442311, -0.30503296852111816, 0.717870831489563, 0.35001516342163086, 0.518765389919281, 9.607643127441406, -0.8003285527229309, -2.7212021350860596, 4.668271064758301, -1.215818166732788, 1.5736362934112549, -1.3486328125, 0.233154296875, 0.692626953125, 0, 
28, 3629450644, -0.3051093816757202, 0.7178477644920349, 0.35004496574401855, 0.5187323093414307, 9.623610496520996, -0.814308762550354, -2.7381904125213623, 4.737916469573975, -1.2436351776123047, 1.5127767324447632, -1.34765625, 0.231201171875, 0.6962890625, 0, 
29, 3629458977, -0.30518805980682373, 0.7178148627281189, 0.3500877022743225, 0.5187026858329773, 9.618247032165527, -0.8090198636054993, -2.746863842010498, 4.9044342041015625, -1.1595691442489624, 1.4365743398666382, -1.348876953125, 0.2294921875, 0.69580078125, 0, 
30, 3629467310, -0.3052632212638855, 0.7177842855453491, 0.3501211404800415, 0.5186783075332642, 9.585960388183594, -0.8039158582687378, -2.753865957260132, 4.739017963409424, -1.1260145902633667, 1.3984348773956299, -1.34765625, 0.22998046875, 0.697509765625, 0, 
31, 3629475643, -0.3053160309791565, 0.7177559733390808, 0.35015225410461426, 0.5186654925346375, 9.586099624633789, -0.8145530223846436, -2.7232749462127686, 4.4663543701171875, -1.1009894609451294, 1.3182110786437988, -1.346435546875, 0.2294921875, 0.6962890625, 0, 
32, 3629483976, -0.3053587079048157, 0.7177428007125854, 0.3501654863357544, 0.5186494588851929, 9.610676765441895, -0.8207644820213318, -2.7011256217956543, 4.153527736663818, -1.2378462553024292, 1.4148279428482056, -1.344970703125, 0.23193359375, 0.6962890625, 0, 
33, 3629492309, -0.3053784966468811, 0.717734694480896, 0.35018283128738403, 0.5186373591423035, 9.645228385925293, -0.8291944861412048, -2.693880081176758, 3.9543516635894775, -1.3413535356521606, 1.313241958618164, -1.346923828125, 0.232666015625, 0.69677734375, 0, 
34, 3629500642, -0.3054063618183136, 0.7177305221557617, 0.35019898414611816, 0.5186157822608948, 9.615742683410645, -0.8608309626579285, -2.700664758682251, 4.031706809997559, -1.4416075944900513, 1.345413327217102, -1.35009765625, 0.230712890625, 0.6982421875, 0, 
35, 3629508975, -0.30541953444480896, 0.7177371382713318, 0.3502008318901062, 0.5185975432395935, 9.61784839630127, -0.8281585574150085, -2.6633174419403076, 3.7441611289978027, -1.471704363822937, 1.5168495178222656, -1.347412109375, 0.232421875, 0.695068359375, 0, 
36, 3629517308, -0.30543023347854614, 0.7177413702011108, 0.3501971662044525, 0.5185879468917847, 9.580239295959473, -0.8163084387779236, -2.670607089996338, 3.6247472763061523, -1.3840779066085815, 1.4060677289962769, -1.346923828125, 0.232666015625, 0.69677734375, 0, 
37, 3629525641, -0.3054543137550354, 0.717739462852478, 0.350217342376709, 0.5185627341270447, 9.603408813476562, -0.8162294030189514, -2.6957690715789795, 4.052018642425537, -1.5048491954803467, 1.4010474681854248, -1.34765625, 0.2275390625, 0.697021484375, 0, 
38, 3629533974, -0.30549517273902893, 0.7177255749702454, 0.3502371609210968, 0.5185444951057434, 9.6089448928833, -0.8530861139297485, -2.663318157196045, 4.201605796813965, -1.2934037446975708, 1.3428518772125244, -1.349609375, 0.228271484375, 0.6953125, 0, 
39, 3629542307, -0.3055419325828552, 0.7176916599273682, 0.35027050971984863, 0.5185412764549255, 9.588648796081543, -0.836972177028656, -2.627509355545044, 4.399219512939453, -1.005269169807434, 1.1876553297042847, -1.346923828125, 0.233154296875, 0.693603515625, 0, 
40, 3629550640, -0.3056270480155945, 0.7176480293273926, 0.35031431913375854, 0.5185219645500183, 9.590463638305664, -0.8470900058746338, -2.7109646797180176, 4.945186138153076, -0.9800902009010315, 1.2810189723968506, -1.348876953125, 0.228759765625, 0.6982421875, 0, 
41, 3629558973, -0.3057042956352234, 0.717596709728241, 0.3503692150115967, 0.5185103416442871, 9.576741218566895, -0.8823612332344055, -2.697481632232666, 4.96636962890625, -0.9077045321464539, 1.14121675491333, -1.350830078125, 0.230224609375, 0.69775390625, 0, 
42, 3629567306, -0.30578064918518066, 0.7175693511962891, 0.3503963053226471, 0.518484890460968, 9.5827054977417, -0.8932997584342957, -2.704693078994751, 4.695473670959473, -1.1286016702651978, 1.4870857000350952, -1.344482421875, 0.2314453125, 0.69921875, 0, 
43, 3629575639, -0.30582195520401, 0.7175641059875488, 0.35040920972824097, 0.5184590816497803, 9.58263874053955, -0.8805927038192749, -2.706716775894165, 4.187466621398926, -1.3751899003982544, 1.5822169780731201, -1.3505859375, 0.23193359375, 0.69580078125, 0, 
44, 3629583972, -0.30585527420043945, 0.7175763845443726, 0.3503873944282532, 0.5184372067451477, 9.590943336486816, -0.869885265827179, -2.723154067993164, 3.7461845874786377, -1.3746006488800049, 1.840126872062683, -1.35009765625, 0.232666015625, 0.69580078125, 0, 
45, 3629592305, -0.30586761236190796, 0.7176046371459961, 0.3503521680831909, 0.5184144973754883, 9.615495681762695, -0.8976604342460632, -2.728151559829712, 3.4031331539154053, -1.5179636478424072, 1.9995498657226562, -1.346435546875, 0.228759765625, 0.6943359375, 0, 
46, 3629600638, -0.30587565898895264, 0.717635989189148, 0.35029563307762146, 0.5184046030044556, 9.638894081115723, -0.9082754254341125, -2.70845627784729, 3.112872362136841, -1.3714756965637207, 2.045168399810791, -1.34765625, 0.22998046875, 0.692626953125, 0, 
47, 3629608971, -0.30586040019989014, 0.717666745185852, 0.3502432107925415, 0.5184065103530884, 9.724763870239258, -0.908148467540741, -2.686962842941284, 2.878937244415283, -1.3548520803451538, 1.8799564838409424, -1.344970703125, 0.23193359375, 0.6962890625, 0, 
48, 3629617304, -0.30584922432899475, 0.7176969051361084, 0.3502001464366913, 0.5184006094932556, 9.77964973449707, -0.947711706161499, -2.675354242324829, 2.994765043258667, -1.4706796407699585, 1.7531150579452515, -1.348876953125, 0.23193359375, 0.6962890625, 0, 
49, 3629625637, -0.3058593273162842, 0.7176992893218994, 0.35015907883644104, 0.5184190273284912, 9.76537799835205, -0.9473684430122375, -2.6865625381469727, 3.2516238689422607, -0.9150556325912476, 1.7429202795028687, -1.349365234375, 0.230712890625, 0.69580078125, 0, 
50, 3629633970, -0.3059122562408447, 0.7176458835601807, 0.3501489460468292, 0.5184686779975891, 9.667821884155273, -0.9051856994628906, -2.596113920211792, 3.941415786743164, -0.1573866754770279, 1.2505638599395752, -1.347412109375, 0.2333984375, 0.701416015625, 0, 
51, 3629642303, -0.30597352981567383, 0.7175785899162292, 0.35019150376319885, 0.5184968709945679, 9.667523384094238, -0.827163577079773, -2.6165475845336914, 4.5966796875, -0.42533719539642334, 0.9056681394577026, -1.34521484375, 0.22802734375, 0.695068359375, 0, 
52, 3629650636, -0.3060799837112427, 0.7174972295761108, 0.35025787353515625, 0.5185016989707947, 9.654350280761719, -0.8860853910446167, -2.6905031204223633, 5.360419750213623, -0.465192973613739, 0.9289771318435669, -1.34765625, 0.23193359375, 0.697021484375, 0, 
53, 3629658969, -0.30621662735939026, 0.7173857688903809, 0.3503272235393524, 0.518528401851654, 9.625536918640137, -0.8670209646224976, -2.708033800125122, 5.724678993225098, 0.12340939044952393, 0.9731873273849487, -1.34619140625, 0.233642578125, 0.693115234375, 0, 
54, 3629667302, -0.30637115240097046, 0.7172634601593018, 0.3503985106945038, 0.5185583829879761, 9.543561935424805, -0.7959862947463989, -2.7000410556793213, 5.921754360198975, 0.2851632237434387, 0.9192948341369629, -1.346923828125, 0.235595703125, 0.69677734375, 0, 
55, 3629675635, -0.30653446912765503, 0.7171317934989929, 0.35051727294921875, 0.5185638666152954, 9.487287521362305, -0.7443678379058838, -2.7265093326568604, 6.527096271514893, -0.020862793549895287, 0.668454647064209, -1.34814453125, 0.236328125, 0.695556640625, 0, 
56, 3629683968, -0.3067006468772888, 0.7169984579086304, 0.35065412521362305, 0.5185570120811462, 9.48896312713623, -0.7671304941177368, -2.8080763816833496, 6.721866607666016, -0.21732395887374878, 0.45898139476776123, -1.349365234375, 0.233642578125, 0.693115234375, 0, 
57, 3629692301, -0.3068535327911377, 0.7168819308280945, 0.3508058190345764, 0.5185251832008362, 9.500936508178711, -0.7965589761734009, -2.806046724319458, 6.775529384613037, -0.6866280436515808, 0.49975940585136414, -1.349365234375, 0.2294921875, 0.694580078125, 0, 
58, 3629700634, -0.30697035789489746, 0.716771125793457, 0.3509458899497986, 0.5185142755508423, 9.515414237976074, -0.8090226054191589, -2.7602431774139404, 6.186683177947998, -0.6729500889778137, 0.19689664244651794, -1.35498046875, 0.23388671875, 0.6953125, 0, 
59, 3629708967, -0.307050883769989, 0.71668541431427, 0.3510727882385254, 0.5184993147850037, 9.527637481689453, -0.7631775736808777, -2.806239128112793, 5.675218105316162, -0.9825235605239868, 0.3060644865036011, -1.346923828125, 0.230712890625, 0.69873046875, 0, 
60, 3629717300, -0.30711236596107483, 0.7166131734848022, 0.3511813282966614, 0.5184891223907471, 9.544221878051758, -0.7612221837043762, -2.811622142791748, 5.245718002319336, -1.0759387016296387, 0.2990973889827728, -1.346923828125, 0.234375, 0.6962890625, 0, 
61, 3629725633, -0.30712029337882996, 0.7165616154670715, 0.3512605130672455, 0.5185021162033081, 9.629985809326172, -0.729167640209198, -2.7671475410461426, 4.3395891189575195, -1.101962924003601, 0.30396413803100586, -1.351318359375, 0.23193359375, 0.694580078125, 0, 
62, 3629733966, -0.3070884346961975, 0.7165199518203735, 0.35131120681762695, 0.5185441970825195, 9.66926383972168, -0.6899558901786804, -2.763021230697632, 3.5334322452545166, -0.9812428951263428, 0.13193891942501068, -1.351806640625, 0.235595703125, 0.692626953125, 0, 
63, 3629742299, -0.3070454001426697, 0.7164802551269531, 0.35136133432388306, 0.5185906291007996, 9.675878524780273, -0.6607478260993958, -2.7505712509155273, 3.419346570968628, -0.980013370513916, 0.14318355917930603, -1.348876953125, 0.23046875, 0.693115234375, 0, 
64, 3629750632, -0.30701276659965515, 0.7164360880851746, 0.3513987064361572, 0.5186455249786377, 9.666021347045898, -0.6241136193275452, -2.728457450866699, 3.3854081630706787, -0.7853965163230896, 0.19164571166038513, -1.3525390625, 0.23388671875, 0.693359375, 0, 
65, 3629758965, -0.30697494745254517, 0.716383695602417, 0.3514426350593567, 0.5187105536460876, 9.61035442352295, -0.6503272652626038, -2.709249258041382, 3.389096260070801, -0.6557115912437439, 0.10284115374088287, -1.3505859375, 0.23876953125, 0.693115234375, 0, 
66, 3629767298, -0.3069474399089813, 0.7163302898406982, 0.35148078203201294, 0.5187748074531555, 9.568634033203125, -0.6413216590881348, -2.7552599906921387, 3.4272613525390625, -0.6046880483627319, 0.13811196386814117, -1.3505859375, 0.23828125, 0.695068359375, 0, 
67, 3629775631, -0.3069164752960205, 0.7162878513336182, 0.3515196144580841, 0.5188252925872803, 9.53918170928955, -0.6810600161552429, -2.735948324203491, 3.449341297149658, -0.8138283491134644, 0.31077754497528076, -1.35009765625, 0.228759765625, 0.693359375, 0, 
68, 3629783964, -0.30687808990478516, 0.7162628173828125, 0.351546049118042, 0.518864631652832, 9.53156566619873, -0.7202683091163635, -2.798637866973877, 3.2399191856384277, -1.0571892261505127, 0.4170253872871399, -1.34765625, 0.2314453125, 0.699462890625, 0, 
69, 3629792297, -0.30682384967803955, 0.7162485718727112, 0.3515644669532776, 0.5189039707183838, 9.56837272644043, -0.8129857778549194, -2.774252414703369, 3.008981227874756, -1.1509373188018799, 0.5287290811538696, -1.34814453125, 0.23388671875, 0.697509765625, 0, 
70, 3629800630, -0.30677127838134766, 0.7162445783615112, 0.3515804409980774, 0.5189297199249268, 9.564480781555176, -0.8835592865943909, -2.8100204467773438, 3.0168187618255615, -1.3679410219192505, 0.5738869309425354, -1.349365234375, 0.23046875, 0.690185546875, 0, 
71, 3629808963, -0.3067091107368469, 0.7162438631057739, 0.35159099102020264, 0.5189604163169861, 9.629979133605957, -0.9220985770225525, -2.7362430095672607, 2.8583948612213135, -1.3384846448898315, 0.6524713635444641, -1.348876953125, 0.232421875, 0.6943359375, 0, 
72, 3629817296, -0.3066450357437134, 0.7162573337554932, 0.35159599781036377, 0.5189762115478516, 9.592581748962402, -1.0343228578567505, -2.7514870166778564, 2.7864699363708496, -1.5974702835083008, 0.7313376665115356, -1.3525390625, 0.230712890625, 0.692138671875, 0, 
73, 3629825629, -0.3065703511238098, 0.7162950038909912, 0.3515930771827698, 0.518970251083374, 9.597593307495117, -1.119742751121521, -2.7465004920959473, 2.6558632850646973, -1.9767402410507202, 1.0354043245315552, -1.35009765625, 0.226318359375, 0.696533203125, 0, 
74, 3629833962, -0.30650168657302856, 0.716356635093689, 0.3515503406524658, 0.5189546942710876, 9.562755584716797, -1.1643059253692627, -2.7806034088134766, 2.344240665435791, -2.06925892829895, 1.5371359586715698, -1.344970703125, 0.232421875, 0.693603515625, 0, 
75, 3629842295, -0.30643853545188904, 0.7164419293403625, 0.3514707386493683, 0.5189282894134521, 9.459534645080566, -1.1807656288146973, -2.7538201808929443, 2.1198596954345703, -2.1398770809173584, 2.188864231109619, -1.3486328125, 0.233642578125, 0.6943359375, 0, 
76, 3629850628, -0.30640876293182373, 0.716541051864624, 0.3513628840446472, 0.5188820362091064, 9.41612720489502, -1.1647995710372925, -2.750102996826172, 2.254744052886963, -2.1758909225463867, 2.7639808654785156, -1.34521484375, 0.22802734375, 0.6923828125, 0, 
77, 3629858961, -0.3064279556274414, 0.7166346311569214, 0.35125625133514404, 0.5188137292861938, 9.434974670410156, -1.148250937461853, -2.696857213973999, 2.9058070182800293, -2.0997910499572754, 3.2594118118286133, -1.347412109375, 0.233642578125, 0.695068359375, 0, 
78, 3629867294, -0.3064931631088257, 0.7167104482650757, 0.35117441415786743, 0.5187256336212158, 9.439964294433594, -1.165371060371399, -2.6688504219055176, 3.6813549995422363, -2.076021194458008, 3.2459895610809326, -1.349853515625, 0.23486328125, 0.693115234375, 0, 
79, 3629875627, -0.30656397342681885, 0.7167859077453613, 0.35112977027893066, 0.5186096429824829, 9.503722190856934, -1.196091651916504, -2.5837652683258057, 4.1636962890625, -2.4516022205352783, 3.1294190883636475, -1.346923828125, 0.234375, 0.6923828125, 0, 
80, 3629883960, -0.30662402510643005, 0.7168679237365723, 0.35107553005218506, 0.5184977054595947, 9.59212589263916, -1.2171932458877563, -2.586700439453125, 3.9127538204193115, -2.4939939975738525, 3.0679452419281006, -1.349365234375, 0.232421875, 0.69140625, 0, 
81, 3629892293, -0.30666211247444153, 0.7169528007507324, 0.3510201573371887, 0.5183952450752258, 9.639480590820312, -1.172793984413147, -2.5890467166900635, 3.6590702533721924, -2.49934720993042, 2.99125599861145, -1.345703125, 0.232666015625, 0.699462890625, 0, 
82, 3629900626, -0.3067203760147095, 0.7170208692550659, 0.3509674072265625, 0.5183025002479553, 9.66898250579834, -1.0606521368026733, -2.634767532348633, 3.864445209503174, -2.2221500873565674, 2.8929998874664307, -1.351318359375, 0.234375, 0.695068359375, 0, 
83, 3629908959, -0.30679887533187866, 0.7170611619949341, 0.350912481546402, 0.5182374715805054, 9.678488731384277, -0.9844515919685364, -2.6580398082733154, 4.069102764129639, -1.6181408166885376, 2.9008374214172363, -1.35009765625, 0.232421875, 0.694580078125, 0, 
84, 3629917292, -0.30690616369247437, 0.7170817852020264, 0.35084766149520874, 0.5181890726089478, 9.661297798156738, -0.8711165189743042, -2.680008888244629, 4.254729747772217, -1.1592363119125366, 2.946559190750122, -1.344970703125, 0.23486328125, 0.691650390625, 0, 
85, 3629925625, -0.30702468752861023, 0.7170962691307068, 0.35078415274620056, 0.5181418657302856, 9.613776206970215, -0.8120920658111572, -2.7019083499908447, 4.425013065338135, -1.0296282768249512, 3.0714285373687744, -1.347412109375, 0.235595703125, 0.695556640625, 0, 
86, 3629933958, -0.30714887380599976, 0.717120885848999, 0.35071253776550293, 0.518082857131958, 9.622572898864746, -0.7622790932655334, -2.6485157012939453, 4.415586948394775, -1.1810595989227295, 3.194222927093506, -1.3486328125, 0.236328125, 0.699951171875, 0, 
87, 3629942291, -0.3072798550128937, 0.7171370983123779, 0.3506568670272827, 0.5180203914642334, 9.617980003356934, -0.7753464579582214, -2.6635327339172363, 4.670499801635742, -1.1664339303970337, 3.1556992530822754, -1.3486328125, 0.236328125, 0.6962890625, 0, 
88, 3629950624, -0.3074071407318115, 0.717144250869751, 0.35061705112457275, 0.5179620385169983, 9.618947982788086, -0.7704466581344604, -2.6714699268341064, 4.731922149658203, -1.169328212738037, 2.8148505687713623, -1.3505859375, 0.237060546875, 0.697021484375, 0, 
89, 3629958957, -0.30749377608299255, 0.7171677350997925, 0.350597620010376, 0.5178912281990051, 9.600567817687988, -0.8013712763786316, -2.7424585819244385, 4.499703884124756, -1.6666029691696167, 2.5532267093658447, -1.34814453125, 0.23681640625, 0.6904296875, 0, 
90, 3629967290, -0.307595431804657, 0.7171915769577026, 0.35060280561447144, 0.517794132232666, 9.641443252563477, -0.8614286184310913, -2.811235189437866, 4.917651176452637, -1.9845012426376343, 2.436246633529663, -1.346923828125, 0.235595703125, 0.693603515625, 0, 
91, 3629975623, -0.30770987272262573, 0.7171883583068848, 0.3506336510181427, 0.5177098512649536, 9.62942123413086, -0.863379716873169, -2.7798757553100586, 5.310189723968506, -1.689630389213562, 2.1831014156341553, -1.351318359375, 0.234375, 0.6962890625, 0, 
92, 3629983956, -0.3078262209892273, 0.7171667814254761, 0.350680410861969, 0.517638623714447, 9.63357162475586, -0.8822849988937378, -2.7759971618652344, 5.4297308921813965, -1.5111758708953857, 1.802781105041504, -1.349365234375, 0.238037109375, 0.693115234375, 0, 
93, 3629992289, -0.30792689323425293, 0.7171263098716736, 0.3507445454597473, 0.5175913572311401, 9.58336067199707, -0.8926962614059448, -2.8009016513824463, 5.390566349029541, -1.2632811069488525, 1.4195152521133423, -1.34912109375, 0.239990234375, 0.69482421875, 0, 
94, 3630000622, -0.30802324414253235, 0.7170970439910889, 0.350776344537735, 0.5175532698631287, 9.591045379638672, -0.896760880947113, -2.7728209495544434, 5.000000953674316, -1.1635395288467407, 1.6294752359390259, -1.3447265625, 0.238525390625, 0.6865234375, 0, 
95, 3630008955, -0.30807769298553467, 0.7170788645744324, 0.3508055508136749, 0.5175262689590454, 9.567112922668457, -0.8918492197990417, -2.7134852409362793, 4.492993354797363, -1.3002171516418457, 1.4581928253173828, -1.346923828125, 0.232666015625, 0.697509765625, 0, 
96, 3630017288, -0.3081050515174866, 0.7170812487602234, 0.3508260250091553, 0.5174925327301025, 9.587560653686523, -0.8723846673965454, -2.712242841720581, 4.086930751800537, -1.629462480545044, 1.3836554288864136, -1.349853515625, 0.236328125, 0.695068359375, 0, 
97, 3630025621, -0.3081374168395996, 0.7170878648757935, 0.3508535921573639, 0.5174455642700195, 9.589188575744629, -0.897137463092804, -2.703432321548462, 4.2550883293151855, -1.7707505226135254, 1.5225101709365845, -1.3466796875, 0.238037109375, 0.69482421875, 0, 
98, 3630033954, -0.30818235874176025, 0.7170833349227905, 0.35087114572525024, 0.5174131393432617, 9.60455322265625, -0.8935794830322266, -2.674593210220337, 4.253525733947754, -1.4717042446136475, 1.499534249305725, -1.3515625, 0.242431640625, 0.691162109375, 0, 
99, 3630042287, -0.3082128167152405, 0.717090368270874, 0.35089901089668274, 0.5173664093017578, 9.606040000915527, -0.9213224053382874, -2.709015130996704, 4.236082553863525, -1.7830710411071777, 1.5047340393066406, -1.347412109375, 0.239501953125, 0.697265625, 0, 
100, 3630050620, -0.30827033519744873, 0.7170861959457397, 0.3509298264980316, 0.5173169374465942, 9.61572265625, -0.909848690032959, -2.6839613914489746, 4.551854610443115, -1.6357123851776123, 1.5335243940353394, -1.3466796875, 0.2392578125, 0.693603515625, 0, 
101, 3630058953, -0.3083491921424866, 0.7170798778533936, 0.35096031427383423, 0.5172580480575562, 9.60191822052002, -0.9272369742393494, -2.694690465927124, 4.846623420715332, -1.585124135017395, 1.8119508028030396, -1.344970703125, 0.23486328125, 0.691650390625, 0, 
102, 3630067286, -0.30843502283096313, 0.7170688509941101, 0.3509792685508728, 0.5172092318534851, 9.581253051757812, -0.8733606934547424, -2.669534683227539, 4.77433967590332, -1.3957324028015137, 1.8127706050872803, -1.347412109375, 0.23828125, 0.69873046875, 0, 
103, 3630075619, -0.3085145950317383, 0.717074990272522, 0.3510005474090576, 0.5171388387680054, 9.546523094177246, -0.87526935338974, -2.6981658935546875, 4.790809631347656, -1.7450850009918213, 2.016967535018921, -1.351806640625, 0.23486328125, 0.690673828125, 0, 
104, 3630083952, -0.3086020350456238, 0.7170912027359009, 0.3509993553161621, 0.5170649290084839, 9.575236320495605, -0.8751180768013, -2.7144052982330322, 4.653824806213379, -1.7421908378601074, 2.2607123851776123, -1.34423828125, 0.23681640625, 0.69482421875, 0, 
105, 3630092285, -0.3086632490158081, 0.7171157598495483, 0.35099321603775024, 0.5169987082481384, 9.595382690429688, -0.8989077210426331, -2.7252800464630127, 4.317073822021484, -1.8071995973587036, 2.227567434310913, -1.344970703125, 0.23876953125, 0.697265625, 0, 
106, 3630100618, -0.30869388580322266, 0.7171686887741089, 0.3509521484375, 0.5169347524642944, 9.590415954589844, -0.8837077021598816, -2.7184247970581055, 3.606945753097534, -2.0106279850006104, 2.3859660625457764, -1.351806640625, 0.23876953125, 0.695556640625, 0, 
107, 3630108951, -0.30869853496551514, 0.7172278165817261, 0.3508964776992798, 0.5168876647949219, 9.646522521972656, -0.879962682723999, -2.7518150806427, 3.168224811553955, -1.9268181324005127, 2.4007456302642822, -1.347412109375, 0.241455078125, 0.697265625, 0, 
108, 3630117284, -0.3087003827095032, 0.7172790169715881, 0.35082972049713135, 0.516860842704773, 9.622790336608887, -0.8936564326286316, -2.7233164310455322, 2.971968412399292, -1.661787509918213, 2.2698307037353516, -1.349365234375, 0.23828125, 0.69677734375, 0, 
109, 3630125617, -0.30867910385131836, 0.7173391580581665, 0.3507494330406189, 0.5168445706367493, 9.643768310546875, -0.8703337907791138, -2.7125539779663086, 2.584117889404297, -1.650927186012268, 2.332073450088501, -1.3505859375, 0.239990234375, 0.693603515625, 0, 
110, 3630133950, -0.3086389899253845, 0.7174079418182373, 0.35065168142318726, 0.5168393850326538, 9.689523696899414, -0.9019162654876709, -2.6945066452026367, 2.1535425186157227, -1.6435760259628296, 2.269447088241577, -1.3466796875, 0.23828125, 0.69921875, 0, 
111, 3630142283, -0.3085901439189911, 0.7174753546714783, 0.3505432605743408, 0.5168485045433044, 9.651735305786133, -0.9051526188850403, -2.6910831928253174, 1.9592331647872925, -1.4660438299179077, 2.3412182331085205, -1.3486328125, 0.237060546875, 0.697509765625, 0, 
112, 3630150616, -0.3085521459579468, 0.7175275087356567, 0.3504478931427002, 0.5168634057044983, 9.62514591217041, -0.8531104326248169, -2.713226556777954, 2.170448064804077, -1.3295708894729614, 2.094834566116333, -1.3486328125, 0.237548828125, 0.69482421875, 0, 
113, 3630158949, -0.30855271220207214, 0.7175484895706177, 0.3503821790218353, 0.5168784856796265, 9.592806816101074, -0.8469997644424438, -2.757565975189209, 2.9189724922180176, -1.0196386575698853, 2.020373821258545, -1.341552734375, 0.240478515625, 0.6953125, 0, 
114, 3630167282, -0.30857253074645996, 0.7175403833389282, 0.3503437042236328, 0.5169041156768799, 9.604780197143555, -0.8647797107696533, -2.6945788860321045, 3.344937562942505, -0.7571183443069458, 1.6105973720550537, -1.34619140625, 0.24072265625, 0.696533203125, 0, 
115, 3630175615, -0.3085949420928955, 0.7175167798995972, 0.35032767057418823, 0.5169342756271362, 9.579557418823242, -0.8700680136680603, -2.6844801902770996, 3.6038460731506348, -0.6593231558799744, 1.4083731174468994, -1.34814453125, 0.23681640625, 0.69482421875, 0, 
116, 3630183948, -0.3086182773113251, 0.7174925804138184, 0.3503265380859375, 0.5169548988342285, 9.55947208404541, -0.8876794576644897, -2.707310438156128, 3.7441859245300293, -0.832654595375061, 1.2105284929275513, -1.34619140625, 0.23876953125, 0.694091796875, 0, 
117, 3630192281, -0.3086223602294922, 0.7174782752990723, 0.3503337502479553, 0.5169674158096313, 9.577528953552246, -0.9367235898971558, -2.7029194831848145, 3.6344289779663086, -1.0863124132156372, 1.1679322719573975, -1.345458984375, 0.2412109375, 0.69091796875, 0, 
118, 3630200614, -0.3086259961128235, 0.7174745798110962, 0.35034143924713135, 0.5169650912284851, 9.578497886657715, -0.9665886759757996, -2.7286031246185303, 3.630049228668213, -1.3396629095077515, 1.1770764589309692, -1.349853515625, 0.2412109375, 0.69482421875, 0, 
119, 3630208947, -0.30860820412635803, 0.7174730896949768, 0.35035091638565063, 0.5169713497161865, 9.582306861877441, -1.0121939182281494, -2.713995933532715, 3.409177780151367, -1.3537250757217407, 1.0784872770309448, -1.347900390625, 0.23828125, 0.696044921875, 0, 
120, 3630217280, -0.30860093235969543, 0.7174856662750244, 0.35035598278045654, 0.5169549584388733, 9.57658576965332, -1.0157569646835327, -2.736057996749878, 3.506152868270874, -1.6328176259994507, 1.2671360969543457, -1.345458984375, 0.24072265625, 0.6953125, 0, 
121, 3630225613, -0.3085945248603821, 0.7174872756004333, 0.3503643870353699, 0.5169509649276733, 9.600968360900879, -1.0294787883758545, -2.6759727001190186, 3.55151629447937, -1.4179142713546753, 1.2272803783416748, -1.34619140625, 0.2392578125, 0.694091796875, 0, 
122, 3630233946, -0.3086053729057312, 0.7174824476242065, 0.35037216544151306, 0.5169457197189331, 9.61778736114502, -1.023763656616211, -2.709256887435913, 3.7283565998077393, -1.3256776332855225, 1.2349134683609009, -1.345458984375, 0.24072265625, 0.696533203125, 0, 
123, 3630242279, -0.30861932039260864, 0.7174620628356934, 0.3503836989402771, 0.5169577598571777, 9.613114356994629, -0.9800290465354919, -2.6899797916412354, 3.7906503677368164, -1.019126296043396, 1.1677786111831665, -1.34619140625, 0.24072265625, 0.698486328125, 0, 
124, 3630250612, -0.30864351987838745, 0.7174334526062012, 0.35039788484573364, 0.5169733762741089, 9.635972023010254, -0.9718138575553894, -2.71874737739563, 3.8983070850372314, -0.9134163856506348, 1.066909670829773, -1.347412109375, 0.239990234375, 0.69287109375, 0, 
125, 3630258945, -0.3086596131324768, 0.7174058556556702, 0.3503991961479187, 0.5170012712478638, 9.6284818649292, -0.9273287653923035, -2.691061496734619, 3.692112684249878, -0.7565035820007324, 1.1812005043029785, -1.34228515625, 0.2412109375, 0.693359375, 0, 
126, 3630267278, -0.30868059396743774, 0.7173783779144287, 0.35039204359054565, 0.5170318484306335, 9.582250595092773, -0.8966864943504333, -2.7397806644439697, 3.6391162872314453, -0.696950376033783, 1.194007396697998, -1.345458984375, 0.235595703125, 0.69677734375, 0, 
127, 3630275611, -0.3086990714073181, 0.7173508405685425, 0.3503987193107605, 0.5170543193817139, 9.548011779785156, -0.8794341683387756, -2.7464394569396973, 3.779585123062134, -0.8224858641624451, 1.170928955078125, -1.34619140625, 0.23876953125, 0.697265625, 0, 
128, 3630283944, -0.30871325731277466, 0.7173434495925903, 0.35039788484573364, 0.5170567035675049, 9.554638862609863, -0.876943051815033, -2.787461519241333, 3.6656527519226074, -1.1785237789154053, 1.300562858581543, -1.34423828125, 0.2373046875, 0.691650390625, 0, 
129, 3630292277, -0.30870532989501953, 0.7173527479171753, 0.35038161277770996, 0.5170596241950989, 9.583282470703125, -0.9261617660522461, -2.7910377979278564, 3.294271945953369, -1.3079524040222168, 1.4671577215194702, -1.35302734375, 0.234375, 0.69384765625, 0, 
130, 3630300610, -0.3086979389190674, 0.7173750400543213, 0.3503431975841522, 0.5170590877532959, 9.588804244995117, -0.9550385475158691, -2.7822375297546387, 3.074373960494995, -1.3636890649795532, 1.6760417222976685, -1.34814453125, 0.233642578125, 0.69189453125, 0, 
131, 3630308943, -0.30868810415267944, 0.717400312423706, 0.35030996799468994, 0.517052412033081, 9.577651977539062, -0.9813402891159058, -2.756431818008423, 3.1326465606689453, -1.4529801607131958, 1.740692138671875, -1.34814453125, 0.23388671875, 0.695556640625, 0, 
132, 3630317276, -0.30869990587234497, 0.7174196839332581, 0.35026389360427856, 0.5170497298240662, 9.565878868103027, -0.967649519443512, -2.740205764770508, 3.2388689517974854, -1.2375645637512207, 1.8815704584121704, -1.345458984375, 0.2392578125, 0.69482421875, 0, 
133, 3630325609, -0.3086888790130615, 0.7174522280693054, 0.35021740198135376, 0.5170426368713379, 9.588371276855469, -0.9803338646888733, -2.7343316078186035, 2.999094009399414, -1.4583847522735596, 1.8970156908035278, -1.349365234375, 0.23828125, 0.69677734375, 0, 
134, 3630333942, -0.3086661696434021, 0.7175034880638123, 0.35015547275543213, 0.517026960849762, 9.598991394042969, -0.9876589179039001, -2.715728998184204, 2.703274965286255, -1.6896299123764038, 2.00331449508667, -1.3486328125, 0.237548828125, 0.6962890625, 0, 
135, 3630342275, -0.3086315989494324, 0.7175505757331848, 0.3500829339027405, 0.5170313119888306, 9.60468578338623, -0.9733210206031799, -2.7137906551361084, 2.464524984359741, -1.4518790245056152, 2.0087966918945312, -1.3447265625, 0.239990234375, 0.69775390625, 0, 
136, 3630350608, -0.30861783027648926, 0.7175865769386292, 0.3500095009803772, 0.5170392990112305, 9.587860107421875, -0.9406501054763794, -2.6956868171691895, 2.6653661727905273, -1.2570058107376099, 2.002469778060913, -1.347412109375, 0.2392578125, 0.693603515625, 0, 
137, 3630358941, -0.3086150884628296, 0.7176181674003601, 0.34995463490486145, 0.5170341730117798, 9.585060119628906, -0.9466049075126648, -2.720376491546631, 3.0162298679351807, -1.356414556503296, 2.027904510498047, -1.345458984375, 0.24072265625, 0.6953125, 0, 
138, 3630367274, -0.3086371421813965, 0.7176440358161926, 0.34990012645721436, 0.5170220732688904, 9.582587242126465, -0.9414047598838806, -2.71826171875, 3.290302038192749, -1.2925326824188232, 2.107539176940918, -1.349853515625, 0.24072265625, 0.6943359375, 0, 
139, 3630375607, -0.30865800380706787, 0.7176659107208252, 0.3498353958129883, 0.5170229077339172, 9.627298355102539, -0.9068602323532104, -2.7089741230010986, 3.1909189224243164, -1.074709415435791, 2.2205748558044434, -1.345458984375, 0.2373046875, 0.6923828125, 0, 
140, 3630383940, -0.3086737394332886, 0.7176913022994995, 0.3497658967971802, 0.517025351524353, 9.610852241516113, -0.9059662818908691, -2.7164454460144043, 3.059671640396118, -1.110774040222168, 2.1474974155426025, -1.354736328125, 0.24462890625, 0.6982421875, 0, 
141, 3630392273, -0.3086821138858795, 0.7177087068557739, 0.3497113585472107, 0.5170331001281738, 9.595203399658203, -0.869825541973114, -2.728123426437378, 3.1262683868408203, -1.0766044855117798, 1.9805437326431274, -1.3486328125, 0.2412109375, 0.695556640625, 0, 
142, 3630400606, -0.3086855411529541, 0.7177257537841797, 0.3496705889701843, 0.5170350074768066, 9.597306251525879, -0.8830097913742065, -2.751152992248535, 3.172604560852051, -1.2370010614395142, 1.737515926361084, -1.345458984375, 0.236328125, 0.69482421875, 0, 
143, 3630408939, -0.3086683750152588, 0.7177467942237854, 0.34963661432266235, 0.5170390605926514, 9.609973907470703, -0.9306503534317017, -2.728105306625366, 3.023299217224121, -1.3507025241851807, 1.6299105882644653, -1.349365234375, 0.239013671875, 0.69873046875, 0, 
144, 3630417272, -0.30864417552948, 0.7177687287330627, 0.3495943546295166, 0.5170516967773438, 9.601885795593262, -0.9306795001029968, -2.7514896392822266, 2.8194103240966797, -1.2928401231765747, 1.5350611209869385, -1.3486328125, 0.240478515625, 0.691650390625, 0, 
145, 3630425605, -0.30860090255737305, 0.7178006172180176, 0.34955647587776184, 0.5170590877532959, 9.564094543457031, -0.9210247993469238, -2.686102867126465, 2.6738955974578857, -1.501134991645813, 1.5192058086395264, -1.35107421875, 0.239990234375, 0.6943359375, 0, 
146, 3630433938, -0.3085620403289795, 0.7178299427032471, 0.349523663520813, 0.5170633792877197, 9.571671485900879, -0.9302012324333191, -2.723400592803955, 2.754990577697754, -1.5392234325408936, 1.4087063074111938, -1.351806640625, 0.236328125, 0.69189453125, 0, 
147, 3630442271, -0.3085358738899231, 0.7178593873977661, 0.3494848608970642, 0.5170643925666809, 9.59974193572998, -0.9564265608787537, -2.714933395385742, 2.877349615097046, -1.462636947631836, 1.666820764541626, -1.34619140625, 0.23974609375, 0.6904296875, 0, 
148, 3630450604, -0.30852386355400085, 0.7178822755813599, 0.3494506776332855, 0.5170629024505615, 9.60661506652832, -0.9715437889099121, -2.7237045764923096, 3.0603625774383545, -1.4161725044250488, 1.6065502166748047, -1.345947265625, 0.24365234375, 0.6953125, 0, 
149, 3630458937, -0.30850106477737427, 0.7179083824157715, 0.34942421317100525, 0.5170580744743347, 9.570038795471191, -1.026798963546753, -2.714710235595703, 3.03971791267395, -1.530745029449463, 1.5775038003921509, -1.3486328125, 0.23681640625, 0.69189453125, 0, 
150, 3630467270, -0.3085011839866638, 0.7179274559020996, 0.34940001368522644, 0.5170480012893677, 9.574935913085938, -1.0034711360931396, -2.740389823913574, 3.307028293609619, -1.458103060722351, 1.611954927444458, -1.34423828125, 0.2392578125, 0.696044921875, 0, 
151, 3630475603, -0.3084908127784729, 0.7179495096206665, 0.3493771553039551, 0.5170390605926514, 9.601896286010742, -1.0204871892929077, -2.7120275497436523, 3.2262918949127197, -1.4994444847106934, 1.628373622894287, -1.34912109375, 0.241455078125, 0.697265625, 0, 
152, 3630483936, -0.3084971308708191, 0.7179590463638306, 0.34935563802719116, 0.5170364379882812, 9.59287166595459, -1.0147557258605957, -2.7036960124969482, 3.3997771739959717, -1.2987055778503418, 1.553784966468811, -1.347412109375, 0.23828125, 0.696044921875, 0, 
153, 3630492269, -0.30851054191589355, 0.7179642915725708, 0.349354088306427, 0.5170222520828247, 9.582427978515625, -1.023524284362793, -2.697016954421997, 3.708890199661255, -1.4065929651260376, 1.5273513793945312, -1.347412109375, 0.238525390625, 0.6904296875, 0, 
154, 3630500602, -0.3085395097732544, 0.7179536819458008, 0.34934619069099426, 0.5170249938964844, 9.60404109954834, -1.034494161605835, -2.679260492324829, 3.775743246078491, -1.0499402284622192, 1.4560412168502808, -1.347900390625, 0.24072265625, 0.696044921875, 0, 
155, 3630508935, -0.30857372283935547, 0.7179340720176697, 0.3493550419807434, 0.5170258283615112, 9.572334289550781, -0.9966409802436829, -2.675565481185913, 4.021537780761719, -1.026170253753662, 1.3905457258224487, -1.347412109375, 0.238037109375, 0.695556640625, 0, 
156, 3630517268, -0.3086146116256714, 0.7179092168807983, 0.3493659496307373, 0.5170286893844604, 9.563992500305176, -0.9647143483161926, -2.6903021335601807, 4.089850902557373, -0.9704850316047668, 1.2892156839370728, -1.343505859375, 0.238037109375, 0.69091796875, 0, 
157, 3630525601, -0.3086552619934082, 0.7178750038146973, 0.34939926862716675, 0.5170292854309082, 9.582060813903809, -0.953967273235321, -2.7090003490448, 4.323375701904297, -0.9980202913284302, 1.1244393587112427, -1.347412109375, 0.238037109375, 0.69482421875, 0, 
158, 3630533934, -0.30870673060417175, 0.7178381681442261, 0.34943705797195435, 0.5170241594314575, 9.55492877960205, -0.9531326293945312, -2.7278268337249756, 4.464766025543213, -1.0275535583496094, 1.0742098093032837, -1.34619140625, 0.24072265625, 0.69482421875, 0, 
159, 3630542267, -0.3087517023086548, 0.7178102731704712, 0.3494861125946045, 0.517003059387207, 9.597301483154297, -0.9568743705749512, -2.706047773361206, 4.554083347320557, -1.302291750907898, 1.1228512525558472, -1.34423828125, 0.236328125, 0.696044921875, 0, 
160, 3630550600, -0.30878835916519165, 0.7177980542182922, 0.349530965089798, 0.5169678926467896, 9.577510833740234, -0.9432071447372437, -2.7342989444732666, 4.420120716094971, -1.6017991304397583, 1.1454942226409912, -1.34423828125, 0.240478515625, 0.69140625, 0, 
161, 3630558933, -0.30882182717323303, 0.7177798748016357, 0.3495889902114868, 0.5169339179992676, 9.576652526855469, -0.916366696357727, -2.7298285961151123, 4.5246262550354, -1.5916557312011719, 1.0529500246047974, -1.34619140625, 0.239990234375, 0.69287109375, 0, 
162, 3630567266, -0.3088684678077698, 0.7177624702453613, 0.3496309518814087, 0.5169017314910889, 9.59676742553711, -0.9099112749099731, -2.747973918914795, 4.504545211791992, -1.4741376638412476, 1.2092993259429932, -1.3466796875, 0.241943359375, 0.694091796875, 0, 
163, 3630575599, -0.3089143633842468, 0.7177403569221497, 0.3496648669242859, 0.5168820023536682, 9.605049133300781, -0.9288047552108765, -2.704986333847046, 4.4250898361206055, -1.2622311115264893, 1.300127387046814, -1.3466796875, 0.243896484375, 0.69775390625, 0, 
164, 3630583932, -0.30895766615867615, 0.7177233695983887, 0.34968578815460205, 0.5168655514717102, 9.603443145751953, -0.9334529042243958, -2.7281346321105957, 4.236492156982422, -1.2483996152877808, 1.328405499458313, -1.347412109375, 0.238037109375, 0.69482421875, 0, 
165, 3630592265, -0.30897557735443115, 0.7177078723907471, 0.34970012307167053, 0.5168666839599609, 9.592461585998535, -0.9588915705680847, -2.701447010040283, 3.8804543018341064, -1.1546257734298706, 1.2380385398864746, -1.34423828125, 0.239501953125, 0.696533203125, 0, 
166, 3630600598, -0.30898430943489075, 0.7177087068557739, 0.3496994376182556, 0.5168606638908386, 9.595677375793457, -0.9553189277648926, -2.7209222316741943, 3.6234917640686035, -1.3464761972427368, 1.334424614906311, -1.3486328125, 0.241943359375, 0.697998046875, 0, 
167, 3630608931, -0.30898359417915344, 0.717710554599762, 0.3496933579444885, 0.5168627500534058, 9.587294578552246, -0.9563232660293579, -2.71657657623291, 3.4736742973327637, -1.2714264392852783, 1.3868314027786255, -1.352294921875, 0.2431640625, 0.695556640625, 0, 
168, 3630617264, -0.3089864253997803, 0.7177093029022217, 0.34968817234039307, 0.5168662667274475, 9.59865665435791, -0.9488855004310608, -2.6968610286712646, 3.495753765106201, -1.2468624114990234, 1.2857065200805664, -1.347900390625, 0.239501953125, 0.69677734375, 0, 
169, 3630625597, -0.3089696168899536, 0.7177165150642395, 0.34967970848083496, 0.5168720483779907, 9.596526145935059, -0.9511755704879761, -2.6976513862609863, 3.2572596073150635, -1.340380072593689, 1.3055062294006348, -1.349853515625, 0.23876953125, 0.6962890625, 0, 
170, 3630633930, -0.3089560270309448, 0.7177240252494812, 0.3496749997138977, 0.5168727040290833, 9.605469703674316, -0.9582322239875793, -2.708505392074585, 3.306797742843628, -1.4178375005722046, 1.2198266983032227, -1.3486328125, 0.243896484375, 0.69482421875, 0, 
171, 3630642263, -0.30893415212631226, 0.7177334427833557, 0.3496597409248352, 0.5168830156326294, 9.597713470458984, -0.9821133613586426, -2.72428822517395, 3.1273183822631836, -1.3065435886383057, 1.3281749486923218, -1.3505859375, 0.23876953125, 0.697509765625, 0, 
172, 3630650596, -0.3089282214641571, 0.7177374362945557, 0.3496469259262085, 0.5168898105621338, 9.590309143066406, -0.9696742296218872, -2.696371555328369, 3.3120229244232178, -1.2620773315429688, 1.3113720417022705, -1.3447265625, 0.24169921875, 0.69287109375, 0, 
173, 3630658929, -0.308937668800354, 0.71773761510849, 0.34966206550598145, 0.5168737769126892, 9.606951713562012, -1.0069684982299805, -2.7113306522369385, 3.8181862831115723, -1.4793630838394165, 1.3183391094207764, -1.3447265625, 0.24072265625, 0.69921875, 0, 
174, 3630667262, -0.30897998809814453, 0.7177326679229736, 0.3496767282485962, 0.5168454647064209, 9.592917442321777, -1.0281493663787842, -2.7095634937286377, 4.197430610656738, -1.4273405075073242, 1.4911327362060547, -1.34619140625, 0.23681640625, 0.695556640625, 0, 
175, 3630675595, -0.3090232014656067, 0.7177293300628662, 0.34969136118888855, 0.5168142318725586, 9.594860076904297, -1.013184666633606, -2.7076914310455322, 4.2365946769714355, -1.4406087398529053, 1.610392689704895, -1.3447265625, 0.23974609375, 0.691650390625, 0, 
176, 3630683928, -0.30909162759780884, 0.7177164554595947, 0.34971457719802856, 0.5167754888534546, 9.595415115356445, -1.0072842836380005, -2.7274022102355957, 4.595834255218506, -1.3870491981506348, 1.5988918542861938, -1.347900390625, 0.241455078125, 0.69677734375, 0, 
177, 3630692261, -0.30915844440460205, 0.7177023887634277, 0.34974873065948486, 0.5167319178581238, 9.573260307312012, -1.0033328533172607, -2.69264554977417, 4.713480472564697, -1.4542096853256226, 1.586571216583252, -1.3466796875, 0.24072265625, 0.69921875, 0, 
178, 3630700594, -0.3092339038848877, 0.7176923751831055, 0.34976768493652344, 0.5166881084442139, 9.571059226989746, -0.9870015382766724, -2.7029218673706055, 4.641376495361328, -1.4038009643554688, 1.7259639501571655, -1.3447265625, 0.239990234375, 0.6953125, 0, 
179, 3630708927, -0.3092944025993347, 0.717680811882019, 0.3497876226902008, 0.516654372215271, 9.582563400268555, -0.9542526602745056, -2.6919078826904297, 4.491559028625488, -1.3472448587417603, 1.651657223701477, -1.3447265625, 0.242919921875, 0.692626953125, 0, 
180, 3630717260, -0.3093647360801697, 0.71767258644104, 0.34980976581573486, 0.5166087746620178, 9.615889549255371, -0.9342437982559204, -2.6876392364501953, 4.617913246154785, -1.4713199138641357, 1.672558307647705, -1.349853515625, 0.24072265625, 0.693603515625, 0, 
181, 3630725593, -0.3094310164451599, 0.7176737189292908, 0.34982776641845703, 0.5165553092956543, 9.608194351196289, -0.9727168679237366, -2.7414255142211914, 4.575983047485352, -1.5950878858566284, 1.857595443725586, -1.3486328125, 0.243896484375, 0.69970703125, 0, 
182, 3630733926, -0.30949151515960693, 0.7176780700683594, 0.3498136103153229, 0.5165222883224487, 9.611425399780273, -0.9928885698318481, -2.659498691558838, 4.1497111320495605, -1.332311749458313, 1.9716302156448364, -1.35107421875, 0.239501953125, 0.695556640625, 0, 
183, 3630742259, -0.30952346324920654, 0.717690110206604, 0.34977489709854126, 0.5165127515792847, 9.584089279174805, -0.9881449937820435, -2.6378931999206543, 3.5765414237976074, -1.1618233919143677, 2.0386884212493896, -1.34228515625, 0.242431640625, 0.696533203125, 0, 
184, 3630750592, -0.3095518946647644, 0.71770179271698, 0.34973767399787903, 0.5165046453475952, 9.602170944213867, -0.9811315536499023, -2.5983195304870605, 3.524979591369629, -1.1935337781906128, 1.89681077003479, -1.349853515625, 0.235595703125, 0.69189453125, 0, 
185, 3630758925, -0.3095950484275818, 0.7177119255065918, 0.34970197081565857, 0.5164889097213745, 9.58389663696289, -0.9934728145599365, -2.6264405250549316, 3.7457234859466553, -1.1668694019317627, 2.1062331199645996, -1.345947265625, 0.2431640625, 0.69775390625, 0, 
186, 3630767258, -0.30966296792030334, 0.7177251577377319, 0.3496590554714203, 0.5164588689804077, 9.57955265045166, -0.985605001449585, -2.6065707206726074, 3.966979503631592, -1.207058072090149, 2.336376905441284, -1.345458984375, 0.2431640625, 0.694091796875, 0, 
187, 3630775591, -0.3097427487373352, 0.7177350521087646, 0.3496145009994507, 0.5164275169372559, 9.576435089111328, -0.9570375680923462, -2.655902862548828, 4.121663570404053, -1.108904242515564, 2.518519878387451, -1.34716796875, 0.242431640625, 0.693359375, 0, 
188, 3630783924, -0.309823215007782, 0.7177487015724182, 0.34953030943870544, 0.5164172649383545, 9.560132026672363, -0.9281143546104431, -2.617605447769165, 3.695903778076172, -0.7781221270561218, 2.7472805976867676, -1.3447265625, 0.2431640625, 0.694091796875, 0, 
189, 3630792257, -0.3099154829978943, 0.7177560329437256, 0.3494604229927063, 0.5163989067077637, 9.574972152709961, -0.8722591400146484, -2.6438934803009033, 4.014160633087158, -0.7932344675064087, 2.790465831756592, -1.349853515625, 0.2412109375, 0.6923828125, 0, 
190, 3630800590, -0.310040146112442, 0.717732846736908, 0.3494356870651245, 0.5163732171058655, 9.630581855773926, -0.9021561145782471, -2.667017936706543, 4.7792067527771, -0.7122935056686401, 2.362196207046509, -1.347900390625, 0.241943359375, 0.694091796875, 0, 
191, 3630808923, -0.3101586699485779, 0.7177075147628784, 0.34942665696144104, 0.5163432955741882, 9.671338081359863, -0.9432514309883118, -2.7376136779785156, 4.899465560913086, -0.808654248714447, 2.269702911376953, -1.345458984375, 0.240234375, 0.69921875, 0, 
192, 3630817256, -0.3102629780769348, 0.7176951169967651, 0.34938740730285645, 0.5163244009017944, 9.684773445129395, -1.0284230709075928, -2.766357183456421, 4.410489082336426, -0.7575794458389282, 2.3839681148529053, -1.34716796875, 0.24609375, 0.692138671875, 0, 
193, 3630825589, -0.31036487221717834, 0.717677116394043, 0.3493550419807434, 0.5163101553916931, 9.615287780761719, -1.0384042263031006, -2.9149599075317383, 4.462691783905029, -0.6854241490364075, 2.3478264808654785, -1.3486328125, 0.241943359375, 0.696044921875, 0, 
194, 3630833922, -0.31048765778541565, 0.7176517248153687, 0.3493238091468811, 0.5162928104400635, 9.593372344970703, -1.0321658849716187, -2.9656460285186768, 4.699623107910156, -0.5953900814056396, 2.370443820953369, -1.349609375, 0.246337890625, 0.696533203125, 0, 
195, 3630842255, -0.3106238842010498, 0.7176061868667603, 0.34931647777557373, 0.5162791609764099, 9.563215255737305, -0.9893156886100769, -2.9323551654815674, 5.094184875488281, -0.4273863434791565, 2.2104830741882324, -1.345458984375, 0.242431640625, 0.694091796875, 0, 
196, 3630850588, -0.3107603192329407, 0.7175679802894592, 0.34931614995002747, 0.5162504315376282, 9.548267364501953, -0.9941552877426147, -2.932952642440796, 5.160217761993408, -0.6825553178787231, 2.147676706314087, -1.347900390625, 0.24560546875, 0.694580078125, 0, 
197, 3630858921, -0.3108806610107422, 0.7175441980361938, 0.3493354320526123, 0.5161980986595154, 9.49169635772705, -1.0103195905685425, -2.873134136199951, 5.219976425170898, -1.1538572311401367, 2.104875326156616, -1.347900390625, 0.2451171875, 0.694580078125, 0, 
198, 3630867254, -0.31098610162734985, 0.7175217866897583, 0.3493174612522125, 0.5161776542663574, 9.464853286743164, -0.9608715176582336, -2.755406618118286, 4.619169235229492, -0.7851146459579468, 2.1419904232025146, -1.345947265625, 0.24560546875, 0.694580078125, 0, 
199, 3630875587, -0.311049222946167, 0.717507004737854, 0.3492952585220337, 0.5161751508712769, 9.488554000854492, -0.9219146370887756, -2.6411523818969727, 4.082371234893799, -0.823459267616272, 1.938126802444458, -1.35107421875, 0.243896484375, 0.693603515625, 0, 
200, 3630883920, -0.3110828995704651, 0.7175019979476929, 0.34927478432655334, 0.5161754488945007, 9.604007720947266, -0.8973606824874878, -2.62119460105896, 3.713808298110962, -1.0384907722473145, 1.6545003652572632, -1.351806640625, 0.24072265625, 0.6923828125, 0, 
201, 3630892253, -0.3110957741737366, 0.7174990177154541, 0.34924739599227905, 0.5161903500556946, 9.697237968444824, -0.9107725024223328, -2.611429214477539, 3.4159910678863525, -0.9549883008003235, 1.6146700382232666, -1.352294921875, 0.24755859375, 0.694091796875, 0, 
202, 3630900586, -0.3111414611339569, 0.7174780964851379, 0.34922337532043457, 0.5162081718444824, 9.719058990478516, -0.9026051163673401, -2.689849615097046, 3.793928861618042, -0.6783289313316345, 1.6226105690002441, -1.348388671875, 0.246826171875, 0.693359375, 0, 
203, 3630908919, -0.3112276494503021, 0.7174385190010071, 0.34922483563423157, 0.5162102580070496, 9.707141876220703, -0.9154128432273865, -2.761934280395508, 4.561792850494385, -0.592034637928009, 1.729627013206482, -1.345947265625, 0.24609375, 0.693359375, 0, 
204, 3630917252, -0.31138700246810913, 0.7173675298690796, 0.3492414951324463, 0.5162016153335571, 9.673940658569336, -0.9602381587028503, -2.819340467453003, 5.549426555633545, -0.21407099068164825, 1.9020617008209229, -1.34521484375, 0.246826171875, 0.692626953125, 0, 
205, 3630925585, -0.31159573793411255, 0.7172815799713135, 0.3492758870124817, 0.5161718130111694, 9.637964248657227, -0.9526779055595398, -2.822786808013916, 6.356403350830078, -0.12951840460300446, 2.1870975494384766, -1.348388671875, 0.24755859375, 0.69287109375, 0, 
206, 3630933918, -0.31185758113861084, 0.7171870470046997, 0.34934771060943604, 0.5160965323448181, 9.587188720703125, -0.9963200092315674, -2.863675832748413, 7.3708815574646, -0.44800588488578796, 2.2601747512817383, -1.3427734375, 0.244384765625, 0.693359375, 0, 
207, 3630942251, -0.31214284896850586, 0.7170757055282593, 0.34943535923957825, 0.5160194635391235, 9.558968544006348, -1.0072101354599, -2.8031835556030273, 7.825251579284668, -0.2748791575431824, 2.2869155406951904, -1.343505859375, 0.24609375, 0.693115234375, 0, 
208, 3630950584, -0.3124183714389801, 0.7169691324234009, 0.34950000047683716, 0.5159571170806885, 9.53844928741455, -0.9825119376182556, -2.7735860347747803, 7.445342540740967, -0.1384577751159668, 2.311121702194214, -1.350830078125, 0.25244140625, 0.69140625, 0, 
209, 3630958917, -0.31263309717178345, 0.7168787121772766, 0.3495650887489319, 0.5159085988998413, 9.512534141540527, -0.9912070631980896, -2.7714669704437256, 6.741999626159668, -0.384584903717041, 1.9881510734558105, -1.350341796875, 0.24365234375, 0.6904296875, 0, 
210, 3630967250, -0.3127959966659546, 0.7168080806732178, 0.34963157773017883, 0.5158628225326538, 9.512101173400879, -0.9641855359077454, -2.8252151012420654, 6.121596813201904, -0.7786855101585388, 1.5950238704681396, -1.348876953125, 0.251220703125, 0.694580078125, 0, 
211, 3630975583, -0.3129202723503113, 0.7167578935623169, 0.34968632459640503, 0.5158200860023499, 9.539697647094727, -0.9208994507789612, -2.8306314945220947, 5.576321601867676, -1.0048848390579224, 1.6155153512954712, -1.347900390625, 0.248291015625, 0.6953125, 0, 
212, 3630983916, -0.3130543828010559, 0.7166987657546997, 0.3497491478919983, 0.5157785415649414, 9.539894104003906, -0.9385744333267212, -2.817978858947754, 5.740483283996582, -0.9393635988235474, 1.4635717868804932, -1.348876953125, 0.251953125, 0.692138671875, 0, 
213, 3630992249, -0.31319311261177063, 0.7166414260864258, 0.34982097148895264, 0.5157252550125122, 9.589254379272461, -0.9145483374595642, -2.7908213138580322, 5.921602249145508, -1.0611082315444946, 1.5614694356918335, -1.350830078125, 0.25, 0.689697265625, 0, 
214, 3631000582, -0.31337055563926697, 0.7165665030479431, 0.34988975524902344, 0.5156745314598083, 9.595818519592285, -0.8930549025535583, -2.808380126953125, 6.309784889221191, -0.7363196611404419, 1.678526520729065, -1.35400390625, 0.25244140625, 0.6904296875, 0, 
215, 3631008915, -0.3135733902454376, 0.7164554595947266, 0.3499775826931, 0.5156459808349609, 9.525898933410645, -0.8897985816001892, -2.7544291019439697, 6.778704643249512, -0.19811329245567322, 1.4944368600845337, -1.34765625, 0.251220703125, 0.694580078125, 0, 
216, 3631017248, -0.31377899646759033, 0.7163349390029907, 0.35005104541778564, 0.5156384110450745, 9.448760986328125, -0.8196046352386475, -2.646629571914673, 6.62460994720459, 0.1277637928724289, 1.4265336990356445, -1.345703125, 0.25341796875, 0.686767578125, 0, 
217, 3631025581, -0.31394726037979126, 0.7162293195724487, 0.35012632608413696, 0.5156316161155701, 9.484837532043457, -0.7956922650337219, -2.5543196201324463, 6.221441268920898, -0.13272015750408173, 1.3040207624435425, -1.350830078125, 0.248046875, 0.691650390625, 0, 
218, 3631033914, -0.31409406661987305, 0.716131329536438, 0.350183367729187, 0.5156396627426147, 9.567150115966797, -0.7952009439468384, -2.515361785888672, 5.744658470153809, -0.08932964503765106, 1.2121423482894897, -1.34765625, 0.251708984375, 0.689453125, 0, 
219, 3631042247, -0.3142322897911072, 0.7160309553146362, 0.3502524197101593, 0.5156479477882385, 9.643309593200684, -0.8066241145133972, -2.5763063430786133, 5.786895751953125, -0.14119847118854523, 1.1133995056152344, -1.34716796875, 0.25048828125, 0.692626953125, 0, 
220, 3631050580, -0.3143949508666992, 0.7159126996994019, 0.3503381609916687, 0.5156546235084534, 9.688971519470215, -0.8687075972557068, -2.654698371887207, 6.208250522613525, -0.007312864996492863, 0.9511078000068665, -1.35400390625, 0.25048828125, 0.6884765625, 0, 
221, 3631058913, -0.31457826495170593, 0.7157689929008484, 0.35045358538627625, 0.5156641006469727, 9.692995071411133, -0.873249351978302, -2.783296585083008, 6.74082088470459, 0.196333110332489, 0.7619209885597229, -1.348876953125, 0.25439453125, 0.690185546875, 0, 
222, 3631067246, -0.314828485250473, 0.7155976295471191, 0.35060620307922363, 0.5156452059745789, 9.63946533203125, -0.9124251008033752, -2.9082248210906982, 7.888545036315918, 0.24745917320251465, 0.7680429220199585, -1.345703125, 0.253662109375, 0.688720703125, 0, 
223, 3631075579, -0.31514525413513184, 0.7153980731964111, 0.35080838203430176, 0.5155910849571228, 9.701605796813965, -0.9796686172485352, -3.0026047229766846, 9.216925621032715, 0.23470328748226166, 0.8608176708221436, -1.351318359375, 0.253662109375, 0.686279296875, 0, 
224, 3631083912, -0.31550952792167664, 0.7151957750320435, 0.35101282596588135, 0.5155102014541626, 9.710371017456055, -1.1400879621505737, -3.0270118713378906, 9.82098388671875, 0.18316738307476044, 1.1866306066513062, -1.3544921875, 0.257568359375, 0.69091796875, 0, 
225, 3631092245, -0.3158833980560303, 0.714990496635437, 0.3511946201324463, 0.5154421329498291, 9.65817642211914, -1.261353611946106, -2.980078935623169, 9.726032257080078, 0.5003228187561035, 1.497792363166809, -1.355224609375, 0.2568359375, 0.685791015625, 0, 
226, 3631100578, -0.31627845764160156, 0.7147892713546753, 0.35135185718536377, 0.515371561050415, 9.55417251586914, -1.2432348728179932, -2.913172721862793, 9.740222930908203, 0.6333631873130798, 1.8287285566329956, -1.353271484375, 0.2568359375, 0.688232421875, 0, 
227, 3631108911, -0.3166528344154358, 0.714613676071167, 0.3515111207962036, 0.5152766704559326, 9.463055610656738, -1.166887879371643, -2.8391149044036865, 9.572808265686035, 0.12702099978923798, 1.9833614826202393, -1.35009765625, 0.258544921875, 0.686279296875, 0, 
228, 3631117244, -0.31699180603027344, 0.7144597768783569, 0.351645827293396, 0.5151897072792053, 9.453703880310059, -1.1395621299743652, -2.770214796066284, 8.891546249389648, -0.036205727607011795, 1.9534187316894531, -1.351318359375, 0.258056640625, 0.688232421875, 0, 
229, 3631125577, -0.3172779679298401, 0.714324414730072, 0.3517422676086426, 0.515135645866394, 9.511347770690918, -1.11113440990448, -2.7669787406921387, 7.887417793273926, 0.08952176570892334, 1.993274450302124, -1.3525390625, 0.26171875, 0.688232421875, 0, 
230, 3631133910, -0.3175567388534546, 0.7141890525817871, 0.3518264889717102, 0.515093982219696, 9.549644470214844, -1.0390048027038574, -2.7896924018859863, 7.64725923538208, 0.20598971843719482, 1.9156122207641602, -1.351318359375, 0.26171875, 0.6875, 0, 
231, 3631142243, -0.31785163283348083, 0.7140326499938965, 0.3519154489040375, 0.5150682926177979, 9.607357025146484, -0.9613644480705261, -2.787898540496826, 7.875635147094727, 0.5932513475418091, 1.9013960361480713, -1.351806640625, 0.25927734375, 0.688232421875, 0, 
232, 3631150576, -0.318188339471817, 0.7138582468032837, 0.3519929349422455, 0.5150488615036011, 9.624401092529297, -0.9410164952278137, -2.832714080810547, 8.231058120727539, 1.012069582939148, 2.104029893875122, -1.353271484375, 0.25732421875, 0.686279296875, 0, 
233, 3631158909, -0.3185531497001648, 0.7136701941490173, 0.3520756959915161, 0.5150275230407715, 9.601716041564941, -0.9401788711547852, -2.799530029296875, 8.63553237915039, 1.2254362106323242, 2.287376880645752, -1.351318359375, 0.26220703125, 0.68359375, 0, 
234, 3631167242, -0.3189518451690674, 0.713480532169342, 0.3521440625190735, 0.5149967670440674, 9.594510078430176, -0.9718937277793884, -2.8046553134918213, 8.894697189331055, 1.3503057956695557, 2.6074271202087402, -1.351318359375, 0.26025390625, 0.68359375, 0, 
235, 3631175575, -0.31934836506843567, 0.7133081555366516, 0.35219651460647583, 0.5149540901184082, 9.561270713806152, -1.0342329740524292, -2.7588043212890625, 8.766165733337402, 1.1911388635635376, 2.9782185554504395, -1.3525390625, 0.260986328125, 0.68505859375, 0, 
236, 3631183908, -0.3197491466999054, 0.713133692741394, 0.3522164225578308, 0.5149332284927368, 9.551007270812988, -1.0733503103256226, -2.723522663116455, 8.455567359924316, 1.5622892379760742, 3.129650354385376, -1.34814453125, 0.26220703125, 0.68359375, 0, 
237, 3631192241, -0.32016521692276, 0.712946891784668, 0.35224074125289917, 0.5149167776107788, 9.5570068359375, -1.015297293663025, -2.674192428588867, 8.69493293762207, 1.7679460048675537, 3.2062113285064697, -1.354248046875, 0.2626953125, 0.6806640625, 0, 
238, 3631200574, -0.3205975294113159, 0.7127509117126465, 0.3522816598415375, 0.5148910284042358, 9.533503532409668, -0.9621256589889526, -2.716899871826172, 9.02871036529541, 1.7302159070968628, 3.0636417865753174, -1.35107421875, 0.2626953125, 0.6767578125, 0, 
239, 3631208907, -0.32101115584373474, 0.7125509977340698, 0.3523297905921936, 0.514877200126648, 9.550332069396973, -0.9410234093666077, -2.743579864501953, 8.88591194152832, 1.7696107625961304, 2.880244016647339, -1.358154296875, 0.26611328125, 0.683837890625, 0, 
240, 3631217240, -0.3214227259159088, 0.7123386859893799, 0.3523719906806946, 0.5148853063583374, 9.549612998962402, -0.9050211310386658, -2.7639782428741455, 8.741191864013672, 2.066326379776001, 2.6775588989257812, -1.353515625, 0.267822265625, 0.681640625, 0, 
241, 3631225573, -0.3218209147453308, 0.7121157646179199, 0.35241982340812683, 0.5149120688438416, 9.543399810791016, -0.8720447421073914, -2.8033010959625244, 8.636378288269043, 2.256588935852051, 2.483940601348877, -1.352294921875, 0.26904296875, 0.682861328125, 0, 
242, 3631233906, -0.32224321365356445, 0.7118808031082153, 0.3524932861328125, 0.5149228572845459, 9.52830696105957, -0.8118111491203308, -2.850630044937134, 9.16164779663086, 2.169218063354492, 2.323415756225586, -1.35546875, 0.268310546875, 0.677978515625, 0, 
243, 3631242239, -0.32268524169921875, 0.7116092443466187, 0.3526323437690735, 0.5149264335632324, 9.467631340026855, -0.7955650091171265, -2.832047700881958, 10.039193153381348, 2.1836907863616943, 1.7678179740905762, -1.357421875, 0.26904296875, 0.6767578125, 0, 
244, 3631250572, -0.32314956188201904, 0.7112936973571777, 0.3528062105178833, 0.5149518251419067, 9.50717830657959, -0.8173549175262451, -2.780242443084717, 10.578756332397461, 2.641570568084717, 1.1835569143295288, -1.356689453125, 0.265625, 0.673583984375, 0, 
245, 3631258905, -0.3236221373081207, 0.7108914852142334, 0.35302436351776123, 0.5150609016418457, 9.620240211486816, -0.7880159616470337, -2.7307562828063965, 10.967273712158203, 3.9381632804870605, 0.1095777079463005, -1.359130859375, 0.270263671875, 0.67431640625, 0, 
246, 3631267238, -0.3240848183631897, 0.710426926612854, 0.35332632064819336, 0.5152037739753723, 9.672921180725098, -0.6752939820289612, -2.655451536178589, 11.553915977478027, 4.268458843231201, -1.326650857925415, -1.352294921875, 0.270751953125, 0.672607421875, 0, 
247, 3631275571, -0.32446712255477905, 0.7099935412406921, 0.35379642248153687, 0.5152381062507629, 9.67769718170166, -0.5834216475486755, -2.469245195388794, 12.373085975646973, 1.8655874729156494, -2.8107399940490723, -1.359130859375, 0.27392578125, 0.6728515625, 0, 
248, 3631283904, -0.3247889578342438, 0.7095276117324829, 0.35439085960388184, 0.5152686238288879, 9.795336723327637, -0.6530457735061646, -2.7121198177337646, 12.808171272277832, 1.1933674812316895, -4.683653831481934, -1.359130859375, 0.272705078125, 0.6728515625, 0, 
249, 3631292237, -0.3250219225883484, 0.7090420722961426, 0.3550511598587036, 0.5153356194496155, 9.843520164489746, -0.7405683994293213, -2.8309378623962402, 12.33602237701416, 0.9802057147026062, -6.126375198364258, -1.3603515625, 0.270751953125, 0.675048828125, 0, 
250, 3631300570, -0.32535651326179504, 0.7084685564041138, 0.3557831048965454, 0.5154083967208862, 9.8502197265625, -0.6955175399780273, -2.722095012664795, 14.175662994384766, 1.8157680034637451, -6.645576477050781, -1.3603515625, 0.27001953125, 0.669189453125, 0, 
251, 3631308903, -0.32599762082099915, 0.7076653838157654, 0.3566475510597229, 0.5155092477798462, 9.831440925598145, -0.6150674819946289, -2.7222084999084473, 19.01529884338379, 4.642735481262207, -6.928844928741455, -1.357177734375, 0.271728515625, 0.663330078125, 0, 
252, 3631317236, -0.3269616961479187, 0.7066084146499634, 0.35764411091804504, 0.5156580209732056, 9.735085487365723, -0.5951226949691772, -2.674269914627075, 23.97099494934082, 7.880276203155518, -7.466233730316162, -1.361572265625, 0.27001953125, 0.669189453125, 0, 
253, 3631325569, -0.3280242085456848, 0.7054632306098938, 0.3587242364883423, 0.5158010125160217, 9.595929145812988, -0.5663920640945435, -2.6741294860839844, 25.971595764160156, 8.578545570373535, -7.904827117919922, -1.359619140625, 0.2724609375, 0.6640625, 0, 
254, 3631333902, -0.32904285192489624, 0.7043435573577881, 0.3598201870918274, 0.5159187912940979, 9.501774787902832, -0.6465902328491211, -2.6607003211975098, 25.646602630615234, 7.844160079956055, -8.213478088378906, -1.36669921875, 0.2724609375, 0.66259765625, 0, 
255, 3631342235, -0.32986247539520264, 0.7033947706222534, 0.36095505952835083, 0.515897274017334, 9.527423858642578, -0.8134521842002869, -2.6511545181274414, 23.931903839111328, 4.14100456237793, -8.444415092468262, -1.36279296875, 0.2724609375, 0.664306640625, 0, 
256, 3631350568, -0.3304409980773926, 0.7026143074035645, 0.36206305027008057, 0.515813946723938, 9.66226577758789, -0.92795330286026, -2.5625102519989014, 20.932344436645508, 1.257428765296936, -8.86143970489502, -1.36669921875, 0.272216796875, 0.659912109375, 0, 
257, 3631358901, -0.33084091544151306, 0.7019226551055908, 0.36307454109191895, 0.5157883763313293, 9.745508193969727, -0.9212377071380615, -2.645244836807251, 17.849952697753906, 0.7520085573196411, -8.931341171264648, -1.365966796875, 0.274169921875, 0.6611328125, 0, 
258, 3631367234, -0.33132675290107727, 0.7011442184448242, 0.3640565276145935, 0.5158430337905884, 9.623231887817383, -0.7971216440200806, -2.904855251312256, 18.438671112060547, 2.6867806911468506, -8.918482780456543, -1.36279296875, 0.274658203125, 0.658447265625, 0, 
259, 3631375567, -0.332042396068573, 0.7001556158065796, 0.36514103412628174, 0.5159590244293213, 9.473549842834473, -0.5975126624107361, -2.9797985553741455, 22.05914306640625, 5.4705119132995605, -9.526900291442871, -1.367919921875, 0.269287109375, 0.662109375, 0, 
260, 3631383900, -0.3329589068889618, 0.698986291885376, 0.3663644790649414, 0.5160866379737854, 9.432355880737305, -0.43762481212615967, -2.8905768394470215, 25.7077693939209, 7.222963333129883, -10.476934432983398, -1.368408203125, 0.27587890625, 0.65478515625, 0, 
261, 3631392233, -0.33394506573677063, 0.6976984739303589, 0.3677109479904175, 0.5162345170974731, 9.401379585266113, -0.3189755082130432, -2.7156260013580322, 27.72809600830078, 8.063546180725098, -11.777576446533203, -1.368408203125, 0.274169921875, 0.65869140625, 0, 
262, 3631400566, -0.33490920066833496, 0.6963487863540649, 0.3691369593143463, 0.5164147019386292, 9.39915657043457, -0.17068050801753998, -2.644817590713501, 28.188234329223633, 8.316129684448242, -13.242198944091797, -1.37353515625, 0.276611328125, 0.655029296875, 0, 
263, 3631408899, -0.3358306884765625, 0.6949394941329956, 0.3706355094909668, 0.5166414380073547, 9.388901710510254, 0.027836401015520096, -2.6662826538085938, 28.347328186035156, 8.655059814453125, -14.673501968383789, -1.3671875, 0.274658203125, 0.653564453125, 0, 
264, 3631417232, -0.336679071187973, 0.693495512008667, 0.37216997146606445, 0.5169259309768677, 9.468388557434082, 0.26340451836586, -2.688629388809204, 27.745851516723633, 8.894038200378418, -16.052160263061523, -1.37841796875, 0.276611328125, 0.650146484375, 0, 
265, 3631425565, -0.337399423122406, 0.6920320987701416, 0.3736630380153656, 0.5173401832580566, 9.499141693115234, 0.5213606357574463, -2.630781888961792, 25.679752349853516, 9.826704978942871, -17.19430160522461, -1.37646484375, 0.2763671875, 0.64453125, 0, 
266, 3631433898, -0.33798128366470337, 0.6905801892280579, 0.3751094937324524, 0.5178535580635071, 9.497289657592773, 0.8224626183509827, -2.6596591472625732, 23.462146759033203, 10.171957969665527, -18.216537475585938, -1.37646484375, 0.276123046875, 0.641845703125, 0, 
267, 3631442231, -0.33849602937698364, 0.6890600919723511, 0.3766018748283386, 0.5184588432312012, 9.4855375289917, 1.1126208305358887, -2.657196283340454, 23.000146865844727, 10.992205619812012, -19.830291748046875, -1.37744140625, 0.2685546875, 0.64013671875, 0, 
268, 3631450564, -0.33898335695266724, 0.6874414086341858, 0.3781556487083435, 0.5191577672958374, 9.491189002990723, 1.4153494834899902, -2.5973830223083496, 23.144174575805664, 12.136805534362793, -21.62303352355957, -1.38037109375, 0.26904296875, 0.634765625, 0, 
269, 3631458897, -0.33945614099502563, 0.6856816411018372, 0.37982177734375, 0.5199592709541321, 9.41903018951416, 1.683292031288147, -2.453184127807617, 23.94160270690918, 13.530684471130371, -23.930217742919922, -1.3818359375, 0.2685546875, 0.638427734375, 0, 
270, 3631467230, -0.3398769795894623, 0.6837621927261353, 0.38157618045806885, 0.5209264159202576, 9.283283233642578, 1.880350112915039, -2.339778184890747, 23.963376998901367, 15.53279972076416, -26.810441970825195, -1.388671875, 0.26220703125, 0.63134765625, 0, 
271, 3631475563, -0.34006887674331665, 0.681776762008667, 0.3833644986152649, 0.5220891833305359, 9.113241195678711, 2.1141724586486816, -2.1403908729553223, 21.335535049438477, 16.502456665039062, -29.961383819580078, -1.387451171875, 0.26025390625, 0.630859375, 0, 
272, 3631483896, -0.3398421108722687, 0.6798458099365234, 0.38508546352386475, 0.5234864950180054, 9.113144874572754, 2.3917770385742188, -1.907978892326355, 15.41115951538086, 16.405786514282227, -33.19782257080078, -1.390869140625, 0.255859375, 0.624755859375, 0, 
273, 3631492229, -0.33909839391708374, 0.6780548691749573, 0.3866235613822937, 0.5251554250717163, 9.288578033447266, 2.7550365924835205, -1.759916067123413, 7.1927690505981445, 16.065628051757812, -35.68458557128906, -1.390869140625, 0.251953125, 0.624755859375, 0, 
274, 3631500562, -0.3379414677619934, 0.6763797998428345, 0.3880193531513214, 0.5270282030105591, 9.585148811340332, 3.075751304626465, -1.799121618270874, 0.6797003746032715, 15.583312034606934, -37.72529983520508, -1.394775390625, 0.248046875, 0.6181640625, 0, 
275, 3631508895, -0.33650538325309753, 0.6747729778289795, 0.389362096786499, 0.5290130376815796, 9.73258113861084, 3.3065531253814697, -1.814956545829773, -3.2084567546844482, 14.903742790222168, -39.36275100708008, -1.398193359375, 0.2373046875, 0.615234375, 0, 
276, 3631517228, -0.33489990234375, 0.6732072830200195, 0.3906708359718323, 0.531057596206665, 9.790021896362305, 3.4179587364196777, -1.7836509943008423, -5.546195983886719, 14.389923095703125, -40.374568939208984, -1.4013671875, 0.2275390625, 0.614990234375, 0, 
277, 3631525561, -0.33313390612602234, 0.6716761589050293, 0.39194533228874207, 0.5331640243530273, 10.043743133544922, 3.5254323482513428, -1.7794134616851807, -7.763931751251221, 14.023099899291992, -41.28989791870117, -1.406005859375, 0.22509765625, 0.615234375, 0, 
278, 3631533894, -0.3312690854072571, 0.6701121926307678, 0.3931450843811035, 0.5354055762290955, 10.210339546203613, 3.5320487022399902, -1.8879389762878418, -9.81591796875, 15.3049955368042, -42.148136138916016, -1.40625, 0.213134765625, 0.613037109375, 0, 
279, 3631542227, -0.3292880058288574, 0.6685224175453186, 0.39433902502059937, 0.5377322435379028, 10.319489479064941, 3.4788460731506348, -2.1103529930114746, -11.260412216186523, 15.694562911987305, -43.45003890991211, -1.40576171875, 0.202880859375, 0.61083984375, 0, 
280, 3631550560, -0.3272196054458618, 0.6668280363082886, 0.3955535888671875, 0.5402005910873413, 10.51312255859375, 3.279097318649292, -2.481372594833374, -12.211881637573242, 17.184473037719727, -45.51022720336914, -1.4140625, 0.194580078125, 0.601806640625, 0, 
281, 3631558893, -0.32506680488586426, 0.6649894714355469, 0.3967382311820984, 0.5428916215896606, 10.523780822753906, 3.110525369644165, -2.8013246059417725, -13.764470100402832, 19.993778228759766, -47.632511138916016, -1.414306640625, 0.181640625, 0.604736328125, 0, 
282, 3631567226, -0.322917640209198, 0.6629711389541626, 0.39797425270080566, 0.5457305908203125, 10.412208557128906, 2.9399006366729736, -2.981365203857422, -13.359614372253418, 22.459287643432617, -49.72268295288086, -1.41845703125, 0.170166015625, 0.600830078125, 0, 
283, 3631575559, -0.32064807415008545, 0.6608549356460571, 0.39926910400390625, 0.5486818552017212, 10.464334487915039, 2.759417772293091, -3.124586582183838, -14.185882568359375, 23.313709259033203, -52.1917839050293, -1.419921875, 0.16259765625, 0.595458984375, 0, 
284, 3631583892, -0.31820377707481384, 0.6586356163024902, 0.4005451798439026, 0.5518343448638916, 10.792526245117188, 2.682424306869507, -3.2809102535247803, -16.56402587890625, 25.029752731323242, -54.7905387878418, -1.424560546875, 0.15185546875, 0.59130859375, 0, 
285, 3631592225, -0.3155938982963562, 0.6563149094581604, 0.40180110931396484, 0.5551748275756836, 11.139949798583984, 2.844491720199585, -3.403475761413574, -18.810998916625977, 26.695104598999023, -57.24958801269531, -1.426025390625, 0.137451171875, 0.58984375, 0, 
286, 3631600558, -0.3126200735569, 0.6540939211845398, 0.4031619727611542, 0.5584819912910461, 11.179553985595703, 3.1074252128601074, -3.3420419692993164, -21.543235778808594, 23.150726318359375, -60.26737594604492, -1.42626953125, 0.1240234375, 0.585205078125, 0, 
287, 3631608891, -0.308769166469574, 0.6523058414459229, 0.4042477011680603, 0.5619204044342041, 11.03803825378418, 3.093928098678589, -3.291566848754883, -34.132423400878906, 17.340023040771484, -62.7046012878418, -1.430419921875, 0.10888671875, 0.58251953125, 0, 
288, 3631617224, -0.30330172181129456, 0.651322603225708, 0.4043629765510559, 0.5659412145614624, 10.83376407623291, 3.020902156829834, -3.2288973331451416, -62.782649993896484, 11.47443962097168, -64.46878814697266, -1.4345703125, 0.0927734375, 0.580810546875, 0, 
289, 3631625557, -0.29587700963020325, 0.6511683464050293, 0.4030371308326721, 0.5709725022315979, 10.862052917480469, 2.784306049346924, -2.8495616912841797, -100.61041259765625, 9.206643104553223, -66.41886138916016, -1.43310546875, 0.0732421875, 0.57861328125, 0, 
290, 3631633890, -0.28712499141693115, 0.6512117981910706, 0.400626540184021, 0.5770551562309265, 11.027541160583496, 2.519846200942993, -2.4641306400299072, -127.65035247802734, 14.12075424194336, -70.28497314453125, -1.434814453125, 0.0498046875, 0.574951171875, 0, 
291, 3631642223, -0.2785497307777405, 0.6505887508392334, 0.39847925305366516, 0.5834128856658936, 11.237405776977539, 2.0929713249206543, -2.0426650047302246, -122.85649871826172, 21.81239128112793, -76.0233154296875, -1.435546875, 0.019287109375, 0.5732421875, 0, 
292, 3631650556, -0.2709703743457794, 0.6490460634231567, 0.3972918689250946, 0.5894787907600403, 11.206546783447266, 1.4168366193771362, -1.3733237981796265, -101.11717224121094, 28.35542106628418, -80.51214599609375, -1.437255859375, -0.001708984375, 0.5654296875, 0, 
293, 3631658889, -0.26415130496025085, 0.6469685435295105, 0.39690539240837097, 0.5950914025306702, 10.815183639526367, 0.474011093378067, -1.0112568140029907, -83.37569427490234, 29.820173263549805, -82.75994873046875, -1.441162109375, -0.027587890625, 0.560546875, 0, 
294, 3631667222, -0.25753262639045715, 0.6448475122451782, 0.3970944285392761, 0.600147008895874, 10.287017822265625, -0.22453643381595612, -1.3130635023117065, -73.68397521972656, 24.21715545654297, -84.42350006103516, -1.43896484375, -0.051513671875, 0.552978515625, 0, 
295, 3631675555, -0.2509412169456482, 0.6428282856941223, 0.397615909576416, 0.604742705821991, 10.258406639099121, -0.2771241068840027, -1.749872088432312, -68.54872131347656, 18.275493621826172, -84.99280548095703, -1.438232421875, -0.072021484375, 0.54345703125, 0, 
296, 3631683888, -0.24472101032733917, 0.6407281160354614, 0.39859187602996826, 0.6088641285896301, 10.674249649047852, -0.22640347480773926, -1.8457272052764893, -58.626041412353516, 15.208724021911621, -84.70027160644531, -1.4375, -0.09521484375, 0.538818359375, 0, 
297, 3631692221, -0.2390994280576706, 0.6385680437088013, 0.39986318349838257, 0.6125223636627197, 11.267148971557617, -0.06398472934961319, -1.3350330591201782, -48.127899169921875, 13.925007820129395, -81.08788299560547, -1.43798828125, -0.113037109375, 0.5361328125, 0, 
298, 3631700554, -0.2338828295469284, 0.6363692283630371, 0.401091992855072, 0.6160114407539368, 11.152795791625977, -0.15334773063659668, -0.6633555293083191, -43.86886978149414, 15.126873016357422, -76.94109344482422, -1.435302734375, -0.1337890625, 0.5322265625, 0, 
299, 3631708887, -0.22913362085819244, 0.6341924071311951, 0.4024924039840698, 0.6191200017929077, 10.89167594909668, 0.038643546402454376, -0.712560772895813, -36.300315856933594, 13.642658233642578, -73.15861511230469, -1.435546875, -0.1513671875, 0.533935546875, 0, 
300, 3631717220, -0.2251376062631607, 0.6318786144256592, 0.4044444262981415, 0.6216744780540466, 10.615744590759277, 0.1265345811843872, -1.0409256219863892, -21.536645889282227, 12.398553848266602, -70.55239868164062, -1.437255859375, -0.174072265625, 0.5283203125, 0, 
301, 3631725553, -0.22170494496822357, 0.6295208930969238, 0.40704935789108276, 0.6235969662666321, 10.383184432983398, 0.2005736529827118, -0.9621080160140991, -7.409116268157959, 8.403606414794922, -69.71434020996094, -1.431884765625, -0.182373046875, 0.5263671875, 0, 
302, 3631733886, -0.21867705881595612, 0.6271972060203552, 0.41019850969314575, 0.6249422430992126, 10.131425857543945, 0.21999870240688324, -0.6331696510314941, 3.890946626663208, 3.7108776569366455, -68.99285888671875, -1.433349609375, -0.19482421875, 0.52294921875, 0, 
303, 3631742219, -0.21589456498622894, 0.6249306797981262, 0.41356515884399414, 0.625960648059845, 10.001928329467773, 0.3769943118095398, -0.45475223660469055, 9.547412872314453, 1.1407859325408936, -67.46595001220703, -1.4306640625, -0.211181640625, 0.522705078125, 0, 
304, 3631750552, -0.21318866312503815, 0.6228412389755249, 0.4170868396759033, 0.6266337037086487, 9.835762023925781, 0.5677474141120911, -0.6403324007987976, 12.983626365661621, -3.386587142944336, -66.10344696044922, -1.424560546875, -0.22119140625, 0.527587890625, 0, 
305, 3631758885, -0.2101578414440155, 0.6206637620925903, 0.42006605863571167, 0.627826988697052, 9.84652042388916, 0.5618889331817627, -1.0665488243103027, 2.7953176498413086, 1.564318299293518, -66.2893295288086, -1.421142578125, -0.230712890625, 0.525390625, 0, 
306, 3631767218, -0.20653671026229858, 0.6188048124313354, 0.4223563075065613, 0.6293251514434814, 9.568493843078613, 0.9224030375480652, -1.4065767526626587, -10.870505332946777, -0.013639630749821663, -64.54998779296875, -1.418701171875, -0.24072265625, 0.525390625, 0, 
307, 3631775551, -0.20260021090507507, 0.6172351837158203, 0.4240640699863434, 0.6309956312179565, 9.38473129272461, 1.1633397340774536, -1.7389118671417236, -20.42021942138672, -1.216975212097168, -61.128211975097656, -1.41455078125, -0.2509765625, 0.521240234375, 0, 
308, 3631783884, -0.19873778522014618, 0.6160324811935425, 0.4256042242050171, 0.6323606967926025, 9.253608703613281, 1.1369341611862183, -2.0308237075805664, -20.480859756469727, -6.104775428771973, -56.08191680908203, -1.41357421875, -0.262939453125, 0.52001953125, 0, 
309, 3631792217, -0.19535239040851593, 0.6146154999732971, 0.42709559202194214, 0.6337873935699463, 9.518166542053223, 1.0449597835540771, -2.0375618934631348, -16.645931243896484, -0.7824785709381104, -52.93284606933594, -1.406982421875, -0.280517578125, 0.520263671875, 0, 
310, 3631800550, -0.19252289831638336, 0.6130422353744507, 0.42869412899017334, 0.6350962519645691, 9.33973503112793, 1.1696277856826782, -1.775519847869873, -9.89637565612793, 2.5491597652435303, -49.60923385620117, -1.406494140625, -0.2880859375, 0.5205078125, 0, 
311, 3631808883, -0.1900300830602646, 0.6115290522575378, 0.4304060637950897, 0.6361472606658936, 9.07121467590332, 1.322559118270874, -1.610206127166748, -4.711580276489258, 1.5461549758911133, -46.574893951416016, -1.4013671875, -0.302490234375, 0.52001953125, 0, 
312, 3631817216, -0.18778175115585327, 0.6100378036499023, 0.43215411901474, 0.6370609402656555, 8.895129203796387, 1.5612884759902954, -1.2897446155548096, -1.5839741230010986, 1.5453094244003296, -44.2682991027832, -1.404541015625, -0.31005859375, 0.51904296875, 0, 
313, 3631825549, -0.18546989560127258, 0.6088453531265259, 0.43363890051841736, 0.6378695368766785, 8.745508193969727, 1.947824478149414, -1.2126679420471191, -4.570802211761475, -1.64385986328125, -40.552040100097656, -1.399658203125, -0.318359375, 0.51904296875, 0, 
314, 3631833882, -0.18315258622169495, 0.6078102588653564, 0.43485552072525024, 0.6386974453926086, 8.662781715393066, 2.184905767440796, -1.0647317171096802, -7.487140655517578, -2.218003749847412, -37.488548278808594, -1.397216796875, -0.323486328125, 0.5166015625, 0, 
315, 3631842215, -0.1806955486536026, 0.6070419549942017, 0.43571215867996216, 0.6395436525344849, 8.489140510559082, 2.5540554523468018, -1.047131896018982, -12.59533977508545, -4.331742763519287, -34.134883880615234, -1.395751953125, -0.33251953125, 0.52197265625, 0, 
316, 3631850548, -0.17822003364562988, 0.6063296794891357, 0.43623873591423035, 0.6405540108680725, 8.639320373535156, 2.815505027770996, -1.2217695713043213, -16.77410125732422, -2.7511894702911377, -31.63749122619629, -1.3896484375, -0.3408203125, 0.5205078125, 0, 
317, 3631858881, -0.1756661832332611, 0.6058410406112671, 0.4363653063774109, 0.6416347026824951, 8.4415283203125, 3.133589744567871, -0.8593457937240601, -21.922800064086914, -3.616259813308716, -27.800325393676758, -1.388916015625, -0.345947265625, 0.516845703125, 0, 
318, 3631867214, -0.1729433387517929, 0.6056708097457886, 0.4361530542373657, 0.6426785588264465, 8.331522941589355, 3.2927939891815186, -0.9673207402229309, -26.866788864135742, -6.939454555511475, -24.49362564086914, -1.390380859375, -0.354248046875, 0.51513671875, 0, 
319, 3631875547, -0.17005759477615356, 0.6057993769645691, 0.43562597036361694, 0.6436841487884521, 8.1754150390625, 3.353776216506958, -0.8273560404777527, -31.488378524780273, -10.117497444152832, -21.40291404724121, -1.38623046875, -0.359130859375, 0.516357421875, 0, 
320, 3631883880, -0.16700385510921478, 0.6061151623725891, 0.434756338596344, 0.6447734832763672, 8.114134788513184, 3.3924224376678467, -0.8088311553001404, -36.85874938964844, -11.286173820495605, -19.13718032836914, -1.388916015625, -0.367919921875, 0.514892578125, 0, 
321, 3631892213, -0.1639389842748642, 0.6064753532409668, 0.4339108169078827, 0.645790159702301, 8.2074556350708, 3.5199267864227295, -0.7841091752052307, -36.406864166259766, -12.401496887207031, -18.976911544799805, -1.37890625, -0.376220703125, 0.515380859375, 0, 
322, 3631900546, -0.16097865998744965, 0.6069387793540955, 0.43311741948127747, 0.6466314792633057, 8.210699081420898, 3.526562452316284, -0.6223589181900024, -34.25503158569336, -14.286476135253906, -17.49950408935547, -1.37890625, -0.376953125, 0.515380859375, 0, 
323, 3631908879, -0.15802423655986786, 0.6074854731559753, 0.43233734369277954, 0.6473685503005981, 8.122854232788086, 3.449174404144287, -0.6116796731948853, -33.65363311767578, -15.881014823913574, -16.80279541015625, -1.376220703125, -0.391357421875, 0.514404296875, 0, 
324, 3631917212, -0.15508370101451874, 0.6080390214920044, 0.43160539865493774, 0.648047924041748, 8.164175033569336, 3.3094773292541504, -0.7282106876373291, -32.782596588134766, -16.453468322753906, -16.94098472595215, -1.373779296875, -0.39501953125, 0.516357421875, 0, 
325, 3631925545, -0.15220752358436584, 0.6085498332977295, 0.4308682680130005, 0.6487406492233276, 8.19914722442627, 3.183629274368286, -0.662007749080658, -32.277061462402344, -15.560038566589355, -16.582561492919922, -1.37451171875, -0.4052734375, 0.51025390625, 0, 
326, 3631933878, -0.1494254320859909, 0.6090258359909058, 0.43014365434646606, 0.6494211554527283, 8.25915241241455, 3.0845048427581787, -0.6859557032585144, -31.23248863220215, -14.829085350036621, -16.052833557128906, -1.37158203125, -0.404052734375, 0.51513671875, 0, 
327, 3631942211, -0.14676925539970398, 0.6095811128616333, 0.42945122718811035, 0.6499639749526978, 8.105393409729004, 3.102693557739258, -0.6177959442138672, -29.239154815673828, -16.002038955688477, -14.422405242919922, -1.3623046875, -0.410888671875, 0.515625, 0, 
328, 3631950544, -0.14435769617557526, 0.6102284789085388, 0.42888540029525757, 0.6502700448036194, 8.014079093933105, 3.0569779872894287, -0.46614858508110046, -24.838977813720703, -17.63184356689453, -12.29833984375, -1.3642578125, -0.416748046875, 0.5107421875, 0, 
329, 3631958877, -0.1422668993473053, 0.6109575033187866, 0.4285931885242462, 0.6502388715744019, 7.9452385902404785, 3.2562270164489746, -0.4043603241443634, -17.88050079345703, -19.832998275756836, -10.550497055053711, -1.36181640625, -0.42138671875, 0.52099609375, 0, 
330, 3631967210, -0.1406543105840683, 0.6116909980773926, 0.4287751615047455, 0.6497800946235657, 7.859236717224121, 3.5149314403533936, -0.5584061145782471, -7.100743770599365, -21.579605102539062, -9.42305850982666, -1.358642578125, -0.42529296875, 0.516357421875, 0, 
331, 3631975543, -0.13956689834594727, 0.6123447418212891, 0.4294986128807068, 0.6489206552505493, 8.053738594055176, 4.073177337646484, -0.6857382655143738, 4.660820007324219, -22.1824893951416, -8.952448844909668, -1.35888671875, -0.431396484375, 0.521728515625, 0, 
332, 3631983876, -0.1388467401266098, 0.613131046295166, 0.4304172694683075, 0.6477227807044983, 8.152031898498535, 4.626522064208984, -0.6413847208023071, 11.23648452758789, -24.433931350708008, -5.9143171310424805, -1.35302734375, -0.42578125, 0.523193359375, 0, 
333, 3631992209, -0.13831543922424316, 0.6140191555023193, 0.4313710629940033, 0.6463593244552612, 8.225111961364746, 5.125477313995361, -0.8455174565315247, 13.932488441467285, -25.67422866821289, -3.5829596519470215, -1.35009765625, -0.42626953125, 0.527587890625, 0, 
334, 3632000542, -0.1379815638065338, 0.6149542331695557, 0.4323057532310486, 0.6449154615402222, 7.969506740570068, 5.0414042472839355, -0.931807279586792, 15.8237943649292, -25.572439193725586, -1.2589277029037476, -1.350830078125, -0.42919921875, 0.53515625, 0, 
335, 3632008875, -0.1376580446958542, 0.616050124168396, 0.4332447946071625, 0.6433066129684448, 7.462233066558838, 4.668582916259766, -0.8396086692810059, 16.617761611938477, -28.33024787902832, 0.08985481411218643, -1.3486328125, -0.423583984375, 0.539306640625, 0, 
336, 3632017208, -0.1372097283601761, 0.6174290180206299, 0.4341224431991577, 0.6414861679077148, 7.255829811096191, 4.253398418426514, -0.8096664547920227, 15.750800132751465, -33.2639274597168, 1.5727415084838867, -1.342529296875, -0.423583984375, 0.542236328125, 0, 
337, 3632025541, -0.1365528553724289, 0.6191102266311646, 0.4347184896469116, 0.6395995020866394, 7.37261438369751, 4.156246185302734, -0.335534930229187, 11.313899993896484, -37.196414947509766, 4.072105407714844, -1.33935546875, -0.420654296875, 0.556640625, 0, 
338, 3632033874, -0.13561967015266418, 0.6211197972297668, 0.43469834327697754, 0.6378610134124756, 7.619509220123291, 4.436891078948975, 0.3081133961677551, 2.0431480407714844, -39.334259033203125, 8.557291984558105, -1.33544921875, -0.423095703125, 0.555908203125, 0, 
339, 3632042207, -0.13466502726078033, 0.6233812570571899, 0.4340072572231293, 0.6363259553909302, 7.806614875793457, 5.174864768981934, 0.6162168979644775, -5.716273307800293, -38.665401458740234, 15.242465019226074, -1.338134765625, -0.422119140625, 0.564208984375, 0, 
340, 3632050540, -0.13404884934425354, 0.625712513923645, 0.43299734592437744, 0.6348541975021362, 7.8262434005737305, 5.841391563415527, 0.5613237619400024, -6.105738162994385, -36.14242172241211, 21.224782943725586, -1.327880859375, -0.414794921875, 0.56689453125, 0, 
341, 3632058873, -0.13386410474777222, 0.6279007196426392, 0.4319702088832855, 0.6334309577941895, 7.790852069854736, 6.223156452178955, 0.12427567690610886, -2.574528932571411, -31.85686683654785, 24.208486557006836, -1.32666015625, -0.41455078125, 0.572998046875, 0, 
342, 3632067206, -0.1341172158718109, 0.6298969984054565, 0.4310624599456787, 0.6320122480392456, 7.71852970123291, 6.424318313598633, -0.414070725440979, 2.5912420749664307, -27.785249710083008, 25.838729858398438, -1.33203125, -0.40673828125, 0.576904296875, 0, 
343, 3632075539, -0.13467606902122498, 0.631817102432251, 0.43041545152664185, 0.6304157972335815, 7.59130334854126, 6.540454864501953, -1.0756103992462158, 8.680316925048828, -27.30997085571289, 26.11930274963379, -1.328857421875, -0.403076171875, 0.580322265625, 0, 
344, 3632083872, -0.13520346581935883, 0.6338284015655518, 0.43001696467399597, 0.6285529732704163, 7.600666046142578, 6.420279502868652, -1.5084068775177002, 11.974852561950684, -31.09235954284668, 24.72327995300293, -1.32958984375, -0.404052734375, 0.586181640625, 0, 
345, 3632092205, -0.13534635305404663, 0.6360365748405457, 0.4295332431793213, 0.6266194581985474, 7.91663932800293, 6.154897689819336, -1.4319462776184082, 7.933203220367432, -35.49479293823242, 23.435346603393555, -1.324462890625, -0.396240234375, 0.593994140625, 0, 
346, 3632100538, -0.13491438329219818, 0.6384784579277039, 0.42892372608184814, 0.6246435642242432, 8.33279037475586, 5.808984279632568, -1.3497713804244995, 1.6559122800827026, -41.065189361572266, 21.05120086669922, -1.31689453125, -0.39501953125, 0.595458984375, 0, 
347, 3632108871, -0.13425645232200623, 0.6410848498344421, 0.4285973906517029, 0.6223356127738953, 8.549886703491211, 5.350500583648682, -1.8104945421218872, 3.7402760982513428, -47.2283935546875, 18.199031829833984, -1.3193359375, -0.390380859375, 0.606201171875, 0, 
348, 3632117204, -0.13409918546676636, 0.6431376338005066, 0.42914366722106934, 0.619870126247406, 8.990151405334473, 4.9478678703308105, -2.4160549640655518, 17.587894439697266, -42.564449310302734, 11.839640617370605, -1.317138671875, -0.384033203125, 0.60791015625, 0, 
349, 3632125537, -0.13459144532680511, 0.6446713209152222, 0.4307883083820343, 0.6170229315757751, 8.963410377502441, 4.593147277832031, -2.51460337638855, 35.88766098022461, -39.68220138549805, 5.283180236816406, -1.31103515625, -0.382568359375, 0.61767578125, 0, 
350, 3632133870, -0.13545969128608704, 0.6458470821380615, 0.43305838108062744, 0.6140069365501404, 8.937700271606445, 4.333570957183838, -2.5181710720062256, 46.2169303894043, -37.09811782836914, 1.1437046527862549, -1.3134765625, -0.38037109375, 0.622802734375, 0, 
351, 3632142203, -0.1359846144914627, 0.6474332213401794, 0.4352523982524872, 0.6106600761413574, 8.452230453491211, 4.526769161224365, -2.618248224258423, 43.70520782470703, -45.37924575805664, 1.9570368528366089, -1.30908203125, -0.377685546875, 0.634033203125, 0, 
352, 3632150536, -0.13554874062538147, 0.6500013470649719, 0.4372760057449341, 0.6065692901611328, 9.119872093200684, 5.44842529296875, -5.425957679748535, 36.352516174316406, -65.701904296875, 2.7004964351654053, -1.302490234375, -0.368408203125, 0.65234375, 0, 
353, 3632158869, -0.1347910612821579, 0.6532082557678223, 0.4392910897731781, 0.6018183827400208, 11.48017406463623, 6.05042028427124, -9.64515209197998, 36.168617248535156, -78.83033752441406, 5.138864517211914, -1.29296875, -0.36328125, 0.661376953125, 0, 
354, 3632167202, -0.13390932977199554, 0.6565172672271729, 0.44053006172180176, 0.5974934101104736, 13.34834098815918, 4.691218852996826, -7.536469459533691, 25.878231048583984, -75.17707061767578, 10.940234184265137, -1.289794921875, -0.361328125, 0.67822265625, 0, 
355, 3632175535, -0.13269741833209991, 0.6592170596122742, 0.43918535113334656, 0.5957789421081543, 12.940836906433105, 2.925607442855835, 0.015233557671308517, -13.033462524414062, -43.82752990722656, 23.02737808227539, -1.27978515625, -0.3603515625, 0.67919921875, 0, 
356, 3632183868, -0.1321863830089569, 0.661065936088562, 0.43612855672836304, 0.5960891842842102, 12.07636547088623, 3.7253808975219727, 4.889387130737305, -31.370649337768555, -11.147222518920898, 35.48377990722656, -1.272216796875, -0.35400390625, 0.68310546875, 0, 
357, 3632192201, -0.12987127900123596, 0.6625677943229675, 0.43075063824653625, 0.5988348126411438, 12.24112319946289, 5.241783142089844, 6.188803195953369, -80.78369140625, 7.2380170822143555, 35.259185791015625, -1.27783203125, -0.359619140625, 0.680419921875, 0, 
358, 3632200534, -0.12645529210567474, 0.6639612913131714, 0.42487049102783203, 0.6022136807441711, 10.825838088989258, 6.6700053215026855, 2.3070526123046875, -98.49563598632812, 8.255904197692871, 29.02422332763672, -1.286376953125, -0.367919921875, 0.67138671875, 0, 
359, 3632208867, -0.12362684309482574, 0.6650596857070923, 0.42246517539024353, 0.603280246257782, 10.405561447143555, 6.010914325714111, -2.252962589263916, -50.34360885620117, -13.002521514892578, 4.4324259757995605, -1.2880859375, -0.37060546875, 0.667236328125, 0, 
360, 3632217200, -0.12157849967479706, 0.6646909117698669, 0.423281192779541, 0.6035308837890625, 10.398833274841309, 1.2721117734909058, -3.3496811389923096, -9.223526000976562, -9.276342391967773, -25.662830352783203, -1.279541015625, -0.37451171875, 0.66552734375, 0, 
361, 3632225533, -0.11982905864715576, 0.6641790866851807, 0.42507725954055786, 0.6031818985939026, 9.564783096313477, -2.4662067890167236, -2.0302693843841553, 5.343238353729248, -13.428418159484863, -32.001014709472656, -1.281005859375, -0.382080078125, 0.66650390625, 0, 
362, 3632233866, -0.11845135688781738, 0.6647996306419373, 0.4260818362236023, 0.6020605564117432, 8.477298736572266, -4.165920257568359, -1.6993426084518433, 4.850468635559082, -26.43766212463379, -13.7689790725708, -1.275390625, -0.38427734375, 0.673828125, 0, 
363, 3632242199, -0.11818777024745941, 0.6669563055038452, 0.42614978551864624, 0.5996742248535156, 8.69155216217041, -3.9131133556365967, -3.966743230819702, 12.163736343383789, -42.626739501953125, 15.051848411560059, -1.272216796875, -0.383056640625, 0.67822265625, 0, 
364, 3632250532, -0.12016536295413971, 0.6697034239768982, 0.4255450367927551, 0.5966413021087646, 9.716373443603516, -2.4655683040618896, -4.991646766662598, 30.017642974853516, -39.2437858581543, 44.22417068481445, -1.272705078125, -0.375732421875, 0.686767578125, 0, 
365, 3632258865, -0.12425738573074341, 0.672633171081543, 0.4250381886959076, 0.5928568243980408, 10.610504150390625, -0.38139471411705017, -5.059594631195068, 54.373748779296875, -35.40761947631836, 62.97105407714844, -1.269287109375, -0.36572265625, 0.690185546875, 0, 
366, 3632267198, -0.12979120016098022, 0.6749434471130371, 0.42497944831848145, 0.5890754461288452, 11.189473152160645, 0.8266651034355164, -4.7478766441345215, 72.41337585449219, -22.70616340637207, 66.94883728027344, -1.272705078125, -0.346435546875, 0.69873046875, 0, 
367, 3632275531, -0.13560397922992706, 0.6766825914382935, 0.42477715015411377, 0.5859082937240601, 11.084371566772461, 1.4163329601287842, -3.995147466659546, 71.2599105834961, -10.455062866210938, 66.11376953125, -1.27294921875, -0.330078125, 0.707763671875, 0, 
368, 3632283864, -0.14142996072769165, 0.678052544593811, 0.42478451132774353, 0.5829343199729919, 10.348573684692383, 1.7480486631393433, -3.4091217517852783, 72.63634490966797, -6.028295040130615, 61.73275375366211, -1.277587890625, -0.309814453125, 0.7119140625, 0, 
369, 3632292197, -0.14672929048538208, 0.6793045997619629, 0.42495042085647583, 0.5800387859344482, 9.460670471191406, 1.919131875038147, -3.3626983165740967, 68.76382446289062, -7.705007553100586, 55.209739685058594, -1.2802734375, -0.29443359375, 0.716064453125, 0, 
370, 3632300530, -0.1508832722902298, 0.6809105277061462, 0.4245876669883728, 0.5773494243621826, 9.171405792236328, 1.9160763025283813, -3.5471091270446777, 51.930973052978516, -14.256531715393066, 52.642822265625, -1.28173828125, -0.27734375, 0.721923828125, 0, 
371, 3632308863, -0.15455611050128937, 0.6827871203422546, 0.42403310537338257, 0.5745624303817749, 9.43960952758789, 2.116077184677124, -3.6352715492248535, 45.908878326416016, -19.70118522644043, 52.4222526550293, -1.2822265625, -0.2666015625, 0.7255859375, 0, 
372, 3632317196, -0.15845556557178497, 0.684535026550293, 0.42377331852912903, 0.571604311466217, 9.75560474395752, 1.7487499713897705, -3.31624174118042, 51.6165771484375, -19.637290954589844, 51.04351043701172, -1.28076171875, -0.254150390625, 0.726318359375, 0, 
373, 3632325529, -0.16272440552711487, 0.6860172748565674, 0.4236217737197876, 0.5687332153320312, 9.674898147583008, 1.10249924659729, -3.2084672451019287, 56.036502838134766, -14.771281242370605, 51.20691680908203, -1.2861328125, -0.238037109375, 0.733154296875, 0, 
374, 3632333862, -0.1668926328420639, 0.687445342540741, 0.423065721988678, 0.5662093162536621, 9.597291946411133, 0.6484584212303162, -3.361605644226074, 50.01533889770508, -10.786911010742188, 53.1191291809082, -1.28076171875, -0.2236328125, 0.73828125, 0, 
375, 3632342195, -0.17130881547927856, 0.6886798143386841, 0.42239195108413696, 0.5638885498046875, 9.544294357299805, 0.5885058641433716, -3.63018798828125, 50.712459564208984, -5.613194465637207, 54.593780517578125, -1.2880859375, -0.212158203125, 0.741943359375, 0, 
376, 3632350528, -0.17596308887004852, 0.6897664070129395, 0.42180100083351135, 0.5615648031234741, 9.309344291687012, 0.7064816355705261, -3.4980695247650146, 53.96918487548828, -3.339332103729248, 54.7760124206543, -1.28564453125, -0.194580078125, 0.743896484375, 0, 
377, 3632358861, -0.18080584704875946, 0.6906964778900146, 0.42137017846107483, 0.5592018365859985, 9.253314971923828, 0.8834150433540344, -3.0560553073883057, 57.604736328125, -1.7655092477798462, 53.92714309692383, -1.287841796875, -0.17626953125, 0.747314453125, 0, 
378, 3632367194, -0.18552753329277039, 0.6916168928146362, 0.42068761587142944, 0.557027280330658, 9.140859603881836, 1.28663969039917, -3.0278971195220947, 53.44662857055664, -0.004751464817672968, 54.831546783447266, -1.288818359375, -0.166259765625, 0.747802734375, 0, 
379, 3632375527, -0.1902327537536621, 0.6925196647644043, 0.41983354091644287, 0.554959237575531, 8.93700122833252, 1.9926378726959229, -3.090385675430298, 51.41004943847656, 1.513475775718689, 55.99485397338867, -1.289794921875, -0.15185546875, 0.746826171875, 0, 
380, 3632383860, -0.1949879676103592, 0.6933842897415161, 0.4188716411590576, 0.5529525279998779, 8.930599212646484, 2.4599082469940186, -3.090555429458618, 50.800071716308594, 2.9300272464752197, 56.98691940307617, -1.297119140625, -0.14111328125, 0.744873046875, 0, 
381, 3632392193, -0.19943195581436157, 0.6943226456642151, 0.41763073205947876, 0.5511257648468018, 8.786065101623535, 2.6398541927337646, -2.9104855060577393, 44.4859619140625, 3.0700085163116455, 57.25932693481445, -1.301025390625, -0.12158203125, 0.74853515625, 0, 
382, 3632400526, -0.20353834331035614, 0.6953072547912598, 0.41622447967529297, 0.549444317817688, 8.710420608520508, 2.43727707862854, -3.028839588165283, 39.04084014892578, 2.5917611122131348, 56.10882568359375, -1.297607421875, -0.110107421875, 0.75048828125, 0, 
383, 3632408859, -0.20739084482192993, 0.6962559819221497, 0.41473615169525146, 0.547925591468811, 8.895259857177734, 1.9762835502624512, -3.1552348136901855, 35.169090270996094, 3.2256641387939453, 54.35099411010742, -1.30615234375, -0.098876953125, 0.747314453125, 0, 
384, 3632417192, -0.2110399305820465, 0.6971731185913086, 0.41327452659606934, 0.5464686155319214, 9.038084030151367, 1.3666645288467407, -3.1075735092163086, 33.16101837158203, 2.78814435005188, 52.171661376953125, -1.303955078125, -0.085205078125, 0.74755859375, 0, 
385, 3632425525, -0.21462948620319366, 0.6979779005050659, 0.4119219481945038, 0.5450627207756042, 9.03839111328125, 0.9508177042007446, -3.228337526321411, 33.4449462890625, 3.49807071685791, 49.92783737182617, -1.304931640625, -0.07373046875, 0.75048828125, 0, 
386, 3632433858, -0.21854344010353088, 0.6985785365104675, 0.410889208316803, 0.543515145778656, 9.002189636230469, 0.9922627210617065, -3.5853545665740967, 40.357906341552734, 4.53355598449707, 48.516963958740234, -1.30859375, -0.067626953125, 0.74853515625, 0, 
387, 3632442191, -0.22297951579093933, 0.6988897919654846, 0.41033169627189636, 0.5417315363883972, 8.877131462097168, 0.9353494644165039, -3.8069517612457275, 51.131813049316406, 5.978285312652588, 46.962158203125, -1.3095703125, -0.0517578125, 0.74951171875, 0, 
388, 3632450524, -0.22759878635406494, 0.699016809463501, 0.409930020570755, 0.5399475693702698, 8.729839324951172, 0.9863431453704834, -3.864269733428955, 54.61638641357422, 7.875261306762695, 45.75712585449219, -1.310546875, -0.036865234375, 0.747802734375, 0, 
389, 3632458857, -0.23227107524871826, 0.6990731954574585, 0.4095246195793152, 0.5381900072097778, 8.862887382507324, 1.2477312088012695, -4.187976837158203, 55.17475128173828, 8.993941307067871, 45.738548278808594, -1.315673828125, -0.021728515625, 0.746337890625, 0, 
390, 3632467190, -0.23680919408798218, 0.6991870403289795, 0.40898463129997253, 0.5364720225334167, 8.900762557983398, 1.2211174964904785, -3.8880066871643066, 52.47142028808594, 8.594457626342773, 46.20363998413086, -1.321044921875, -0.008544921875, 0.743896484375, 0, 
391, 3632475523, -0.24118399620056152, 0.6993733644485474, 0.40820184350013733, 0.5348742008209229, 8.862330436706543, 1.211739420890808, -3.9451980590820312, 48.20869827270508, 9.115579605102539, 47.38299560546875, -1.319580078125, 0.00390625, 0.7470703125, 0, 
392, 3632483856, -0.2456350475549698, 0.6995859146118164, 0.4073590040206909, 0.5332105159759521, 8.99097728729248, 1.2525163888931274, -4.064776420593262, 48.78092575073242, 8.891454696655273, 48.85087966918945, -1.324951171875, 0.017578125, 0.741943359375, 0, 
393, 3632492189, -0.24999229609966278, 0.6999534964561462, 0.40624648332595825, 0.5315492749214172, 9.004591941833496, 1.251275897026062, -3.772045612335205, 45.36789321899414, 8.187189102172852, 51.65385437011719, -1.31640625, 0.029541015625, 0.741455078125, 0, 
394, 3632500522, -0.25413379073143005, 0.7005373239517212, 0.40465056896209717, 0.5300314426422119, 8.924261093139648, 1.425480604171753, -3.475613594055176, 38.194976806640625, 8.4232759475708, 55.41293716430664, -1.328125, 0.044677734375, 0.74072265625, 0, 
395, 3632508855, -0.258105605840683, 0.7013099193572998, 0.40266692638397217, 0.5285993218421936, 8.899412155151367, 1.6921969652175903, -3.393698215484619, 32.6143798828125, 8.305525779724121, 58.694862365722656, -1.3271484375, 0.056396484375, 0.738525390625, 0, 
396, 3632517188, -0.26190030574798584, 0.70224928855896, 0.4004316031932831, 0.52718186378479, 9.054827690124512, 1.7493640184402466, -3.216256618499756, 28.39098358154297, 7.1272664070129395, 60.675270080566406, -1.326171875, 0.069091796875, 0.739990234375, 0, 
397, 3632525521, -0.2651875913143158, 0.7033991813659668, 0.39781543612480164, 0.5259848833084106, 9.365174293518066, 1.2652192115783691, -2.89180326461792, 18.770566940307617, 6.327124118804932, 61.06889343261719, -1.327392578125, 0.076904296875, 0.733642578125, 0, 
398, 3632533854, -0.2677128314971924, 0.7047606110572815, 0.3946201801300049, 0.5252895355224609, 9.66689682006836, 0.7749806642532349, -3.1308517456054688, 3.6778318881988525, 7.572310447692871, 60.461151123046875, -1.330810546875, 0.0927734375, 0.734619140625, 0, 
399, 3632542187, -0.2699524164199829, 0.706165611743927, 0.3912634551525116, 0.524767279624939, 9.781535148620605, 0.6016347408294678, -2.998011589050293, -1.3397696018218994, 8.000734329223633, 59.58702087402344, -1.3310546875, 0.099365234375, 0.72998046875, 0, 
400, 3632550520, -0.2722916007041931, 0.7074649930000305, 0.38799142837524414, 0.5242373943328857, 9.749639511108398, 0.43982362747192383, -2.7933590412139893, 0.6619506478309631, 8.890265464782715, 58.91965103149414, -1.33544921875, 0.109375, 0.728759765625, 0, 
401, 3632558853, -0.274522066116333, 0.7087501287460327, 0.3847086429595947, 0.5237575769424438, 9.631309509277344, 0.3041578233242035, -2.6483407020568848, -0.676845371723175, 8.959758758544922, 58.002525329589844, -1.333251953125, 0.1201171875, 0.7294921875, 0, 
402, 3632567186, -0.2766802906990051, 0.7099713087081909, 0.38139981031417847, 0.5233879685401917, 9.626368522644043, 0.12215514481067657, -2.706723690032959, -1.9218031167984009, 10.191370964050293, 56.95395278930664, -1.33251953125, 0.12548828125, 0.722412109375, 0, 
403, 3632575519, -0.27891117334365845, 0.7110865116119385, 0.37814778089523315, 0.5230494737625122, 9.610905647277832, 0.06604437530040741, -2.666459321975708, -0.5527952313423157, 11.441733360290527, 56.274566650390625, -1.336669921875, 0.133056640625, 0.726318359375, 0, 
404, 3632583852, -0.2813359200954437, 0.7120578289031982, 0.37500905990600586, 0.5226891040802002, 9.616145133972168, 0.019665738567709923, -2.7104666233062744, 2.819162130355835, 12.816476821899414, 55.87221908569336, -1.338134765625, 0.1474609375, 0.72216796875, 0, 
405, 3632592185, -0.2838572859764099, 0.7129302024841309, 0.371969610452652, 0.5223086476325989, 9.557520866394043, -0.019692139700055122, -2.9112436771392822, 4.970302104949951, 13.46518325805664, 55.1871452331543, -1.340576171875, 0.153564453125, 0.7158203125, 0, 
406, 3632600518, -0.2865605354309082, 0.7136744260787964, 0.3691141605377197, 0.5218413472175598, 9.51917552947998, -0.006344611756503582, -3.287867546081543, 9.016928672790527, 13.724274635314941, 54.3465461730957, -1.34228515625, 0.1591796875, 0.715576171875, 0, 
407, 3632608851, -0.2893032431602478, 0.7143692970275879, 0.3664012551307678, 0.5212889909744263, 9.532319068908691, -0.04448341205716133, -3.5419740676879883, 11.056876182556152, 12.903154373168945, 53.34148406982422, -1.344482421875, 0.171875, 0.716796875, 0, 
408, 3632617184, -0.2918829321861267, 0.7151105403900146, 0.36369600892066956, 0.5207288265228271, 9.446146011352539, 0.03386463224887848, -3.7868120670318604, 9.358954429626465, 11.624053955078125, 52.33491897583008, -1.34130859375, 0.17529296875, 0.70751953125, 0, 
409, 3632625517, -0.2943879961967468, 0.7158470153808594, 0.36099690198898315, 0.5201847553253174, 9.460354804992676, -0.17529790103435516, -3.65570068359375, 8.61403751373291, 11.436861038208008, 51.6790771484375, -1.338623046875, 0.187744140625, 0.7109375, 0, 
410, 3632633850, -0.29689615964889526, 0.7165415287017822, 0.35827571153640747, 0.519683837890625, 9.518404960632324, -0.26135799288749695, -3.3502893447875977, 8.43399429321289, 12.249603271484375, 51.511688232421875, -1.34521484375, 0.1962890625, 0.700927734375, 0, 
411, 3632642183, -0.29941117763519287, 0.7171950340270996, 0.35553810000419617, 0.5192193984985352, 9.4002685546875, -0.2267112284898758, -3.384413242340088, 8.37979507446289, 13.019620895385742, 51.3961181640625, -1.344482421875, 0.20263671875, 0.701904296875, 0, 
412, 3632650516, -0.30194413661956787, 0.7179254293441772, 0.35280096530914307, 0.5186100006103516, 9.327580451965332, -0.24395185708999634, -3.331676721572876, 8.9495849609375, 11.112380981445312, 52.467742919921875, -1.3447265625, 0.21337890625, 0.70361328125, 0, 
413, 3632658849, -0.30454856157302856, 0.7187236547470093, 0.3500315845012665, 0.5178574919700623, 9.323410034179688, -0.43181148171424866, -3.012498140335083, 9.840169906616211, 9.711407661437988, 54.243255615234375, -1.344482421875, 0.22509765625, 0.698974609375, 0, 
414, 3632667182, -0.307223916053772, 0.7195752859115601, 0.3471827507019043, 0.5170114040374756, 9.323333740234375, -0.5691075921058655, -3.1939005851745605, 10.194878578186035, 9.067977905273438, 56.16108322143555, -1.344482421875, 0.22998046875, 0.69677734375, 0, 
415, 3632675515, -0.310095876455307, 0.7203930020332336, 0.3443393409252167, 0.5160590410232544, 9.269286155700684, -0.7949946522712708, -3.2290127277374268, 12.837409019470215, 9.18624210357666, 57.814456939697266, -1.3466796875, 0.24365234375, 0.693359375, 0, 
416, 3632683848, -0.31305426359176636, 0.7211834192276001, 0.3414574861526489, 0.5150827765464783, 9.236868858337402, -0.9026750326156616, -2.8394575119018555, 13.633272171020508, 9.702089309692383, 58.75889587402344, -1.34765625, 0.251953125, 0.695068359375, 0, 
417, 3632692181, -0.3156946003437042, 0.7221510410308838, 0.3384132981300354, 0.5141239166259766, 9.245052337646484, -1.0497006177902222, -2.354829788208008, 8.500930786132812, 7.839287281036377, 58.89468765258789, -1.3466796875, 0.264892578125, 0.687255859375, 0, 
418, 3632700514, -0.3179017901420593, 0.7233397364616394, 0.33523029088974, 0.5131770968437195, 9.451671600341797, -1.1715770959854126, -2.406425952911377, 2.1948907375335693, 4.971123695373535, 58.16416931152344, -1.348388671875, 0.271728515625, 0.6865234375, 0, 
419, 3632708847, -0.3199872076511383, 0.724548876285553, 0.33208030462265015, 0.5122224688529968, 9.72262191772461, -1.1697114706039429, -2.8650548458099365, 1.1699591875076294, 4.055052757263184, 57.12818908691406, -1.34765625, 0.2822265625, 0.684814453125, 0, 
420, 3632717180, -0.3223556578159332, 0.7255438566207886, 0.32896238565444946, 0.5113398432731628, 9.760516166687012, -1.055117130279541, -3.3068432807922363, 4.8263258934021, 7.418212413787842, 57.48619842529297, -1.34423828125, 0.292236328125, 0.68701171875, 0, 
421, 3632725513, -0.3245832324028015, 0.7267833352088928, 0.325793981552124, 0.5101978778839111, 9.394999504089355, -0.837472677230835, -3.434342622756958, 3.158219337463379, 2.712402105331421, 59.276390075683594, -1.343505859375, 0.3017578125, 0.687255859375, 0, 
422, 3632733846, -0.3270513117313385, 0.7278366088867188, 0.3225889801979065, 0.5091556906700134, 9.495683670043945, -0.6758061647415161, -3.4561023712158203, 5.678258895874023, 6.244924545288086, 60.030948638916016, -1.34765625, 0.310302734375, 0.682373046875, 0, 
423, 3632742179, -0.32938244938850403, 0.7289285659790039, 0.3191930055618286, 0.5082303881645203, 9.187882423400879, -0.20713351666927338, -3.098463535308838, 2.2898943424224854, 7.407045841217041, 60.64791488647461, -1.344970703125, 0.3173828125, 0.683349609375, 0, 
424, 3632750512, -0.33151862025260925, 0.7301515936851501, 0.31562209129333496, 0.5073150396347046, 9.091583251953125, 0.29874494671821594, -3.166074275970459, -1.528163194656372, 6.519869327545166, 61.5516242980957, -1.340087890625, 0.330078125, 0.677734375, 0, 
425, 3632758845, -0.3334801197052002, 0.7315077781677246, 0.311888188123703, 0.5063842535018921, 9.033656120300293, 0.9004795551300049, -3.1083383560180664, -4.955257415771484, 5.426753044128418, 62.634761810302734, -1.34130859375, 0.337158203125, 0.679443359375, 0, 
426, 3632767178, -0.335164338350296, 0.7331006526947021, 0.30805453658103943, 0.5053145289421082, 9.06116008758545, 1.5658481121063232, -3.065844774246216, -8.93085765838623, 1.6439018249511719, 63.34730911254883, -1.33642578125, 0.3525390625, 0.673828125, 0, 
427, 3632775511, -0.33677029609680176, 0.7347307205200195, 0.30409014225006104, 0.5042794346809387, 8.989295959472656, 2.2976183891296387, -3.173034906387329, -10.944554328918457, 2.010929584503174, 64.13408660888672, -1.335693359375, 0.35693359375, 0.673583984375, 0, 
428, 3632783844, -0.33853429555892944, 0.7361620664596558, 0.3003224730491638, 0.5032675266265869, 8.968206405639648, 2.834738254547119, -2.696934223175049, -7.162751197814941, 3.3684372901916504, 62.29704284667969, -1.333740234375, 0.364990234375, 0.67333984375, 0, 
429, 3632792177, -0.3403356671333313, 0.7373950481414795, 0.29677703976631165, 0.5023500323295593, 9.091694831848145, 3.1188809871673584, -2.5393948554992676, -4.709332466125488, 4.822662830352783, 59.051902770996094, -1.334716796875, 0.37255859375, 0.675048828125, 0, 
430, 3632800510, -0.34199750423431396, 0.7385724186897278, 0.29336798191070557, 0.5014933347702026, 9.282772064208984, 3.103041410446167, -2.420900821685791, -5.166059494018555, 4.611880779266357, 56.2021369934082, -1.330810546875, 0.37744140625, 0.6708984375, 0, 
431, 3632808843, -0.3435160517692566, 0.7396215200424194, 0.2899816036224365, 0.5008785128593445, 9.353570938110352, 2.6749401092529297, -2.373748779296875, -6.842181205749512, 7.26951789855957, 53.322059631347656, -1.33056640625, 0.390625, 0.673095703125, 0, 
432, 3632817176, -0.3449195623397827, 0.7405190467834473, 0.28680115938186646, 0.5004188418388367, 9.28291130065918, 2.436852216720581, -2.3843748569488525, -6.490418434143066, 8.460350036621094, 49.115867614746094, -1.326904296875, 0.392578125, 0.673583984375, 0, 
433, 3632825509, -0.34630149602890015, 0.7412077188491821, 0.2839334011077881, 0.5000802278518677, 9.462421417236328, 1.8782329559326172, -2.461618661880493, -4.050629138946533, 9.563194274902344, 44.36723709106445, -1.3271484375, 0.401123046875, 0.6708984375, 0, 
434, 3632833842, -0.34750646352767944, 0.7417263984680176, 0.28138670325279236, 0.49991461634635925, 9.629264831542969, 1.690126657485962, -2.71127986907959, -3.5080151557922363, 10.273704528808594, 38.42245101928711, -1.324462890625, 0.4072265625, 0.666259765625, 0, 
435, 3632842175, -0.34879833459854126, 0.7418924570083618, 0.2792797386646271, 0.4999501705169678, 10.05978012084961, 1.6739450693130493, -3.0455756187438965, 1.304508924484253, 12.986790657043457, 32.17533493041992, -1.323974609375, 0.40966796875, 0.666015625, 0, 
436, 3632850508, -0.3505557179450989, 0.7414186000823975, 0.27780938148498535, 0.5002427697181702, 10.37120532989502, 1.7541638612747192, -3.4430181980133057, 12.524042129516602, 18.73790740966797, 25.234376907348633, -1.326904296875, 0.41552734375, 0.666015625, 0, 
437, 3632858841, -0.35282713174819946, 0.7402521967887878, 0.27691900730133057, 0.5008665323257446, 10.426031112670898, 1.8974215984344482, -3.681861639022827, 23.815176010131836, 26.05160903930664, 18.5721378326416, -1.32861328125, 0.42138671875, 0.658447265625, 0, 
438, 3632867174, -0.3552641272544861, 0.7386080026626587, 0.2763657569885254, 0.5018758177757263, 10.333207130432129, 2.0627336502075195, -3.4200358390808105, 28.68886375427246, 32.25895309448242, 12.644898414611816, -1.33154296875, 0.425537109375, 0.6484375, 0, 
439, 3632875507, -0.3575405478477478, 0.736700177192688, 0.2759898006916046, 0.5032684803009033, 10.244135856628418, 2.3243136405944824, -3.375424861907959, 28.096099853515625, 36.4970703125, 6.806892395019531, -1.339111328125, 0.42919921875, 0.6435546875, 0, 
440, 3632883840, -0.35959869623184204, 0.7345874309539795, 0.27575185894966125, 0.5050177574157715, 10.225926399230957, 2.790801525115967, -3.071614980697632, 26.512527465820312, 40.02470397949219, 1.4318386316299438, -1.341552734375, 0.431640625, 0.6376953125, 0, 
441, 3632892173, -0.36155080795288086, 0.7321754693984985, 0.27581286430358887, 0.5070890188217163, 10.241085052490234, 3.559537172317505, -2.8425722122192383, 27.757083892822266, 43.47314453125, -5.116954326629639, -1.34716796875, 0.4306640625, 0.627197265625, 0, 
442, 3632900506, -0.3633902966976166, 0.7294356226921082, 0.2763490676879883, 0.5094252824783325, 10.304672241210938, 4.4409685134887695, -2.7175586223602295, 30.58201789855957, 45.64113235473633, -13.166098594665527, -1.351318359375, 0.436279296875, 0.62158203125, 0, 
443, 3632908839, -0.3650355935096741, 0.7264039516448975, 0.2775094211101532, 0.511944055557251, 10.611559867858887, 5.60447359085083, -2.787928581237793, 33.752628326416016, 45.65424728393555, -22.889455795288086, -1.359619140625, 0.43408203125, 0.61376953125, 0, 
444, 3632917172, -0.3664356470108032, 0.7230964303016663, 0.27936840057373047, 0.5146083831787109, 10.988858222961426, 6.758643627166748, -2.9322924613952637, 37.07234573364258, 44.61430358886719, -33.276466369628906, -1.365966796875, 0.433837890625, 0.60400390625, 0, 
445, 3632925505, -0.36753928661346436, 0.7194936871528625, 0.2821369171142578, 0.5173534154891968, 11.697566032409668, 8.005423545837402, -3.094658136367798, 41.71657180786133, 41.778709411621094, -46.06018829345703, -1.370361328125, 0.42919921875, 0.5927734375, 0, 
446, 3632933838, -0.368136465549469, 0.7155582904815674, 0.28568753600120544, 0.520429253578186, 12.168094635009766, 8.89297103881836, -2.9188201427459717, 42.690155029296875, 41.50892639160156, -60.239620208740234, -1.376708984375, 0.4248046875, 0.586181640625, 0, 
447, 3632942171, -0.3680849075317383, 0.7112947106361389, 0.2897799015045166, 0.5240353941917419, 11.919266700744629, 9.590664863586426, -2.7487950325012207, 39.739166259765625, 43.777076721191406, -74.31346130371094, -1.382568359375, 0.41259765625, 0.57470703125, 0, 
