PacketCounter,SampleTimeFine,Quat_W,Quat_X,Quat_Y,Quat_Z,Acc_X,Acc_Y,Acc_Z,Gyr_X,Gyr_Y,Gyr_Z,Mag_X,Mag_Y,Mag_Z,Status,
0, 1031112915, 0.5299919843673706, 0.4560343325138092, -0.5333162546157837, 0.47615382075309753, 0, 0, 0, 0, 0, 0, -1.00146484375, 0.2646484375, -0.24658203125, 0, 
1, 1031121248, 0.5298700332641602, 0.4561506509780884, -0.5333614945411682, 0.4761275351047516, 9.997153282165527, -0.35658004879951477, 0.11536987870931625, 0.9374170303344727, -1.6785008907318115, 0.13056856393814087, -0.9990234375, 0.255859375, -0.24462890625, 0, 
2, 1031129581, 0.5297459363937378, 0.4562702178955078, -0.5333803296089172, 0.4761301279067993, 9.950285911560059, -0.32604286074638367, 0.09975326806306839, 1.3440684080123901, -1.3544038534164429, 0.1962178349494934, -1.0029296875, 0.26171875, -0.24365234375, 0, 
3, 1031137914, 0.5296301245689392, 0.45637932419776917, -0.533396303653717, 0.476136177778244, 9.907849311828613, -0.3358902037143707, 0.07034183293581009, 1.2750893831253052, -1.1703400611877441, 0.1959872990846634, -1, 0.2548828125, -0.240234375, 0, 
4, 1031146247, 0.5295147895812988, 0.4564855396747589, -0.5334216952323914, 0.4761343002319336, 9.90519905090332, -0.3021596670150757, 0.05416809767484665, 1.1169471740722656, -1.2761268615722656, 0.24565333127975464, -0.99951171875, 0.26220703125, -0.2412109375, 0, 
5, 1031154580, 0.5294080972671509, 0.4565727710723877, -0.5334389805793762, 0.4761499762535095, 9.906129837036133, -0.2877731919288635, 0.06475468724966049, 1.121865153312683, -0.910816490650177, 0.3750564157962799, -0.998046875, 0.26220703125, -0.2431640625, 0, 
6, 1031162913, 0.529304027557373, 0.4566466510295868, -0.533462405204773, 0.47616857290267944, 9.911867141723633, -0.299089252948761, 0.07254431396722794, 0.9713429808616638, -0.8413892388343811, 0.545864999294281, -1.0009765625, 0.259765625, -0.24267578125, 0, 
7, 1031171246, 0.5291789770126343, 0.4567334055900574, -0.5335057973861694, 0.4761756360530853, 9.929807662963867, -0.33235540986061096, 0.0819844901561737, 1.0012987852096558, -1.284912347793579, 0.6005897521972656, -0.998046875, 0.2578125, -0.23828125, 0, 
8, 1031179579, 0.5290573835372925, 0.4568098783493042, -0.5335210561752319, 0.47622036933898926, 9.96313762664795, -0.33834734559059143, 0.06944505870342255, 1.3469372987747192, -0.7641751170158386, 0.7812469005584717, -1.00244140625, 0.2607421875, -0.24609375, 0, 
9, 1031187912, 0.5289104580879211, 0.456915944814682, -0.533517062664032, 0.4762863218784332, 9.959254264831543, -0.37007907032966614, 0.11121721565723419, 2.0195670127868652, -0.8559508323669434, 0.7323493361473083, -1.0009765625, 0.26025390625, -0.23876953125, 0, 
10, 1031196245, 0.5287414193153381, 0.45705366134643555, -0.5335065126419067, 0.47635385394096375, 9.9630708694458, -0.35626861453056335, 0.1554737538099289, 2.4276020526885986, -1.180637001991272, 0.6446974277496338, -1.001953125, 0.26123046875, -0.24169921875, 0, 
11, 1031204578, 0.5285459160804749, 0.4572063982486725, -0.5334955453872681, 0.4764362871646881, 9.962724685668945, -0.3703271746635437, 0.15716060996055603, 2.829771041870117, -1.365494966506958, 0.7837315797805786, -0.99951171875, 0.26123046875, -0.23974609375, 0, 
12, 1031212911, 0.5283845663070679, 0.45733439922332764, -0.5334603190422058, 0.4765318036079407, 9.971599578857422, -0.3737340569496155, 0.17508450150489807, 2.6746513843536377, -0.705544114112854, 0.71465003490448, -1, 0.2626953125, -0.2431640625, 0, 
13, 1031221244, 0.5282353162765503, 0.45743557810783386, -0.5334144234657288, 0.47665154933929443, 9.962806701660156, -0.39141932129859924, 0.14730790257453918, 2.6695539951324463, -0.1985359489917755, 0.9107268452644348, -1.00244140625, 0.2626953125, -0.24169921875, 0, 
14, 1031229577, 0.5281215310096741, 0.4575069844722748, -0.5333637595176697, 0.4767657518386841, 9.946925163269043, -0.3835567533969879, 0.11230780184268951, 2.2023377418518066, 0.24364261329174042, 0.8561302423477173, -0.9970703125, 0.2607421875, -0.2392578125, 0, 
15, 1031237910, 0.5280148983001709, 0.4575497806072235, -0.5333096981048584, 0.4769032597541809, 9.938358306884766, -0.36661311984062195, 0.09532946348190308, 2.159869432449341, 0.6670715808868408, 1.1359658241271973, -0.99951171875, 0.259765625, -0.2392578125, 0, 
16, 1031246243, 0.527900755405426, 0.457591712474823, -0.5332464575767517, 0.4770601987838745, 9.935202598571777, -0.3139089047908783, 0.0999511331319809, 2.386465311050415, 0.7942845821380615, 1.3067487478256226, -1.001953125, 0.259765625, -0.24169921875, 0, 
17, 1031254576, 0.5277831554412842, 0.4576406180858612, -0.5331926345825195, 0.4772035479545593, 9.901405334472656, -0.3227214515209198, 0.09465540945529938, 2.315232515335083, 0.5840173959732056, 1.2074679136276245, -1.00244140625, 0.259765625, -0.2431640625, 0, 
18, 1031262909, 0.5276636481285095, 0.4577065110206604, -0.5331473350524902, 0.47732311487197876, 9.915675163269043, -0.3295845091342926, 0.11129239201545715, 2.2017099857330322, 0.2307458519935608, 1.0079586505889893, -1, 0.2607421875, -0.24072265625, 0, 
19, 1031271242, 0.5275462865829468, 0.4577656686306, -0.5331152081489563, 0.477431982755661, 9.958517074584961, -0.33056625723838806, 0.12220395356416702, 1.9929410219192505, 0.1427481323480606, 1.0167826414108276, -1.001953125, 0.26025390625, -0.24072265625, 0, 
20, 1031279575, 0.5274215936660767, 0.45783573389053345, -0.5330586433410645, 0.4775657057762146, 9.989294052124023, -0.33431077003479004, 0.15990562736988068, 2.4430088996887207, 0.3384408950805664, 1.043677568435669, -0.998046875, 0.25830078125, -0.23876953125, 0, 
21, 1031287908, 0.5272721648216248, 0.45792484283447266, -0.5329911708831787, 0.47772055864334106, 9.96460247039795, -0.3123573958873749, 0.1558108627796173, 2.980792760848999, 0.25595027208328247, 1.1184840202331543, -1.001953125, 0.2607421875, -0.240234375, 0, 
22, 1031296241, 0.5271105170249939, 0.4580097198486328, -0.5329387187957764, 0.47787606716156006, 9.962188720703125, -0.3049575388431549, 0.14266528189182281, 2.915501832962036, 0.07685551792383194, 1.361742377281189, -1.00146484375, 0.26025390625, -0.23974609375, 0, 
23, 1031304574, 0.5269631147384644, 0.45809462666511536, -0.5329073071479797, 0.47799232602119446, 9.955787658691406, -0.3112141191959381, 0.11304742097854614, 2.418611526489258, -0.20504194498062134, 1.0815739631652832, -1.0009765625, 0.26025390625, -0.24365234375, 0, 
24, 1031312907, 0.5268497467041016, 0.4581644535064697, -0.532860279083252, 0.47810283303260803, 9.951197624206543, -0.32645025849342346, 0.10941357910633087, 2.1377129554748535, 0.2070910930633545, 0.8615860342979431, -1, 0.259765625, -0.23974609375, 0, 
25, 1031321240, 0.5267744064331055, 0.4582134187221527, -0.532781720161438, 0.4782264828681946, 9.94864273071289, -0.3206605613231659, 0.13173140585422516, 2.067478656768799, 0.9456007480621338, 0.6309554576873779, -1.0009765625, 0.259765625, -0.24072265625, 0, 
26, 1031329573, 0.5267170667648315, 0.4582486152648926, -0.5326820611953735, 0.4783669710159302, 9.938560485839844, -0.31571558117866516, 0.19495724141597748, 2.099560499191284, 1.4162240028381348, 0.6333248019218445, -1.00390625, 0.2626953125, -0.24072265625, 0, 
27, 1031337906, 0.5266684293746948, 0.45827534794807434, -0.532565712928772, 0.47852423787117004, 9.957245826721191, -0.34880155324935913, 0.1664976179599762, 2.2330105304718018, 1.7741061449050903, 0.6203383207321167, -0.99951171875, 0.26318359375, -0.24609375, 0, 
28, 1031346239, 0.5266381502151489, 0.4582905173301697, -0.5324210524559021, 0.4787040650844574, 9.942209243774414, -0.3548438251018524, 0.2045157253742218, 2.3682284355163574, 2.3181779384613037, 0.6043039560317993, -0.9970703125, 0.26171875, -0.24267578125, 0, 
29, 1031354572, 0.5266043543815613, 0.45831549167633057, -0.5322655439376831, 0.478890061378479, 9.98128890991211, -0.37510454654693604, 0.17136019468307495, 2.5950167179107666, 2.3580081462860107, 0.4976462125778198, -0.99853515625, 0.26025390625, -0.2412109375, 0, 
30, 1031362905, 0.5265312790870667, 0.45837050676345825, -0.532124400138855, 0.4790745973587036, 9.980734825134277, -0.30364227294921875, 0.17464102804660797, 2.936659574508667, 1.747211217880249, 0.6498460173606873, -1.00048828125, 0.25830078125, -0.2451171875, 0, 
31, 1031371238, 0.5264570116996765, 0.4584171175956726, -0.5319679379463196, 0.4792853593826294, 9.97567367553711, -0.2840164601802826, 0.12822288274765015, 3.1930575370788574, 2.083423376083374, 0.7804017066955566, -0.9990234375, 0.26123046875, -0.2412109375, 0, 
32, 1031379571, 0.5264071822166443, 0.4584187865257263, -0.5318251252174377, 0.4794968366622925, 9.951815605163574, -0.2828207314014435, 0.16834963858127594, 2.6126134395599365, 2.452216863632202, 1.0696120262145996, -1.00048828125, 0.26171875, -0.2412109375, 0, 
33, 1031387904, 0.526388943195343, 0.45836901664733887, -0.5317330956459045, 0.4796667695045471, 9.953389167785645, -0.29634904861450195, 0.19355514645576477, 1.4212186336517334, 2.4047796726226807, 1.2262686491012573, -1.00244140625, 0.26025390625, -0.2431640625, 0, 
34, 1031396237, 0.5264072418212891, 0.4582694172859192, -0.5316548347473145, 0.4798286557197571, 9.922622680664062, -0.31586915254592896, 0.1734510213136673, 0.6615004539489746, 2.836174726486206, 1.4107168912887573, -1.00146484375, 0.26123046875, -0.24169921875, 0, 
35, 1031404570, 0.5264242887496948, 0.4581700563430786, -0.5315696597099304, 0.4799988269805908, 9.862565994262695, -0.30531203746795654, 0.20144547522068024, 0.7955397963523865, 2.942729949951172, 1.4005223512649536, -1, 0.26171875, -0.2431640625, 0, 
36, 1031412903, 0.5264206528663635, 0.45810243487358093, -0.5314855575561523, 0.48016053438186646, 9.822789192199707, -0.30485692620277405, 0.2033628672361374, 1.0695863962173462, 2.5070571899414062, 1.2830810546875, -1.00146484375, 0.26123046875, -0.24169921875, 0, 
37, 1031421236, 0.526394248008728, 0.45808589458465576, -0.5313960313796997, 0.48030439019203186, 9.825105667114258, -0.3109501600265503, 0.19209182262420654, 1.5028513669967651, 1.9426733255386353, 0.8630845546722412, -0.9990234375, 0.26318359375, -0.244140625, 0, 
38, 1031429569, 0.5263398289680481, 0.4581224322319031, -0.5313116908073425, 0.4804224967956543, 9.842174530029297, -0.3307567834854126, 0.1692311316728592, 1.8257697820663452, 1.174963355064392, 0.5400121212005615, -0.9990234375, 0.26171875, -0.24853515625, 0, 
39, 1031437902, 0.5262913703918457, 0.45816612243652344, -0.5312396883964539, 0.48051363229751587, 9.843241691589355, -0.33521977066993713, 0.15210819244384766, 1.5785925388336182, 0.9228169322013855, 0.3003397285938263, -0.99951171875, 0.26025390625, -0.2451171875, 0, 
40, 1031446235, 0.5262843370437622, 0.45818468928337097, -0.531150221824646, 0.48060253262519836, 9.865130424499512, -0.34848275780677795, 0.14457374811172485, 1.2175213098526, 1.4944369792938232, 0.11362474411725998, -1.0009765625, 0.26025390625, -0.24365234375, 0, 
41, 1031454568, 0.526323676109314, 0.4581829607486725, -0.5310535430908203, 0.48066776990890503, 9.888696670532227, -0.3373028039932251, 0.2076319456100464, 0.6714386940002441, 1.8799951076507568, -0.2914387583732605, -1.0009765625, 0.259765625, -0.24365234375, 0, 
42, 1031462901, 0.5264205932617188, 0.4581454396247864, -0.5309705138206482, 0.48068922758102417, 9.886520385742188, -0.3440704345703125, 0.19373755156993866, -0.3778867721557617, 2.1520438194274902, -0.6108226776123047, -1.00048828125, 0.26171875, -0.24609375, 0, 
43, 1031471234, 0.5265344381332397, 0.4581088721752167, -0.5309074521064758, 0.4806690216064453, 9.87672233581543, -0.3405122756958008, 0.14303432404994965, -0.8962164521217346, 1.87287437915802, -0.9372504353523254, -0.994140625, 0.26123046875, -0.244140625, 0, 
44, 1031479567, 0.52663654088974, 0.4580994248390198, -0.53083336353302, 0.4806480407714844, 9.8682222366333, -0.3379744291305542, 0.10831066220998764, -0.5768582224845886, 1.6711112260818481, -1.1005412340164185, -1.0009765625, 0.26318359375, -0.24658203125, 0, 
45, 1031487900, 0.5267348885536194, 0.45809054374694824, -0.5307571291923523, 0.48063263297080994, 9.856558799743652, -0.28812530636787415, 0.09871429949998856, -0.4756307005882263, 1.7025139331817627, -1.0847883224487305, -0.99853515625, 0.263671875, -0.248046875, 0, 
46, 1031496233, 0.5268237590789795, 0.45809081196784973, -0.530690610408783, 0.4806085228919983, 9.832393646240234, -0.28433817625045776, 0.1107882559299469, -0.4958403706550598, 1.4344098567962646, -1.0582009553909302, -0.99951171875, 0.25830078125, -0.24365234375, 0, 
47, 1031504566, 0.526898980140686, 0.4580898582935333, -0.5306678414344788, 0.48055219650268555, 9.867446899414062, -0.29891014099121094, 0.16678999364376068, -0.9255703687667847, 0.8363431096076965, -0.9483669996261597, -1.00146484375, 0.259765625, -0.24560546875, 0, 
48, 1031512899, 0.5269853472709656, 0.45805877447128296, -0.5306448340415955, 0.4805123209953308, 9.86768913269043, -0.3160507380962372, 0.1807340532541275, -1.1103770732879639, 1.210951328277588, -0.6547766923904419, -0.99951171875, 0.25732421875, -0.24560546875, 0, 
49, 1031521232, 0.5270735621452332, 0.45799481868743896, -0.5306302309036255, 0.48049288988113403, 9.859114646911621, -0.330252468585968, 0.1904548555612564, -1.2466703653335571, 1.521626353263855, -0.2553482949733734, -0.99951171875, 0.2607421875, -0.24755859375, 0, 
50, 1031529565, 0.5271413922309875, 0.45792779326438904, -0.5306494235992432, 0.4804612696170807, 9.86588191986084, -0.30936750769615173, 0.250841349363327, -1.4729979038238525, 1.0584954023361206, 0.055672537535429, -1.00048828125, 0.26220703125, -0.24853515625, 0, 
51, 1031537898, 0.5272146463394165, 0.457832008600235, -0.5307087898254395, 0.4804062843322754, 9.908286094665527, -0.28837618231773376, 0.28872212767601013, -2.132052183151245, 0.8627771139144897, 0.2812058925628662, -0.99853515625, 0.26123046875, -0.24560546875, 0, 
52, 1031546231, 0.5273224711418152, 0.4577144384384155, -0.5307841897010803, 0.48031678795814514, 9.973816871643066, -0.30575257539749146, 0.2363792508840561, -2.883881092071533, 0.913057804107666, 0.09675776958465576, -0.99609375, 0.25732421875, -0.2421875, 0, 
53, 1031554564, 0.5274518132209778, 0.45757758617401123, -0.5308592915534973, 0.4802219569683075, 9.947392463684082, -0.25009098649024963, 0.27641233801841736, -3.1799051761627197, 1.1762186288833618, 0.02111893706023693, -0.99755859375, 0.25927734375, -0.2490234375, 0, 
54, 1031562897, 0.5276042222976685, 0.45742109417915344, -0.5309115648269653, 0.4801458716392517, 9.88494873046875, -0.257119357585907, 0.26764604449272156, -3.195939779281616, 1.7485686540603638, 0.0360008105635643, -0.998046875, 0.26171875, -0.2431640625, 0, 
55, 1031571230, 0.5278109312057495, 0.45724213123321533, -0.5309282541275024, 0.4800710082054138, 9.870436668395996, -0.2442712038755417, 0.2531368136405945, -3.4396846294403076, 2.570375919342041, -0.4037059545516968, -0.9970703125, 0.26025390625, -0.2431640625, 0, 
56, 1031579563, 0.5280229449272156, 0.45706477761268616, -0.5309151411056519, 0.4800211191177368, 9.802017211914062, -0.20826128125190735, 0.30299997329711914, -3.1003470420837402, 2.9595582485198975, -0.4263745844364166, -0.99951171875, 0.25830078125, -0.24658203125, 0, 
57, 1031587896, 0.5282282829284668, 0.45689839124679565, -0.5309343934059143, 0.4799322187900543, 9.793570518493652, -0.2053687572479248, 0.3728293180465698, -3.4556422233581543, 2.370072364807129, -0.5720939636230469, -0.99755859375, 0.25830078125, -0.248046875, 0, 
58, 1031596229, 0.5284255743026733, 0.45673930644989014, -0.5309826135635376, 0.47981321811676025, 9.797511100769043, -0.22682030498981476, 0.3726005256175995, -3.7841954231262207, 1.8511537313461304, -0.5782157778739929, -0.9990234375, 0.2607421875, -0.24609375, 0, 
59, 1031604562, 0.5286539196968079, 0.45653724670410156, -0.5310103893280029, 0.47972315549850464, 9.745604515075684, -0.21734367311000824, 0.3742082118988037, -3.927968740463257, 2.704645872116089, -0.42076507210731506, -0.99951171875, 0.259765625, -0.2451171875, 0, 
60, 1031612895, 0.5288859009742737, 0.4563372731208801, -0.5310208201408386, 0.4796459674835205, 9.694500923156738, -0.24222946166992188, 0.3990923762321472, -3.744724750518799, 2.913862943649292, -0.4419480264186859, -0.99853515625, 0.26318359375, -0.24609375, 0, 
61, 1031621228, 0.5290484428405762, 0.45618772506713867, -0.5310821533203125, 0.4795413315296173, 9.720561981201172, -0.2564399838447571, 0.38450098037719727, -3.46053409576416, 1.5409138202667236, -0.2622129023075104, -0.9931640625, 0.25830078125, -0.248046875, 0, 
62, 1031629561, 0.5291296243667603, 0.45611029863357544, -0.5311662554740906, 0.47943222522735596, 9.735251426696777, -0.26779094338417053, 0.3896973431110382, -2.6262528896331787, 0.26576048135757446, -0.1128050833940506, -0.9970703125, 0.259765625, -0.24560546875, 0, 
63, 1031637894, 0.5291510224342346, 0.4560747444629669, -0.531251072883606, 0.479348361492157, 9.74914264678955, -0.2573385536670685, 0.4192054271697998, -1.7494266033172607, -0.2828836143016815, 0.13441069424152374, -0.998046875, 0.25927734375, -0.24609375, 0, 
64, 1031646227, 0.5291475057601929, 0.45605626702308655, -0.5313612818717957, 0.47924765944480896, 9.732133865356445, -0.195125013589859, 0.41923636198043823, -1.7763471603393555, -0.8779534697532654, 0.24014624953269958, -1, 0.263671875, -0.24658203125, 0, 
65, 1031654560, 0.5290915966033936, 0.456103652715683, -0.5315113663673401, 0.47909805178642273, 9.738921165466309, -0.19077861309051514, 0.43497663736343384, -1.5684622526168823, -2.2818186283111572, -0.032709378749132156, -0.9970703125, 0.2607421875, -0.2470703125, 0, 
66, 1031662893, 0.5290115475654602, 0.4561900496482849, -0.5316506624221802, 0.47894954681396484, 9.678409576416016, -0.17291219532489777, 0.34426140785217285, -1.075157642364502, -2.6402900218963623, -0.18672777712345123, -0.99609375, 0.26123046875, -0.24560546875, 0, 
67, 1031671226, 0.5289373397827148, 0.45629531145095825, -0.5317367315292358, 0.47883546352386475, 9.614643096923828, -0.12873461842536926, 0.36059245467185974, -0.3538093864917755, -2.1087942123413086, -0.47785913944244385, -1, 0.26318359375, -0.2431640625, 0, 
68, 1031679559, 0.5288819670677185, 0.45641976594924927, -0.5317557454109192, 0.47875693440437317, 9.610732078552246, -0.11989881843328476, 0.38442733883857727, 0.3510814905166626, -1.394925594329834, -0.8738552331924438, -0.99951171875, 0.25927734375, -0.24658203125, 0, 
69, 1031687892, 0.5288127064704895, 0.45654571056365967, -0.5317745804786682, 0.4786927103996277, 9.665010452270508, -0.13663142919540405, 0.405852347612381, 0.5736949443817139, -1.4090392589569092, -0.7190940976142883, -0.99755859375, 0.26171875, -0.2451171875, 0, 
70, 1031696225, 0.5286405682563782, 0.4567062556743622, -0.5318193435668945, 0.4786798655986786, 9.757246017456055, -0.06994646042585373, 0.34541457891464233, 1.6581248044967651, -2.261173963546753, 0.2698843777179718, -1.001953125, 0.26025390625, -0.24658203125, 0, 
71, 1031704558, 0.5283617973327637, 0.45681652426719666, -0.5319131016731262, 0.47877800464630127, 9.84024715423584, 0.0009446343756280839, 0.3950827717781067, 2.469609498977661, -2.3627853393554688, 2.425245523452759, -0.998046875, 0.26318359375, -0.24658203125, 0, 
72, 1031712891, 0.5280287265777588, 0.4568089246749878, -0.532069981098175, 0.47897833585739136, 10.0209379196167, 0.13863994181156158, 0.4687497913837433, 2.26725697517395, -1.807827115058899, 4.813926696777344, -0.99853515625, 0.26513671875, -0.24365234375, 0, 
73, 1031721224, 0.527677059173584, 0.456662118434906, -0.5323031544685364, 0.47924697399139404, 10.260159492492676, 0.23883700370788574, 0.5929449796676636, 1.3891751766204834, -1.1455198526382446, 6.900206565856934, -0.9970703125, 0.2626953125, -0.24560546875, 0, 
74, 1031729557, 0.5272417664527893, 0.45642247796058655, -0.5326207280158997, 0.4796013832092285, 10.534646987915039, 0.26490485668182373, 0.7071145176887512, 1.2952097654342651, -1.224834680557251, 9.311647415161133, -0.998046875, 0.263671875, -0.2431640625, 0, 
75, 1031737890, 0.5267605185508728, 0.45608213543891907, -0.5329670906066895, 0.4800688624382019, 10.739083290100098, 0.3228275179862976, 0.7908144593238831, 1.50634765625, -0.3929608464241028, 11.326641082763672, -1.00146484375, 0.2685546875, -0.244140625, 0, 
76, 1031746223, 0.526350736618042, 0.45558953285217285, -0.5333167910575867, 0.4805973768234253, 10.78812026977539, 0.34210455417633057, 0.7912347912788391, 0.36437538266181946, 1.4893271923065186, 12.461186408996582, -0.9951171875, 0.26611328125, -0.2451171875, 0, 
77, 1031754556, 0.5261310338973999, 0.45483532547950745, -0.5336145162582397, 0.48122143745422363, 10.789977073669434, 0.3416750133037567, 0.785963237285614, -1.6605966091156006, 5.593368053436279, 13.461907386779785, -0.9970703125, 0.2666015625, -0.244140625, 0, 
78, 1031762889, 0.5261498093605042, 0.45382851362228394, -0.5338249802589417, 0.4819173216819763, 10.587339401245117, 0.2530144155025482, 0.9255676865577698, -3.890136480331421, 10.090485572814941, 13.738080024719238, -0.99755859375, 0.271484375, -0.24462890625, 0, 
79, 1031771222, 0.5262102484703064, 0.45278483629226685, -0.5340536236763, 0.4825797379016876, 10.571991920471191, 0.3792153000831604, 0.9819526076316833, -4.767617225646973, 10.30373764038086, 13.579570770263672, -0.9931640625, 0.271484375, -0.2490234375, 0, 
80, 1031779555, 0.5264773964881897, 0.45142823457717896, -0.5342411994934082, 0.48335105180740356, 10.435457229614258, 0.45636919140815735, 0.963985025882721, -7.263430595397949, 14.869388580322266, 15.063492774963379, -0.99560546875, 0.27490234375, -0.2490234375, 0, 
81, 1031787888, 0.5268707871437073, 0.4498693645000458, -0.534509003162384, 0.4840790033340454, 10.343963623046875, 0.4475262463092804, 1.114189863204956, -10.346695899963379, 16.292648315429688, 15.869884490966797, -0.99658203125, 0.2763671875, -0.25, 0, 
82, 1031796221, 0.5273928642272949, 0.4481300413608551, -0.5348348021507263, 0.4847634434700012, 10.325139045715332, 0.3926657438278198, 1.2071969509124756, -13.171295166015625, 17.749292373657227, 16.40756607055664, -0.99560546875, 0.28125, -0.25146484375, 0, 
83, 1031804554, 0.5280475616455078, 0.4462094306945801, -0.5352081656455994, 0.4854099154472351, 10.212810516357422, 0.3539600074291229, 1.4244816303253174, -15.885782241821289, 19.355451583862305, 16.85291290283203, -0.98876953125, 0.2841796875, -0.25439453125, 0, 
84, 1031812887, 0.5288024544715881, 0.44421979784965515, -0.5356370806694031, 0.48593947291374207, 9.789267539978027, 0.24286025762557983, 1.629157304763794, -18.247417449951172, 19.432140350341797, 16.20574188232422, -0.9912109375, 0.2841796875, -0.25634765625, 0, 
85, 1031821220, 0.5295588374137878, 0.44235342741012573, -0.5363022089004517, 0.48608478903770447, 9.294159889221191, 0.2032323181629181, 1.6216470003128052, -21.754854202270508, 14.551472663879395, 13.916826248168945, -0.98876953125, 0.29150390625, -0.25830078125, 0, 
86, 1031829553, 0.5304777026176453, 0.4405250549316406, -0.5371283888816833, 0.4858311116695404, 8.923933029174805, 0.034108009189367294, 1.1429566144943237, -26.4996395111084, 11.898756980895996, 10.64381217956543, -0.9892578125, 0.29248046875, -0.2578125, 0, 
87, 1031837886, 0.5316574573516846, 0.43864864110946655, -0.5379834771156311, 0.4852926433086395, 8.653839111328125, -0.6154919266700745, 0.8391954898834229, -30.71559715270996, 12.204721450805664, 7.337090015411377, -0.98388671875, 0.29443359375, -0.25732421875, 0, 
88, 1031846219, 0.5328363180160522, 0.43703216314315796, -0.5388555526733398, 0.48448997735977173, 8.513683319091797, -1.016127586364746, 0.6120302677154541, -30.888643264770508, 8.75004768371582, 3.6070127487182617, -0.98291015625, 0.29736328125, -0.25732421875, 0, 
89, 1031854552, 0.5338476896286011, 0.43584340810775757, -0.5394389033317566, 0.4837978780269623, 8.690898895263672, -1.7507680654525757, 0.6751797199249268, -23.993839263916016, 7.436392307281494, 0.6109894514083862, -0.98486328125, 0.29638671875, -0.25830078125, 0, 
90, 1031862885, 0.534226655960083, 0.43535640835762024, -0.5401682257652283, 0.4830036461353302, 9.24576473236084, -2.085460662841797, 0.8741341233253479, -16.791725158691406, -3.603642463684082, -0.24517954885959625, -0.986328125, 0.30029296875, -0.25634765625, 0, 
91, 1031871218, 0.5339380502700806, 0.43549275398254395, -0.5408716201782227, 0.4824123978614807, 9.813761711120605, -2.2586567401885986, 0.5606665015220642, -6.525790691375732, -11.303075790405273, 0.8767114281654358, -0.984375, 0.30322265625, -0.2587890625, 0, 
92, 1031879551, 0.5331803560256958, 0.43591275811195374, -0.5414137840270996, 0.48226290941238403, 10.340679168701172, -2.258023977279663, 0.33344361186027527, 2.7123045921325684, -12.839163780212402, 4.174878120422363, -0.98681640625, 0.30126953125, -0.25537109375, 0, 
93, 1031887884, 0.5321213603019714, 0.43636956810951233, -0.5419943332672119, 0.4823671877384186, 10.726103782653809, -2.384031057357788, 0.42100176215171814, 6.433439254760742, -14.092085838317871, 7.967885971069336, -0.986328125, 0.30029296875, -0.2509765625, 0, 
94, 1031896217, 0.5306957364082336, 0.4371183514595032, -0.5426955819129944, 0.4824713170528412, 10.470860481262207, -2.211634397506714, 0.0744192898273468, 9.95576000213623, -19.639572143554688, 8.969073295593262, -0.9873046875, 0.302734375, -0.251953125, 0, 
95, 1031904550, 0.5291419625282288, 0.4380788803100586, -0.5433028340339661, 0.48262330889701843, 10.016860008239746, -2.1134328842163086, -0.36942505836486816, 13.26911449432373, -21.03329086303711, 7.997368812561035, -0.9912109375, 0.30224609375, -0.2490234375, 0, 
96, 1031912883, 0.5272926688194275, 0.4396945536136627, -0.5434198975563049, 0.48304617404937744, 10.249897003173828, -1.875337839126587, -0.27143433690071106, 25.077836990356445, -22.38530158996582, 4.107644081115723, -0.98828125, 0.30419921875, -0.24462890625, 0, 
97, 1031921216, 0.5258702635765076, 0.4409385621547699, -0.5439870953559875, 0.482824444770813, 9.972760200500488, -2.820382595062256, 0.994347870349884, 12.01048469543457, -23.892000198364258, 2.068056344985962, -0.990234375, 0.29833984375, -0.24560546875, 0, 
98, 1031929549, 0.5239822268486023, 0.4422902464866638, -0.5454620122909546, 0.48197612166404724, 9.909964561462402, -0.634328305721283, -0.6324408054351807, 4.8817596435546875, -38.44899368286133, 5.356494426727295, -0.994140625, 0.30322265625, -0.2412109375, 0, 
99, 1031937882, 0.521234929561615, 0.4440682828426361, -0.5461320877075195, 0.4825609624385834, 10.060773849487305, -1.1681355237960815, -0.4279301166534424, 29.282955169677734, -33.209228515625, 13.251461029052734, -0.9931640625, 0.30224609375, -0.2373046875, 0, 
100, 1031946215, 0.5186209082603455, 0.4454037547111511, -0.5469489693641663, 0.48322102427482605, 10.091984748840332, -0.9866212606430054, -0.5450332760810852, 24.870088577270508, -29.85942840576172, 17.159860610961914, -0.9931640625, 0.30126953125, -0.23291015625, 0, 
101, 1031954548, 0.5166261196136475, 0.44594520330429077, -0.5475651621818542, 0.484159380197525, 10.205032348632812, -0.5178694725036621, -0.790027916431427, 18.860620498657227, -16.794921875, 19.73988151550293, -0.99462890625, 0.3056640625, -0.22900390625, 0, 
102, 1031962881, 0.5150492787361145, 0.44595009088516235, -0.548159658908844, 0.48516127467155457, 9.990791320800781, -0.182634174823761, -0.4558437168598175, 13.08857536315918, -9.526209831237793, 21.348377227783203, -0.9931640625, 0.30712890625, -0.2265625, 0, 
103, 1031971214, 0.5134517550468445, 0.44564592838287354, -0.549126923084259, 0.486039400100708, 9.937308311462402, -0.08693119138479233, -0.507838249206543, 7.627016067504883, -11.022710800170898, 25.19222068786621, -0.99609375, 0.30712890625, -0.23046875, 0, 
104, 1031979547, 0.5120410323143005, 0.4453273415565491, -0.5498833656311035, 0.48696368932724, 10.03196907043457, 0.04715005308389664, -0.496981143951416, 8.117474555969238, -7.7413434982299805, 23.11989402770996, -0.99560546875, 0.31689453125, -0.22705078125, 0, 
105, 1031987880, 0.510757327079773, 0.4449026882648468, -0.5506480932235718, 0.48783501982688904, 10.013628959655762, -0.021504562348127365, -0.28844180703163147, 6.155910491943359, -6.455661773681641, 22.716930389404297, -0.99365234375, 0.31396484375, -0.2255859375, 0, 
106, 1031996213, 0.5095053315162659, 0.4445636570453644, -0.5515565276145935, 0.4884265959262848, 10.129241943359375, -0.13438820838928223, -0.24884916841983795, 3.4617786407470703, -9.506932258605957, 20.80154800415039, -0.9921875, 0.31689453125, -0.22412109375, 0, 
107, 1032004546, 0.5082753300666809, 0.44424405694007874, -0.5525574684143066, 0.4888673424720764, 10.219499588012695, -0.04953111708164215, -0.41237112879753113, 1.7178065776824951, -11.044708251953125, 19.985244750976562, -0.98779296875, 0.31982421875, -0.2265625, 0, 
108, 1032012879, 0.5074633955955505, 0.4435923397541046, -0.5534139275550842, 0.4893336594104767, 10.153751373291016, -0.40252047777175903, -0.4476146996021271, -2.009770154953003, -4.464357376098633, 19.02614402770996, -0.99072265625, 0.3232421875, -0.22314453125, 0, 
109, 1032021212, 0.5074796676635742, 0.44222861528396606, -0.5539712905883789, 0.48992013931274414, 10.069343566894531, -0.40821829438209534, -0.4377152919769287, -9.089367866516113, 9.44549560546875, 17.855266571044922, -0.9931640625, 0.328125, -0.224609375, 0, 
110, 1032029545, 0.5079331994056702, 0.4407685399055481, -0.5543342232704163, 0.49035537242889404, 9.79757022857666, -1.0523293018341064, 0.12031879276037216, -12.277369499206543, 13.863618850708008, 13.434708595275879, -0.990234375, 0.3310546875, -0.22412109375, 0, 
111, 1032037878, 0.5084204077720642, 0.4393674433231354, -0.5548423528671265, 0.49053269624710083, 9.651763916015625, -1.1675323247909546, 0.24506032466888428, -15.002237319946289, 11.147255897521973, 11.809664726257324, -0.990234375, 0.33203125, -0.22802734375, 0, 
112, 1032046211, 0.5087435841560364, 0.4382941722869873, -0.555444598197937, 0.49047642946243286, 9.650196075439453, -1.1052870750427246, 0.1991172432899475, -14.148948669433594, 5.614577770233154, 9.378693580627441, -0.98779296875, 0.333984375, -0.224609375, 0, 
113, 1032054544, 0.5088391304016113, 0.4375224709510803, -0.5561369061470032, 0.49028176069259644, 9.636246681213379, -1.1075903177261353, 0.25333231687545776, -12.317426681518555, 0.3760298192501068, 8.154818534851074, -0.9892578125, 0.333984375, -0.22314453125, 0, 
114, 1032062877, 0.5086547136306763, 0.4370899796485901, -0.5568870902061462, 0.49000728130340576, 9.813897132873535, -1.2173264026641846, 0.1412203013896942, -9.275351524353027, -4.9366068840026855, 7.268232345581055, -0.984375, 0.33349609375, -0.22509765625, 0, 
115, 1032071210, 0.5085567831993103, 0.43656599521636963, -0.5576449632644653, 0.48971402645111084, 9.986480712890625, -1.1178066730499268, 0.09484749287366867, -10.616140365600586, -3.824730634689331, 7.27290678024292, -0.9873046875, 0.3388671875, -0.2216796875, 0, 
116, 1032079543, 0.5087032914161682, 0.4359744191169739, -0.558319091796875, 0.48932045698165894, 9.75458812713623, -1.428184151649475, 0.3220820724964142, -12.776921272277832, -1.5106511116027832, 4.966716289520264, -0.98681640625, 0.33935546875, -0.224609375, 0, 
117, 1032087876, 0.5089675784111023, 0.43542253971099854, -0.5590801239013672, 0.48866766691207886, 9.781231880187988, -1.4852187633514404, 0.16580164432525635, -15.76371955871582, -3.03723406791687, 2.5506532192230225, -0.9873046875, 0.34033203125, -0.21728515625, 0, 
118, 1032096209, 0.5092269778251648, 0.43490514159202576, -0.5598036050796509, 0.4880296289920807, 9.646512031555176, -1.5188285112380981, 0.014757057651877403, -15.142395973205566, -2.952502489089966, 2.2237389087677, -0.986328125, 0.34228515625, -0.22216796875, 0, 
119, 1032104542, 0.5094387531280518, 0.43450868129730225, -0.560386598110199, 0.48749223351478577, 9.518433570861816, -1.3722018003463745, -0.06486722826957703, -12.27768611907959, -2.547656297683716, 1.4485877752304077, -0.98828125, 0.341796875, -0.2197265625, 0, 
120, 1032112875, 0.5095291137695312, 0.43413046002388, -0.5610833764076233, 0.48693281412124634, 9.44151496887207, -1.3791285753250122, -0.1285424679517746, -12.374404907226562, -4.533041477203369, 2.676764726638794, -0.98779296875, 0.34375, -0.21728515625, 0, 
121, 1032121208, 0.5094307065010071, 0.43375349044799805, -0.5618143081665039, 0.48652884364128113, 9.530517578125, -1.2540342807769775, -0.3132535517215729, -10.249601364135742, -5.309281349182129, 5.191493511199951, -0.9873046875, 0.3466796875, -0.216796875, 0, 
122, 1032129541, 0.5094212293624878, 0.4332124590873718, -0.5624697804450989, 0.4862634539604187, 9.500768661499023, -1.3601603507995605, -0.34891974925994873, -10.370001792907715, -2.1677584648132324, 6.4185051918029785, -0.990234375, 0.34619140625, -0.21630859375, 0, 
123, 1032137874, 0.5095776319503784, 0.4324403405189514, -0.5629665851593018, 0.4862123429775238, 9.490778923034668, -1.3970013856887817, -0.2698926031589508, -10.243005752563477, 3.0449821949005127, 7.619250297546387, -0.9873046875, 0.34814453125, -0.21533203125, 0, 
124, 1032146207, 0.509660542011261, 0.43161213397979736, -0.5634369850158691, 0.48631638288497925, 9.497611999511719, -1.3811140060424805, -0.2850315272808075, -8.838167190551758, 3.960665464401245, 9.506891250610352, -0.9853515625, 0.35205078125, -0.21533203125, 0, 
125, 1032154540, 0.5095405578613281, 0.4308956563472748, -0.563877522945404, 0.4865668714046478, 9.578033447265625, -1.4815583229064941, -0.23551194369792938, -5.499273777008057, 2.719245672225952, 10.81511116027832, -0.98828125, 0.35009765625, -0.216796875, 0, 
126, 1032162873, 0.5091133117675781, 0.4303549826145172, -0.5644035339355469, 0.48688262701034546, 9.676185607910156, -1.46574068069458, -0.10987779498100281, -2.529611349105835, -1.0495691299438477, 12.504910469055176, -0.9833984375, 0.3544921875, -0.2177734375, 0, 
127, 1032171206, 0.5084069967269897, 0.42994141578674316, -0.5650827288627625, 0.4871978163719177, 9.862388610839844, -1.4018735885620117, -0.15435709059238434, -0.999006450176239, -5.143851280212402, 14.256155014038086, -0.98583984375, 0.3564453125, -0.2138671875, 0, 
128, 1032179539, 0.5075441002845764, 0.42966222763061523, -0.5657559037208557, 0.4875623881816864, 10.015503883361816, -1.3902827501296997, -0.01798103377223015, 1.2710169553756714, -6.925936222076416, 14.602049827575684, -0.98681640625, 0.357421875, -0.21728515625, 0, 
129, 1032187872, 0.5066383481025696, 0.42944443225860596, -0.566555380821228, 0.4877680540084839, 10.004507064819336, -1.4705027341842651, 0.04424680396914482, -0.11172930151224136, -9.492944717407227, 14.016558647155762, -0.98388671875, 0.35888671875, -0.21435546875, 0, 
130, 1032196205, 0.5057602524757385, 0.4293631315231323, -0.567352831363678, 0.487824022769928, 9.92432975769043, -1.5256491899490356, 0.1105685755610466, -0.4963527321815491, -11.061866760253906, 11.746856689453125, -0.98486328125, 0.36328125, -0.21240234375, 0, 
131, 1032204538, 0.5049864053726196, 0.4293549358844757, -0.5681541562080383, 0.48770007491111755, 9.939002990722656, -1.5343225002288818, 0.05610458925366402, -2.0136890411376953, -11.829065322875977, 9.214581489562988, -0.9873046875, 0.36279296875, -0.21044921875, 0, 
132, 1032212871, 0.504451334476471, 0.42932450771331787, -0.5687702298164368, 0.48756250739097595, 9.828205108642578, -1.3859716653823853, 0.007125907577574253, -2.4604268074035645, -8.608150482177734, 6.630846977233887, -0.986328125, 0.3642578125, -0.208984375, 0, 
133, 1032221204, 0.5041109323501587, 0.4291076362133026, -0.5693352222442627, 0.48744601011276245, 9.743410110473633, -1.2374829053878784, 0.06612095981836319, -4.378574371337891, -5.35819149017334, 6.594910621643066, -0.9873046875, 0.36572265625, -0.20556640625, 0, 
134, 1032229537, 0.5039083957672119, 0.42874401807785034, -0.5699161887168884, 0.4872966408729553, 9.652121543884277, -0.9712514877319336, -0.07077416032552719, -6.589107990264893, -3.5975704193115234, 6.7209062576293945, -0.98486328125, 0.36865234375, -0.21142578125, 0, 
135, 1032237870, 0.5039259791374207, 0.42819273471832275, -0.5702519416809082, 0.487370103597641, 9.786703109741211, -0.5872743129730225, -0.05292026326060295, -5.782887935638428, 2.3952901363372803, 6.780139923095703, -0.98388671875, 0.36572265625, -0.20654296875, 0, 
136, 1032246203, 0.5040232539176941, 0.4275587499141693, -0.5705264210700989, 0.4875049889087677, 9.613975524902344, -0.35347920656204224, 0.0020154346711933613, -5.9495720863342285, 4.362578392028809, 6.99490213394165, -0.98291015625, 0.369140625, -0.20458984375, 0, 
137, 1032254536, 0.5040237903594971, 0.4270778298377991, -0.5708717703819275, 0.48752179741859436, 9.542304039001465, -0.4423976540565491, -0.1667342185974121, -5.7024712562561035, 1.3914291858673096, 6.005270004272461, -0.984375, 0.3681640625, -0.20556640625, 0, 
138, 1032262869, 0.5040308833122253, 0.42669427394866943, -0.5712094902992249, 0.48745471239089966, 9.6288423538208, -0.7086545825004578, -0.1923234462738037, -5.692661762237549, 0.3522854149341583, 4.606144428253174, -0.98486328125, 0.37109375, -0.2080078125, 0, 
139, 1032271202, 0.5040766000747681, 0.4263257086277008, -0.5716175436973572, 0.4872516989707947, 9.809489250183105, -0.8732908368110657, -0.15534348785877228, -7.338555335998535, -0.733104944229126, 3.6666133403778076, -0.982421875, 0.37060546875, -0.2080078125, 0, 
140, 1032279535, 0.5042382478713989, 0.42586550116539, -0.571967601776123, 0.4870760142803192, 9.95590591430664, -1.1990519762039185, -0.11827953904867172, -8.066383361816406, 1.356363296508789, 3.492718458175659, -0.9814453125, 0.37255859375, -0.205078125, 0, 
141, 1032287868, 0.5046135187149048, 0.4252333641052246, -0.572211742401123, 0.4869530498981476, 9.988146781921387, -1.422551155090332, 0.07280737906694412, -9.36765193939209, 5.228736400604248, 3.129009485244751, -0.98291015625, 0.3701171875, -0.2080078125, 0, 
142, 1032296201, 0.5050116181373596, 0.42466238141059875, -0.5723891258239746, 0.4868302643299103, 10.015053749084473, -1.6282821893692017, 0.22222112119197845, -8.646201133728027, 5.4666924476623535, 2.1366629600524902, -0.98095703125, 0.37451171875, -0.20751953125, 0, 
143, 1032304534, 0.5052366852760315, 0.42433974146842957, -0.5724797248840332, 0.4867710471153259, 10.099214553833008, -1.7179675102233887, 0.11536763608455658, -4.812351703643799, 3.414339542388916, 1.2408944368362427, -0.98193359375, 0.37255859375, -0.2109375, 0, 
144, 1032312867, 0.5053284168243408, 0.42413201928138733, -0.5725097060203552, 0.4868216812610626, 10.180346488952637, -1.6957827806472778, -0.019656497985124588, -1.9814786911010742, 2.659423351287842, 1.6727375984191895, -0.982421875, 0.37646484375, -0.2041015625, 0, 
145, 1032321200, 0.5053295493125916, 0.4239393472671509, -0.5725298523902893, 0.4869645833969116, 10.283905982971191, -1.5814696550369263, -0.13543665409088135, -0.5403322577476501, 2.4486823081970215, 2.7119197845458984, -0.98193359375, 0.3740234375, -0.2080078125, 0, 
146, 1032329533, 0.505328357219696, 0.4237042963504791, -0.5724736452102661, 0.4872363209724426, 10.222482681274414, -1.5169336795806885, -0.23954154551029205, 0.6869865655899048, 3.9986767768859863, 3.541898012161255, -0.986328125, 0.37451171875, -0.2080078125, 0, 
147, 1032337866, 0.5054166913032532, 0.42337164282798767, -0.5723325610160828, 0.4875996708869934, 10.156841278076172, -1.3744696378707886, -0.15146872401237488, 0.7949250936508179, 6.477366924285889, 3.8220415115356445, -0.98583984375, 0.373046875, -0.21044921875, 0, 
148, 1032346199, 0.5054400563240051, 0.42310547828674316, -0.5721766352653503, 0.48798924684524536, 10.094415664672852, -1.2446646690368652, -0.024812918156385422, 1.9243847131729126, 5.781607151031494, 3.8609750270843506, -0.98095703125, 0.37646484375, -0.2119140625, 0, 
149, 1032354532, 0.5052230954170227, 0.4230281412601471, -0.5720841884613037, 0.4883892834186554, 10.09585952758789, -1.125334620475769, 0.053281258791685104, 4.308429718017578, 2.237313747406006, 4.398873805999756, -0.97900390625, 0.376953125, -0.2099609375, 0, 
150, 1032362865, 0.5048677921295166, 0.4230062961578369, -0.5720268487930298, 0.48884260654449463, 10.1246337890625, -1.0682681798934937, 0.0508066862821579, 5.664806365966797, 0.8457694053649902, 5.4972124099731445, -0.984375, 0.37646484375, -0.2099609375, 0, 
151, 1032371198, 0.5045408010482788, 0.4229692816734314, -0.5718531012535095, 0.48941540718078613, 9.988100051879883, -1.1338812112808228, -0.020223315805196762, 7.132885932922363, 2.6703226566314697, 5.547211647033691, -0.97705078125, 0.3759765625, -0.212890625, 0, 
152, 1032379531, 0.5043572187423706, 0.4229275584220886, -0.5715112686157227, 0.49003952741622925, 9.734825134277344, -1.1314647197723389, -0.14609295129776, 7.7848711013793945, 5.299188613891602, 4.02846622467041, -0.97900390625, 0.37890625, -0.20947265625, 0, 
153, 1032387864, 0.5040544867515564, 0.42310795187950134, -0.5710770487785339, 0.49070078134536743, 9.777676582336426, -1.0552899837493896, -0.534574031829834, 10.950215339660645, 3.7189314365386963, 2.7753794193267822, -0.97900390625, 0.3759765625, -0.21142578125, 0, 
154, 1032396197, 0.5037679672241211, 0.4233117401599884, -0.5704393982887268, 0.491560161113739, 9.898061752319336, -1.1095315217971802, -0.7552945017814636, 13.928498268127441, 6.2532429695129395, 2.703416347503662, -0.9755859375, 0.3759765625, -0.21240234375, 0, 
155, 1032404530, 0.5039702653884888, 0.42317062616348267, -0.5694890022277832, 0.49257543683052063, 9.705484390258789, -1.3501036167144775, -0.6054020524024963, 12.050719261169434, 15.491427421569824, 1.332183837890625, -0.97802734375, 0.37451171875, -0.2158203125, 0, 
156, 1032412863, 0.5045860409736633, 0.42291390895843506, -0.5682978630065918, 0.4935402274131775, 9.500001907348633, -1.5973485708236694, -0.35526812076568604, 10.059407234191895, 20.889392852783203, -2.281794309616089, -0.978515625, 0.37451171875, -0.22021484375, 0, 
157, 1032421196, 0.5050411224365234, 0.4230187237262726, -0.5671085715293884, 0.4943520724773407, 9.529545783996582, -1.825430154800415, -0.31928980350494385, 12.31125545501709, 16.27485466003418, -5.096529960632324, -0.9775390625, 0.3720703125, -0.22509765625, 0, 
158, 1032429529, 0.505094051361084, 0.423607736825943, -0.5659582614898682, 0.49511128664016724, 9.553256034851074, -2.0075833797454834, -0.438358873128891, 17.322425842285156, 9.274508476257324, -6.248966217041016, -0.97705078125, 0.3720703125, -0.2265625, 0, 
159, 1032437862, 0.5048040747642517, 0.42460471391677856, -0.5648412108421326, 0.4958280920982361, 9.429805755615234, -1.8511488437652588, -0.581325113773346, 21.613571166992188, 3.3458995819091797, -7.221092700958252, -0.9755859375, 0.3671875, -0.22509765625, 0, 
160, 1032446195, 0.5043033361434937, 0.42591744661331177, -0.5637385249137878, 0.49646633863449097, 9.224066734313965, -1.5984132289886475, -0.7962106466293335, 24.311084747314453, -0.9992886781692505, -8.666325569152832, -0.9775390625, 0.3681640625, -0.228515625, 0, 
161, 1032454528, 0.5034270882606506, 0.4276142716407776, -0.562764585018158, 0.49700161814689636, 9.229087829589844, -1.4327183961868286, -1.276690125465393, 27.514841079711914, -8.029274940490723, -9.073156356811523, -0.974609375, 0.36572265625, -0.22705078125, 0, 
162, 1032462861, 0.5021747350692749, 0.4296454191207886, -0.5618528127670288, 0.49754804372787476, 9.485222816467285, -1.36307954788208, -1.6352375745773315, 31.684804916381836, -13.588749885559082, -8.614973068237305, -0.97998046875, 0.36083984375, -0.22998046875, 0, 
163, 1032471194, 0.5012370944023132, 0.43143391609191895, -0.5607771873474121, 0.49815911054611206, 9.419806480407715, -1.511152744293213, -1.4997663497924805, 29.7876033782959, -7.985295295715332, -9.447358131408691, -0.97802734375, 0.35791015625, -0.22802734375, 0, 
164, 1032479527, 0.5006810426712036, 0.43300724029541016, -0.5596412420272827, 0.49863046407699585, 9.306258201599121, -1.542227864265442, -1.3948123455047607, 25.357662200927734, -3.980454683303833, -11.690574645996094, -0.97900390625, 0.3564453125, -0.2294921875, 0, 
165, 1032487860, 0.4998016357421875, 0.4348923861980438, -0.5587160587310791, 0.49890971183776855, 9.584461212158203, -1.455075740814209, -1.482794165611267, 26.527671813964844, -11.196784973144531, -11.974510192871094, -0.98046875, 0.35498046875, -0.22998046875, 0, 
166, 1032496193, 0.498863160610199, 0.43681252002716064, -0.5578232407569885, 0.49917072057724, 9.586535453796387, -1.5833030939102173, -1.4691439867019653, 26.73922348022461, -12.2266845703125, -11.735325813293457, -0.98046875, 0.34912109375, -0.22802734375, 0, 
167, 1032504526, 0.49833738803863525, 0.4384421706199646, -0.5569324493408203, 0.4992617964744568, 9.28219985961914, -1.6919190883636475, -1.2337002754211426, 20.967939376831055, -8.096818923950195, -13.527986526489258, -0.9853515625, 0.34912109375, -0.22900390625, 0, 
168, 1032512859, 0.4980584383010864, 0.4401457905769348, -0.5560783743858337, 0.498992919921875, 9.234248161315918, -1.6721220016479492, -1.2713031768798828, 16.959463119506836, -9.14188003540039, -18.001440048217773, -0.9833984375, 0.34326171875, -0.22802734375, 0, 
169, 1032521192, 0.49753904342651367, 0.4422547221183777, -0.5553233623504639, 0.49848684668540955, 9.46156120300293, -1.5387517213821411, -1.5559769868850708, 18.716379165649414, -15.867265701293945, -20.509464263916016, -0.986328125, 0.34326171875, -0.2255859375, 0, 
170, 1032529525, 0.49696019291877747, 0.4445059597492218, -0.5544797778129578, 0.4980006814002991, 9.37819766998291, -1.5523971319198608, -1.8465360403060913, 20.791954040527344, -16.577524185180664, -21.556447982788086, -0.98779296875, 0.33447265625, -0.22509765625, 0, 
171, 1032537858, 0.49661529064178467, 0.44669246673583984, -0.5532791614532471, 0.4977235198020935, 9.377203941345215, -1.4350988864898682, -2.163858652114868, 22.977825164794922, -10.62110710144043, -23.455286026000977, -0.99072265625, 0.3330078125, -0.22900390625, 0, 
172, 1032546191, 0.49651676416397095, 0.44849497079849243, -0.5516873002052307, 0.49796777963638306, 9.860922813415527, -1.2809206247329712, -2.0373175144195557, 25.467018127441406, -0.2555790841579437, -21.025415420532227, -0.98974609375, 0.32958984375, -0.22509765625, 0, 
173, 1032554524, 0.49708595871925354, 0.4495497941970825, -0.5494773387908936, 0.4988914132118225, 10.157828330993652, -1.1969016790390015, -1.4858355522155762, 25.652509689331055, 18.355440139770508, -19.138097763061523, -0.9912109375, 0.32421875, -0.22802734375, 0, 
174, 1032562857, 0.49788981676101685, 0.4501071274280548, -0.5470541715621948, 0.5002486705780029, 9.891389846801758, -1.1165437698364258, -0.4910215139389038, 25.518089294433594, 27.664127349853516, -15.304847717285156, -0.98828125, 0.318359375, -0.2314453125, 0, 
175, 1032571190, 0.49846333265304565, 0.45056837797164917, -0.5451508164405823, 0.5013387799263, 9.97856616973877, -0.8292873501777649, 0.007624056190252304, 20.722692489624023, 21.399188995361328, -11.646958351135254, -0.990234375, 0.31640625, -0.234375, 0, 
176, 1032579523, 0.49865537881851196, 0.45124146342277527, -0.5433306097984314, 0.50251704454422, 10.596184730529785, -0.37362146377563477, 0.37542253732681274, 24.604097366333008, 17.0364933013916, -9.44845962524414, -0.98779296875, 0.314453125, -0.236328125, 0, 
177, 1032587856, 0.49866077303886414, 0.45193541049957275, -0.5417520999908447, 0.5035912394523621, 10.438292503356934, -0.34893500804901123, 0.682097315788269, 23.477834701538086, 13.21279239654541, -7.564939975738525, -0.9853515625, 0.31396484375, -0.23876953125, 0, 
178, 1032596189, 0.49849069118499756, 0.4528392553329468, -0.540650486946106, 0.5041313171386719, 10.155274391174316, 0.14911700785160065, 0.66306471824646, 18.705686569213867, 3.842841625213623, -8.573933601379395, -0.98876953125, 0.3115234375, -0.23974609375, 0, 
179, 1032604522, 0.4977335035800934, 0.4544152617454529, -0.5398798584938049, 0.5042870044708252, 10.298402786254883, 0.4943816363811493, 0.2237672209739685, 21.836854934692383, -9.825243949890137, -10.113685607910156, -0.98779296875, 0.30908203125, -0.24267578125, 0, 
180, 1032612855, 0.496585488319397, 0.45632684230804443, -0.5394639372825623, 0.5041377544403076, 10.885965347290039, 0.7093668580055237, -0.11801093071699142, 21.832937240600586, -19.405155181884766, -9.7276029586792, -0.98876953125, 0.30908203125, -0.240234375, 0, 
181, 1032621188, 0.4956422746181488, 0.45787447690963745, -0.5390796065330505, 0.5040738582611084, 10.99342155456543, 0.795080840587616, -0.34202468395233154, 18.495725631713867, -15.026187896728516, -7.6998209953308105, -0.99169921875, 0.3037109375, -0.23828125, 0, 
182, 1032629521, 0.4957236647605896, 0.45847073197364807, -0.5382451415061951, 0.5043436288833618, 10.763055801391602, 0.6849255561828613, -0.33764684200286865, 11.132933616638184, 4.314526081085205, -8.27421760559082, -0.9892578125, 0.3037109375, -0.23876953125, 0, 
183, 1032637854, 0.4967384934425354, 0.4582234025001526, -0.5370762348175049, 0.5048156380653381, 10.682130813598633, 0.7219861149787903, -0.04777020588517189, 3.3325538635253906, 20.648448944091797, -9.26674747467041, -0.9951171875, 0.30126953125, -0.24267578125, 0, 
184, 1032646187, 0.4987807273864746, 0.4571000337600708, -0.5356184244155884, 0.5053689479827881, 10.429845809936523, 0.6590254902839661, 0.122414231300354, -6.538297653198242, 36.78532791137695, -11.163773536682129, -0.99072265625, 0.29931640625, -0.24462890625, 0, 
185, 1032654520, 0.5014724135398865, 0.45565247535705566, -0.5338330864906311, 0.5059011578559875, 10.129968643188477, 0.46901968121528625, 0.4174886643886566, -10.705877304077148, 45.9555549621582, -15.517802238464355, -0.9873046875, 0.30224609375, -0.248046875, 0, 
186, 1032662853, 0.5044646263122559, 0.45413869619369507, -0.5320978164672852, 0.5061154365539551, 9.719398498535156, -0.0626179650425911, 0.9389545917510986, -15.744545936584473, 46.266300201416016, -18.97602081298828, -0.982421875, 0.29638671875, -0.25634765625, 0, 
187, 1032671186, 0.5074583888053894, 0.45286303758621216, -0.530515193939209, 0.5059271454811096, 9.584856986999512, -0.28137141466140747, 1.1070443391799927, -18.09918785095215, 41.06359100341797, -22.589269638061523, -0.9853515625, 0.29296875, -0.263671875, 0, 
188, 1032679519, 0.5099461674690247, 0.45218491554260254, -0.5292694568634033, 0.5053365230560303, 9.615809440612793, -0.4654056429862976, 1.2012799978256226, -16.06856346130371, 28.341039657592773, -24.11761474609375, -0.98583984375, 0.29345703125, -0.2666015625, 0, 
189, 1032687852, 0.5117080807685852, 0.4520385265350342, -0.5284627676010132, 0.5045301914215088, 10.16876220703125, -0.540153443813324, 1.2201999425888062, -12.43481159210205, 14.959415435791016, -21.745925903320312, -0.9853515625, 0.28857421875, -0.265625, 0, 
190, 1032696185, 0.513093888759613, 0.4520629048347473, -0.5281135439872742, 0.5034653544425964, 10.238484382629395, -0.7801340818405151, 1.0624529123306274, -13.960506439208984, 6.198558330535889, -19.3300724029541, -0.98583984375, 0.28662109375, -0.27001953125, 0, 
191, 1032704518, 0.5145125985145569, 0.45209595561027527, -0.5277518033981323, 0.5023657083511353, 10.443724632263184, -0.9644399285316467, 0.8451731204986572, -14.255047798156738, 6.264874458312988, -19.967845916748047, -0.986328125, 0.28515625, -0.2685546875, 0, 
192, 1032712851, 0.5161007046699524, 0.4521544575691223, -0.5272377133369446, 0.5012227296829224, 10.167428016662598, -1.2090070247650146, 0.8679121732711792, -14.40443229675293, 8.113405227661133, -22.555862426757812, -0.9853515625, 0.2822265625, -0.2666015625, 0, 
193, 1032721184, 0.5177533030509949, 0.4522300064563751, -0.526765763759613, 0.4999449849128723, 9.945070266723633, -1.4515159130096436, 0.7215740084648132, -15.93921184539795, 7.337855815887451, -23.83721351623535, -0.9873046875, 0.2822265625, -0.267578125, 0, 
194, 1032729517, 0.519438624382019, 0.45217978954315186, -0.5263044834136963, 0.4987264573574066, 9.975275993347168, -1.5671056509017944, 0.5483705997467041, -16.695358276367188, 8.71937370300293, -22.643781661987305, -0.98583984375, 0.2822265625, -0.271484375, 0, 
195, 1032737850, 0.5212329030036926, 0.4518521726131439, -0.5256001353263855, 0.49789363145828247, 9.944942474365234, -1.4037595987319946, 0.6896315813064575, -14.884686470031738, 15.558148384094238, -20.161325454711914, -0.9853515625, 0.2763671875, -0.27197265625, 0, 
196, 1032746183, 0.5228060483932495, 0.4514172077178955, -0.5249557495117188, 0.4973183870315552, 9.998519897460938, -1.1121537685394287, 1.069163203239441, -12.839731216430664, 15.851311683654785, -15.630736351013184, -0.982421875, 0.27490234375, -0.27197265625, 0, 
197, 1032754516, 0.5240030288696289, 0.4510311782360077, -0.5244989991188049, 0.49689072370529175, 10.216894149780273, -0.9698600769042969, 1.2332243919372559, -10.358603477478027, 12.380861282348633, -11.210328102111816, -0.9853515625, 0.27197265625, -0.27099609375, 0, 
198, 1032762849, 0.5249013304710388, 0.45070818066596985, -0.5241630673408508, 0.4965900778770447, 10.32940673828125, -0.6129467487335205, 1.2625774145126343, -7.9747633934021, 9.702764511108398, -7.934036731719971, -0.982421875, 0.27294921875, -0.27587890625, 0, 
199, 1032771182, 0.5257343053817749, 0.4503578245639801, -0.5238727331161499, 0.4963327944278717, 10.127466201782227, -0.4640754461288452, 1.08250093460083, -7.744441032409668, 9.366680145263672, -6.72122859954834, -0.9833984375, 0.2734375, -0.27587890625, 0, 
200, 1032779515, 0.5266976952552795, 0.44995391368865967, -0.5234751105308533, 0.496097207069397, 10.026755332946777, -0.4485953152179718, 0.985954999923706, -8.072046279907227, 11.572320938110352, -7.7072224617004395, -0.9833984375, 0.27099609375, -0.279296875, 0, 
201, 1032787848, 0.5278854966163635, 0.4493105113506317, -0.5229688882827759, 0.49595165252685547, 9.759703636169434, -0.3870636224746704, 0.9854596853256226, -9.767759323120117, 16.173791885375977, -7.56022310256958, -0.98583984375, 0.271484375, -0.27783203125, 0, 
202, 1032796181, 0.5291104912757874, 0.4485906958580017, -0.5225922465324402, 0.49569493532180786, 9.613555908203125, -0.36583712697029114, 1.3190860748291016, -12.27414321899414, 15.326194763183594, -7.244836330413818, -0.97998046875, 0.26904296875, -0.28271484375, 0, 
203, 1032804514, 0.5300465822219849, 0.44786536693573, -0.5223591923713684, 0.4955962896347046, 9.543853759765625, 0.17280441522598267, 0.9703454375267029, -10.344721794128418, 13.226028442382812, -3.2232706546783447, -0.98291015625, 0.2705078125, -0.2802734375, 0, 
204, 1032812847, 0.5309590101242065, 0.447038859128952, -0.5219860672950745, 0.49575895071029663, 9.315545082092285, -0.05769664794206619, 1.190017580986023, -8.13408374786377, 16.367639541625977, -1.270978569984436, -0.98095703125, 0.27294921875, -0.28515625, 0, 
205, 1032821180, 0.5316678285598755, 0.44631171226501465, -0.5218560099601746, 0.4957914352416992, 9.413558959960938, -0.061224158853292465, 1.474615454673767, -8.730894088745117, 11.659689903259277, -0.07438374310731888, -0.9794921875, 0.2705078125, -0.28662109375, 0, 
206, 1032829513, 0.5321745276451111, 0.44574105739593506, -0.5220197439193726, 0.4955890476703644, 9.535050392150879, -0.12234532088041306, 1.376344919204712, -10.052384376525879, 5.5471601486206055, 0.2889157831668854, -0.98046875, 0.27294921875, -0.28369140625, 0, 
207, 1032837846, 0.5326438546180725, 0.44515520334243774, -0.5222795605659485, 0.4953373670578003, 9.515254974365234, -0.24979117512702942, 1.1130056381225586, -10.92033576965332, 4.383133888244629, 0.8588709831237793, -0.978515625, 0.2734375, -0.2841796875, 0, 
208, 1032846179, 0.5331775546073914, 0.44452816247940063, -0.5226581692695618, 0.49492692947387695, 9.700151443481445, -0.602611780166626, 1.2115228176116943, -13.587944030761719, 3.278712511062622, 0.30241453647613525, -0.98095703125, 0.271484375, -0.28759765625, 0, 
209, 1032854512, 0.5337260961532593, 0.4438297748565674, -0.5231789350509644, 0.4944119453430176, 9.984906196594238, -0.6998939514160156, 1.2109756469726562, -15.90160083770752, 2.191157341003418, 0.7944127917289734, -0.97900390625, 0.27392578125, -0.2861328125, 0, 
210, 1032862845, 0.5341795086860657, 0.44300577044487, -0.523765504360199, 0.49404001235961914, 10.01820182800293, -0.8393793106079102, 1.3210958242416382, -15.679474830627441, 2.7507517337799072, 3.8185582160949707, -0.98046875, 0.2763671875, -0.2841796875, 0, 
211, 1032871178, 0.5345003604888916, 0.44231653213500977, -0.5243940949440002, 0.4936436116695404, 10.039336204528809, -0.9709789156913757, 1.3633911609649658, -14.362801551818848, 0.42226362228393555, 3.8024470806121826, -0.97900390625, 0.27880859375, -0.28564453125, 0, 
212, 1032879511, 0.534710168838501, 0.4417835772037506, -0.5249980092048645, 0.49325162172317505, 9.95834732055664, -0.9873916506767273, 1.2545397281646729, -12.321449279785156, -1.2326853275299072, 3.33467960357666, -0.98046875, 0.2783203125, -0.2861328125, 0, 
213, 1032887844, 0.5347431898117065, 0.4414813220500946, -0.5255746841430664, 0.4928719699382782, 9.826722145080566, -0.8588963747024536, 1.2831547260284424, -9.229193687438965, -3.8002049922943115, 2.771012306213379, -0.978515625, 0.2802734375, -0.28564453125, 0, 
214, 1032896177, 0.5346524119377136, 0.4412369728088379, -0.5261523127555847, 0.4925728738307953, 9.883133888244629, -0.7374407052993774, 1.288108229637146, -7.523310661315918, -4.6023406982421875, 3.8124873638153076, -0.978515625, 0.28125, -0.2802734375, 0, 
215, 1032904510, 0.5347267985343933, 0.44070425629615784, -0.5266081690788269, 0.4924819767475128, 10.03762149810791, -0.7974416017532349, 1.420545220375061, -8.298423767089844, 0.7022271156311035, 5.548389434814453, -0.97802734375, 0.28173828125, -0.28173828125, 0, 
216, 1032912843, 0.5350028276443481, 0.4398133456707001, -0.5270552635192871, 0.492500364780426, 9.887490272521973, -0.6613100171089172, 1.6864418983459473, -11.32133960723877, 5.314454555511475, 7.550680160522461, -0.9775390625, 0.28466796875, -0.2841796875, 0, 
217, 1032921176, 0.5350403189659119, 0.43899857997894287, -0.5277117490768433, 0.49248358607292175, 9.850937843322754, -0.4688464403152466, 1.8844513893127441, -11.003055572509766, 1.3176604509353638, 9.595029830932617, -0.97705078125, 0.28564453125, -0.28369140625, 0, 
218, 1032929509, 0.5347260236740112, 0.43831896781921387, -0.5289469361305237, 0.492105096578598, 9.96860408782959, -0.45998385548591614, 1.9253365993499756, -14.416747093200684, -8.593605041503906, 11.856463432312012, -0.9775390625, 0.2880859375, -0.28271484375, 0, 
219, 1032937842, 0.5341137647628784, 0.4376911520957947, -0.5306486487388611, 0.4914959669113159, 9.960235595703125, 0.18639914691448212, 1.4945296049118042, -17.0632381439209, -15.932268142700195, 14.58686637878418, -0.9765625, 0.2880859375, -0.27880859375, 0, 
220, 1032946175, 0.5333428978919983, 0.4370173513889313, -0.5323176980018616, 0.49112772941589355, 9.64818286895752, 0.2661081850528717, 1.1449062824249268, -14.477789878845215, -15.086334228515625, 17.591392517089844, -0.97900390625, 0.29345703125, -0.27734375, 0, 
221, 1032954508, 0.532710611820221, 0.4361884295940399, -0.5338633060455322, 0.490873247385025, 9.370383262634277, 0.2362797111272812, 0.8733259439468384, -14.73820972442627, -11.444010734558105, 17.859241485595703, -0.97802734375, 0.29736328125, -0.27490234375, 0, 
222, 1032962841, 0.5320683717727661, 0.4353814423084259, -0.5352554321289062, 0.4907703101634979, 9.490309715270996, 0.3287191390991211, 0.8228152990341187, -12.41327953338623, -9.62281322479248, 17.979345321655273, -0.97998046875, 0.30126953125, -0.271484375, 0, 
223, 1032971174, 0.5311721563339233, 0.4347228407859802, -0.5366550087928772, 0.4907964766025543, 9.644120216369629, 0.40285566449165344, 0.45553910732269287, -8.85415267944336, -11.787548065185547, 19.570219039916992, -0.97998046875, 0.30419921875, -0.2685546875, 0, 
224, 1032979507, 0.5301209092140198, 0.4340399205684662, -0.5380638241767883, 0.4909948706626892, 9.824433326721191, 0.008426507003605366, 0.31178387999534607, -6.95040225982666, -11.79423713684082, 22.129192352294922, -0.9765625, 0.3056640625, -0.26806640625, 0, 
225, 1032987840, 0.5292458534240723, 0.4330943822860718, -0.5393616557121277, 0.491349995136261, 9.935330390930176, -0.1499488353729248, 0.19930537045001984, -7.964263439178467, -6.984160423278809, 23.34235191345215, -0.97412109375, 0.3095703125, -0.2646484375, 0, 
226, 1032996173, 0.5285496711730957, 0.4318792521953583, -0.5405351519584656, 0.4918792247772217, 9.99213695526123, -0.414497435092926, 0.32740047574043274, -8.901361465454102, -1.8812639713287354, 24.682363510131836, -0.97998046875, 0.3125, -0.26708984375, 0, 
227, 1033004506, 0.5281252861022949, 0.43032583594322205, -0.5417035818099976, 0.49241068959236145, 9.90717887878418, -0.5638753175735474, 0.4876987934112549, -12.914578437805176, 2.4665884971618652, 25.32428550720215, -0.97705078125, 0.318359375, -0.263671875, 0, 
228, 1033012839, 0.5280898213386536, 0.4285486042499542, -0.5427426099777222, 0.49285435676574707, 9.622197151184082, -0.6627140045166016, 0.6233510971069336, -16.628902435302734, 7.31060266494751, 22.972949981689453, -0.978515625, 0.32177734375, -0.2646484375, 0, 
229, 1033021172, 0.5282556414604187, 0.426834374666214, -0.5437458753585815, 0.4930582046508789, 9.064900398254395, -0.8914772272109985, 0.6731975674629211, -18.891868591308594, 7.223001003265381, 19.166900634765625, -0.97314453125, 0.3212890625, -0.267578125, 0, 
230, 1033029505, 0.5283494591712952, 0.4253801107406616, -0.544940173625946, 0.49289584159851074, 8.906509399414062, -1.116597294807434, 0.7428290843963623, -20.627361297607422, 1.392428994178772, 16.192161560058594, -0.97802734375, 0.32958984375, -0.26611328125, 0, 
231, 1033037838, 0.5282168984413147, 0.424180805683136, -0.5463074445724487, 0.492558091878891, 9.019556045532227, -1.2908235788345337, 0.5261625647544861, -19.917537689208984, -4.324402809143066, 15.534210205078125, -0.97607421875, 0.33056640625, -0.26513671875, 0, 
232, 1033046171, 0.5278992652893066, 0.42313411831855774, -0.5477608442306519, 0.49218451976776123, 9.248343467712402, -1.561744213104248, 0.5493155717849731, -18.60247802734375, -7.5739030838012695, 15.90218448638916, -0.9755859375, 0.33642578125, -0.2626953125, 0, 
233, 1033054504, 0.5274952054023743, 0.4220471680164337, -0.549109935760498, 0.492047518491745, 9.4284086227417, -1.8429585695266724, 0.6342347860336304, -15.899529457092285, -5.825806617736816, 17.88136863708496, -0.9755859375, 0.3388671875, -0.26318359375, 0, 
234, 1033062837, 0.5269148349761963, 0.42125752568244934, -0.5505858063697815, 0.4916968047618866, 9.420828819274902, -2.1686272621154785, 0.341048002243042, -15.195115089416504, -11.31988525390625, 16.034713745117188, -0.9736328125, 0.34228515625, -0.26318359375, 0, 
235, 1033071170, 0.5259073376655579, 0.4212324023246765, -0.5518206357955933, 0.4914124310016632, 9.788329124450684, -2.291233539581299, -0.1547899693250656, -5.050771236419678, -17.60247039794922, 12.1978759765625, -0.9736328125, 0.34326171875, -0.2578125, 0, 
236, 1033079503, 0.5244568586349487, 0.4216235876083374, -0.5530079007148743, 0.4912923276424408, 10.181546211242676, -2.3030459880828857, -0.31970012187957764, 2.0946950912475586, -22.473892211914062, 12.965307235717773, -0.97998046875, 0.34228515625, -0.25732421875, 0, 
237, 1033087836, 0.5227801203727722, 0.4223175048828125, -0.5541167259216309, 0.4912343919277191, 10.432106971740723, -2.223203182220459, -0.3503032326698303, 6.610769748687744, -25.320484161376953, 12.161661148071289, -0.974609375, 0.34521484375, -0.2509765625, 0, 
238, 1033096169, 0.5211068987846375, 0.42313486337661743, -0.5551921129226685, 0.49109455943107605, 10.176469802856445, -2.4849517345428467, -0.3965744972229004, 7.061401844024658, -26.355144500732422, 10.437744140625, -0.9755859375, 0.34814453125, -0.24755859375, 0, 
239, 1033104502, 0.5194293856620789, 0.42423269152641296, -0.5561518669128418, 0.49083825945854187, 10.255486488342285, -2.0456833839416504, -0.4174485206604004, 9.003000259399414, -28.139448165893555, 6.791312217712402, -0.97705078125, 0.34765625, -0.24560546875, 0, 
240, 1033112835, 0.5174849629402161, 0.4256543517112732, -0.5571507215499878, 0.49052852392196655, 10.220614433288574, -1.9941421747207642, -0.4891522526741028, 12.185869216918945, -32.94688415527344, 5.988422393798828, -0.97802734375, 0.34814453125, -0.24365234375, 0, 
241, 1033121168, 0.5153245329856873, 0.42735081911087036, -0.5582101941108704, 0.4901232123374939, 10.400238990783691, -1.8481191396713257, -0.49876052141189575, 14.279304504394531, -37.4554443359375, 4.989391326904297, -0.98095703125, 0.34814453125, -0.23974609375, 0, 
242, 1033129501, 0.5134368538856506, 0.4289168119430542, -0.5590872764587402, 0.4897368252277374, 10.418845176696777, -1.740381121635437, -0.8309417366981506, 13.113235473632812, -33.07070541381836, 3.241344451904297, -0.97998046875, 0.349609375, -0.23095703125, 0, 
243, 1033137834, 0.5123778581619263, 0.4296780824661255, -0.5597293376922607, 0.48944488167762756, 10.179343223571777, -1.7023371458053589, -0.8203299641609192, 4.86771821975708, -19.07036590576172, 3.097517728805542, -0.98291015625, 0.34716796875, -0.2314453125, 0, 
244, 1033146167, 0.5123445391654968, 0.4294787645339966, -0.5599703788757324, 0.4893788993358612, 10.13762378692627, -1.4179563522338867, -0.6199977993965149, -3.5400407314300537, -0.5439183115959167, 2.84075927734375, -0.984375, 0.34521484375, -0.22998046875, 0, 
245, 1033154500, 0.5128192901611328, 0.4287337362766266, -0.5598978400230408, 0.48961812257766724, 9.819136619567871, -1.4465607404708862, -0.4603666067123413, -5.906310081481934, 11.049175262451172, 3.8898417949676514, -0.98291015625, 0.34912109375, -0.2333984375, 0, 
246, 1033162833, 0.5134611129760742, 0.42783042788505554, -0.5594656467437744, 0.49022921919822693, 9.829285621643066, -1.3978979587554932, -0.34894633293151855, -2.740993022918701, 18.13344955444336, 4.518531799316406, -0.982421875, 0.35205078125, -0.23046875, 0, 
247, 1033171166, 0.5139851570129395, 0.4270066022872925, -0.559199333190918, 0.4907018542289734, 9.83212661743164, -1.4100013971328735, -0.04867095872759819, -3.65090012550354, 14.703739166259766, 4.6660051345825195, -0.9814453125, 0.3515625, -0.23486328125, 0, 
248, 1033179499, 0.51431804895401, 0.4264262616634369, -0.5589926838874817, 0.49109289050102234, 9.927288055419922, -1.179586410522461, 0.00042641256004571915, -1.8576726913452148, 10.691703796386719, 3.8904058933258057, -0.978515625, 0.3544921875, -0.2373046875, 0, 
249, 1033187832, 0.5146086812019348, 0.4259341359138489, -0.5589410662651062, 0.49127453565597534, 9.944035530090332, -1.1904971599578857, -0.02467571198940277, -3.62052059173584, 7.446736812591553, 2.893294095993042, -0.97607421875, 0.35205078125, -0.2353515625, 0, 
250, 1033196165, 0.5150272846221924, 0.4253269135951996, -0.5588350892066956, 0.49148234724998474, 9.910362243652344, -1.0505144596099854, -0.22221441566944122, -4.637456893920898, 9.74599838256836, 2.811687469482422, -0.98046875, 0.3525390625, -0.23583984375, 0, 
251, 1033204498, 0.5155498385429382, 0.42453137040138245, -0.5586091876029968, 0.4918786883354187, 10.069384574890137, -0.8465014100074768, -0.19528040289878845, -4.301168918609619, 13.770563125610352, 4.156717777252197, -0.9794921875, 0.3525390625, -0.2392578125, 0, 
252, 1033212831, 0.5160843729972839, 0.423515647649765, -0.558436930179596, 0.4923892021179199, 10.015299797058105, -0.7296304106712341, 0.06620894372463226, -5.4362640380859375, 15.636739730834961, 6.9247965812683105, -0.97607421875, 0.35400390625, -0.2412109375, 0, 
253, 1033221164, 0.5165367126464844, 0.4227171242237091, -0.5581672787666321, 0.4929065406322479, 9.803189277648926, -1.0063766241073608, 0.2109759896993637, -2.6874332427978516, 14.266414642333984, 5.260498523712158, -0.9794921875, 0.35693359375, -0.2451171875, 0, 
254, 1033229497, 0.5167683959007263, 0.4220791757106781, -0.5580943822860718, 0.493292897939682, 9.889443397521973, -0.9814287424087524, 0.3590753376483917, -2.6197726726531982, 9.326386451721191, 5.77125883102417, -0.97314453125, 0.357421875, -0.248046875, 0, 
255, 1033237830, 0.516434371471405, 0.4218682050704956, -0.5584147572517395, 0.49346044659614563, 9.955521583557129, -0.9805969595909119, 0.019084839150309563, -0.6323385834693909, -1.9779056310653687, 7.024844646453857, -0.974609375, 0.3564453125, -0.24365234375, 0, 
256, 1033246163, 0.5157161355018616, 0.4218558371067047, -0.5589417815208435, 0.4936254620552063, 10.16562557220459, -1.0943955183029175, -0.1805892288684845, 1.5692816972732544, -7.755336761474609, 9.321148872375488, -0.97509765625, 0.3564453125, -0.24560546875, 0, 
257, 1033254496, 0.5150775909423828, 0.4215691387653351, -0.5594595670700073, 0.4939505457878113, 10.350040435791016, -1.1900054216384888, -0.2369738519191742, 0.47121235728263855, -4.290000915527344, 11.939398765563965, -0.974609375, 0.3583984375, -0.24365234375, 0, 
258, 1033262829, 0.5147156119346619, 0.4209847152233124, -0.5598539113998413, 0.494379460811615, 10.189382553100586, -1.3382556438446045, -0.19288752973079681, -1.6194602251052856, 1.3386127948760986, 12.401811599731445, -0.974609375, 0.3623046875, -0.23974609375, 0, 
259, 1033271162, 0.5144643783569336, 0.4204833507537842, -0.5602371692657471, 0.49463316798210144, 9.893223762512207, -1.711842656135559, -0.20906881988048553, -2.931882619857788, 0.6894200444221497, 9.674485206604004, -0.9716796875, 0.36474609375, -0.24169921875, 0, 
260, 1033279495, 0.514337956905365, 0.42020323872566223, -0.5605100989341736, 0.4946935772895813, 9.789923667907715, -1.9802601337432861, 0.028086956590414047, -2.842975378036499, -0.18946848809719086, 5.146347999572754, -0.97412109375, 0.36572265625, -0.24365234375, 0, 
261, 1033287828, 0.5140477418899536, 0.420284628868103, -0.5608522891998291, 0.4945380389690399, 9.739901542663574, -1.9879087209701538, 0.004222401417791843, -1.452506422996521, -5.650064945220947, 2.3150274753570557, -0.97509765625, 0.36376953125, -0.24462890625, 0, 
262, 1033296161, 0.5136561393737793, 0.42050957679748535, -0.5611229538917542, 0.4944467842578888, 9.911918640136719, -1.9767125844955444, -0.18690581619739532, 1.1069831848144531, -6.530912399291992, 1.9706182479858398, -0.9697265625, 0.365234375, -0.24267578125, 0, 
263, 1033304494, 0.5134709477424622, 0.4204859733581543, -0.5611388683319092, 0.4946410655975342, 10.155200004577637, -1.920507788658142, -0.11410115659236908, 2.1124956607818604, 0.20413263142108917, 2.9947521686553955, -0.97607421875, 0.3662109375, -0.240234375, 0, 
264, 1033312827, 0.513472855091095, 0.42023295164108276, -0.5609754920005798, 0.49503928422927856, 9.982562065124512, -1.7102861404418945, 0.14652326703071594, 2.186444044113159, 5.651486396789551, 3.930107593536377, -0.9755859375, 0.365234375, -0.23974609375, 0, 
265, 1033321160, 0.5133510828018188, 0.4200778603553772, -0.5609070658683777, 0.4953746795654297, 9.818739891052246, -1.2877355813980103, 0.2683274745941162, 2.476012945175171, 2.998953104019165, 4.087660789489746, -0.9697265625, 0.3671875, -0.24658203125, 0, 
266, 1033329493, 0.5129976272583008, 0.4201393723487854, -0.5609585642814636, 0.49563026428222656, 9.68644905090332, -0.7537290453910828, 0.01564202643930912, 3.8944015502929688, -1.5732005834579468, 4.158407211303711, -0.97216796875, 0.36328125, -0.2421875, 0, 
267, 1033337826, 0.5125054121017456, 0.42019742727279663, -0.5610445737838745, 0.4959929585456848, 9.724743843078613, -0.23040024936199188, -0.10246984660625458, 5.28274393081665, -2.242577314376831, 6.051016807556152, -0.9736328125, 0.36474609375, -0.24072265625, 0, 
268, 1033346159, 0.5122556686401367, 0.419924795627594, -0.5610300898551941, 0.49649789929389954, 9.803949356079102, -0.08726911246776581, -0.2582009732723236, 3.314674139022827, 3.412853717803955, 7.405088901519775, -0.9736328125, 0.3662109375, -0.240234375, 0, 
269, 1033354492, 0.5122286081314087, 0.419397234916687, -0.5610197186470032, 0.49698323011398315, 9.676300048828125, -0.09011004865169525, -0.32094433903694153, 0.07549796998500824, 6.729232311248779, 7.703521251678467, -0.97216796875, 0.36767578125, -0.244140625, 0, 
270, 1033362825, 0.5120425224304199, 0.4189729392528534, -0.5610656142234802, 0.4974806308746338, 9.828011512756348, -0.29540756344795227, -0.3437468707561493, 1.4062471389770508, 4.4689154624938965, 8.436944961547852, -0.97021484375, 0.3671875, -0.244140625, 0, 
271, 1033371158, 0.5119730830192566, 0.4184662103652954, -0.5610373020172119, 0.49801045656204224, 9.954644203186035, -0.6526824831962585, -0.28660473227500916, 0.9325761198997498, 6.646396160125732, 8.043269157409668, -0.96826171875, 0.369140625, -0.2451171875, 0, 
272, 1033379491, 0.5122117400169373, 0.4178412854671478, -0.5609806776046753, 0.49835342168807983, 9.873113632202148, -0.8761860728263855, -0.26108282804489136, -2.941385269165039, 8.952803611755371, 5.39959716796875, -0.97021484375, 0.37255859375, -0.2451171875, 0, 
273, 1033387824, 0.5126878023147583, 0.41721150279045105, -0.5609501600265503, 0.49842554330825806, 9.787585258483887, -1.1995131969451904, -0.23898418247699738, -6.591235160827637, 9.08059310913086, 2.0218982696533203, -0.96923828125, 0.37255859375, -0.24658203125, 0, 
274, 1033396157, 0.5134454369544983, 0.41652369499206543, -0.5608041286468506, 0.4983852803707123, 9.719671249389648, -1.4233958721160889, -0.26824069023132324, -8.705382347106934, 11.817755699157715, -0.8862269520759583, -0.9677734375, 0.3740234375, -0.24365234375, 0, 
275, 1033404490, 0.5142509341239929, 0.41599151492118835, -0.5605208277702332, 0.4983183443546295, 9.519372940063477, -1.4861319065093994, -0.38386890292167664, -7.130978107452393, 11.94011402130127, -3.416759967803955, -0.96923828125, 0.37158203125, -0.24853515625, 0, 
276, 1033412823, 0.5150426626205444, 0.4156525135040283, -0.5601474046707153, 0.4982036054134369, 9.311054229736328, -1.492984414100647, -0.5251221060752869, -5.45365571975708, 10.869797706604004, -5.636463642120361, -0.96728515625, 0.3701171875, -0.24853515625, 0, 
277, 1033421156, 0.5157555937767029, 0.41548699140548706, -0.5596901178359985, 0.4981178343296051, 9.299560546875, -1.3861596584320068, -0.6782289743423462, -2.9586617946624756, 9.840476989746094, -6.73647928237915, -0.96728515625, 0.37255859375, -0.25048828125, 0, 
278, 1033429489, 0.5161932706832886, 0.4156324565410614, -0.5591349005699158, 0.49816662073135376, 9.489555358886719, -1.3060277700424194, -0.7430795431137085, 2.507659673690796, 7.048372745513916, -6.82011079788208, -0.96630859375, 0.3701171875, -0.2490234375, 0, 
279, 1033437822, 0.5165867209434509, 0.41589033603668213, -0.5583410263061523, 0.4984339773654938, 9.406010627746582, -1.4558709859848022, -0.6420167684555054, 6.887938022613525, 8.889280319213867, -7.224264621734619, -0.96728515625, 0.3681640625, -0.25341796875, 0, 
280, 1033446155, 0.5170001983642578, 0.41630101203918457, -0.5573976635932922, 0.4987182319164276, 9.295879364013672, -1.5509072542190552, -0.49877241253852844, 9.000753402709961, 9.147600173950195, -9.238927841186523, -0.9658203125, 0.36865234375, -0.2529296875, 0, 
281, 1033454488, 0.5170724391937256, 0.4172602891921997, -0.5564532279968262, 0.49889618158340454, 9.406864166259766, -1.6189262866973877, -0.6314512491226196, 14.057826042175293, 2.178222417831421, -11.896893501281738, -0.96630859375, 0.3662109375, -0.25390625, 0, 
282, 1033462821, 0.516717791557312, 0.41888225078582764, -0.5556215643882751, 0.4988313615322113, 9.484155654907227, -1.8556163311004639, -0.8845558166503906, 18.57568359375, -7.839534759521484, -15.087879180908203, -0.9677734375, 0.3603515625, -0.25146484375, 0, 
283, 1033471154, 0.5164469480514526, 0.42058730125427246, -0.5546876192092896, 0.4987165927886963, 9.546964645385742, -1.9503498077392578, -0.935254693031311, 19.01708221435547, -7.318938732147217, -17.271177291870117, -0.97216796875, 0.35888671875, -0.25244140625, 0, 
284, 1033479487, 0.5166829824447632, 0.42212235927581787, -0.5535112619400024, 0.4984821677207947, 9.297221183776855, -2.2410449981689453, -0.7350366711616516, 15.614358901977539, -1.2683664560317993, -21.673755645751953, -0.96875, 0.357421875, -0.25390625, 0, 
285, 1033487820, 0.5168468952178955, 0.42397454380989075, -0.5525413155555725, 0.4978160560131073, 9.422652244567871, -2.1357781887054443, -0.8761876225471497, 13.613105773925781, -7.9500885009765625, -25.49428939819336, -0.97021484375, 0.35107421875, -0.25439453125, 0, 
286, 1033496153, 0.5167356729507446, 0.4261121153831482, -0.5516529679298401, 0.4970911741256714, 9.706596374511719, -2.085724353790283, -1.1046231985092163, 16.212894439697266, -12.931615829467773, -25.687108993530273, -0.97119140625, 0.3486328125, -0.2568359375, 0, 
287, 1033504486, 0.5167251229286194, 0.4281104505062103, -0.5505959391593933, 0.4965563416481018, 9.626572608947754, -2.0631139278411865, -0.9684354662895203, 17.252931594848633, -8.886380195617676, -24.993520736694336, -0.9716796875, 0.34326171875, -0.25634765625, 0, 
288, 1033512819, 0.5166078209877014, 0.4303721785545349, -0.5492826104164124, 0.49617767333984375, 9.467623710632324, -1.9551458358764648, -1.0477381944656372, 22.661527633666992, -8.768364906311035, -26.62183952331543, -0.97607421875, 0.33740234375, -0.255859375, 0, 
289, 1033521152, 0.5160744190216064, 0.4330024719238281, -0.5481837391853333, 0.49565935134887695, 9.56543254852295, -1.4894922971725464, -1.1023021936416626, 25.246427536010742, -16.75948143005371, -26.327438354492188, -0.97509765625, 0.33642578125, -0.25244140625, 0, 
290, 1033529485, 0.5154726505279541, 0.4355347454547882, -0.5470138788223267, 0.4953593611717224, 9.598784446716309, -1.3593065738677979, -1.1592414379119873, 27.065229415893555, -14.819929122924805, -23.95789909362793, -0.97802734375, 0.32568359375, -0.24853515625, 0, 
291, 1033537818, 0.5153363943099976, 0.437538206577301, -0.5453245639801025, 0.49559807777404785, 9.8063383102417, -1.1263571977615356, -0.8706124424934387, 28.10820960998535, -0.7844367623329163, -22.482559204101562, -0.98291015625, 0.3232421875, -0.25146484375, 0, 
292, 1033546151, 0.5151570439338684, 0.439394474029541, -0.5437067747116089, 0.49591949582099915, 9.449967384338379, -1.035019874572754, -0.7187812924385071, 27.46782875061035, -0.1367289274930954, -20.03114891052246, -0.98291015625, 0.31787109375, -0.25390625, 0, 
293, 1033554484, 0.514883279800415, 0.44110119342803955, -0.5422537922859192, 0.49627941846847534, 9.625435829162598, -0.7360288500785828, -0.44489243626594543, 26.121837615966797, -0.7315175533294678, -17.039140701293945, -0.9833984375, 0.31494140625, -0.25439453125, 0, 
294, 1033562817, 0.5142315626144409, 0.4428309500217438, -0.5410903096199036, 0.4966844618320465, 9.590398788452148, -0.5775319933891296, -0.337078332901001, 26.959707260131836, -5.50944709777832, -12.516866683959961, -0.98583984375, 0.31005859375, -0.2548828125, 0, 
295, 1033571150, 0.5131465792655945, 0.44466501474380493, -0.540269136428833, 0.49706175923347473, 9.623165130615234, -0.41799190640449524, -0.152911975979805, 27.816160202026367, -12.010334014892578, -8.48540210723877, -0.98486328125, 0.3095703125, -0.2548828125, 0, 
296, 1033579483, 0.5116275548934937, 0.44675618410110474, -0.5398150086402893, 0.4972459077835083, 9.957479476928711, -0.3644697368144989, -0.134341299533844, 28.31722068786621, -20.789432525634766, -6.507559776306152, -0.98583984375, 0.306640625, -0.2490234375, 0, 
297, 1033587816, 0.509958803653717, 0.4487546384334564, -0.539565920829773, 0.4974309206008911, 10.655749320983887, -0.24802440404891968, -0.13698086142539978, 27.20361328125, -22.676895141601562, -3.5676825046539307, -0.9892578125, 0.3056640625, -0.24853515625, 0, 
298, 1033596149, 0.5086425542831421, 0.450204074382782, -0.5391305685043335, 0.4979407489299774, 11.010857582092285, -0.3708854615688324, -0.011899830773472786, 24.846885681152344, -13.023488998413086, -0.7391248345375061, -0.98828125, 0.302734375, -0.2470703125, 0, 
299, 1033604482, 0.5080307722091675, 0.45090335607528687, -0.5384759306907654, 0.4986402988433838, 11.017607688903809, -0.22875355184078217, 0.5002502799034119, 18.14583396911621, 0.07455025613307953, -0.06874862313270569, -0.99072265625, 0.3017578125, -0.24951171875, 0, 
300, 1033612815, 0.5079646706581116, 0.45106691122055054, -0.5378206372261047, 0.4992665946483612, 11.243879318237305, 0.1598765254020691, 0.7597233653068542, 10.482280731201172, 7.310675144195557, -0.3231748640537262, -0.9892578125, 0.30126953125, -0.24853515625, 0, 
301, 1033621148, 0.5083345174789429, 0.45061105489730835, -0.5372409224510193, 0.499925434589386, 11.305228233337402, 0.6739155650138855, 0.809464156627655, 3.2055327892303467, 14.486123085021973, 1.925384283065796, -0.9892578125, 0.302734375, -0.25, 0, 
302, 1033629481, 0.5090015530586243, 0.4496467709541321, -0.5368472933769226, 0.5005375146865845, 10.684221267700195, 1.0835914611816406, 0.8701714277267456, -3.8469009399414062, 18.561017990112305, 4.502049446105957, -0.98974609375, 0.30126953125, -0.25439453125, 0, 
303, 1033637814, 0.5098084807395935, 0.4486711025238037, -0.5365282297134399, 0.5009336471557617, 10.20947265625, 1.083519458770752, 0.9642397165298462, -6.882636547088623, 17.840858459472656, 2.5373213291168213, -0.98046875, 0.30517578125, -0.25634765625, 0, 
304, 1033646147, 0.5107995271682739, 0.44782572984695435, -0.5362363457679749, 0.5009931921958923, 10.044710159301758, 0.786568820476532, 0.9326990246772766, -9.792861938476562, 16.007993698120117, -1.8508342504501343, -0.9853515625, 0.30322265625, -0.2568359375, 0, 
305, 1033654480, 0.5118764638900757, 0.446990966796875, -0.5360854864120483, 0.5008009672164917, 10.573258399963379, 0.6317223310470581, 0.9175862669944763, -13.048666954040527, 14.05173397064209, -3.4490866661071777, -0.98388671875, 0.3017578125, -0.2529296875, 0, 
306, 1033662813, 0.5132482647895813, 0.4458942413330078, -0.5359750390052795, 0.5004927515983582, 10.800429344177246, 0.284890353679657, 1.1924469470977783, -17.865528106689453, 17.007360458374023, -4.086830139160156, -0.982421875, 0.302734375, -0.259765625, 0, 
307, 1033671146, 0.5150558948516846, 0.44452905654907227, -0.5356309413909912, 0.500218391418457, 10.375155448913574, -0.15192587673664093, 1.479645013809204, -20.52959632873535, 23.945371627807617, -6.329000473022461, -0.9814453125, 0.3056640625, -0.26171875, 0, 
308, 1033679479, 0.5171325206756592, 0.44309449195861816, -0.5351026058197021, 0.4999138116836548, 9.867951393127441, -0.156982883810997, 1.7681382894515991, -21.665775299072266, 27.50399398803711, -8.98187255859375, -0.982421875, 0.30322265625, -0.263671875, 0, 
309, 1033687812, 0.5189911127090454, 0.44196265935897827, -0.5346342921257019, 0.49949073791503906, 9.647926330566406, 0.13656438887119293, 1.8046059608459473, -19.49137306213379, 22.691322326660156, -10.211174964904785, -0.98193359375, 0.3037109375, -0.26904296875, 0, 
310, 1033696145, 0.5203602910041809, 0.44124916195869446, -0.5344589352607727, 0.4988844394683838, 9.489945411682129, 0.24609388411045074, 1.5937786102294922, -16.868288040161133, 12.993504524230957, -9.428271293640137, -0.97998046875, 0.302734375, -0.267578125, 0, 
311, 1033704478, 0.5214298963546753, 0.4407757520675659, -0.5346309542655945, 0.49800097942352295, 9.124015808105469, 0.029216520488262177, 1.3110828399658203, -17.747957229614258, 4.99537992477417, -9.036090850830078, -0.97802734375, 0.30126953125, -0.2685546875, 0, 
312, 1033712811, 0.5225343108177185, 0.44023099541664124, -0.5350222587585449, 0.49690383672714233, 8.953779220581055, -0.22022567689418793, 1.007591962814331, -21.546905517578125, 2.8534393310546875, -8.928536415100098, -0.97998046875, 0.30322265625, -0.2685546875, 0, 
313, 1033721144, 0.5242406129837036, 0.43900078535079956, -0.5353322625160217, 0.49586012959480286, 9.1403226852417, -0.6810876131057739, 0.7956818342208862, -29.155990600585938, 12.88923454284668, -8.128889083862305, -0.982421875, 0.3037109375, -0.26708984375, 0, 
314, 1033729477, 0.5263336300849915, 0.43737584352493286, -0.5356404781341553, 0.4947446584701538, 9.180891036987305, -1.38008451461792, 0.8854524493217468, -34.864723205566406, 17.9918212890625, -8.366965293884277, -0.9814453125, 0.302734375, -0.26904296875, 0, 
315, 1033737810, 0.5281776189804077, 0.4360164999961853, -0.5360997319221497, 0.49348029494285583, 9.382643699645996, -2.0056564807891846, 1.0672366619110107, -33.622093200683594, 12.381604194641113, -8.82036304473877, -0.978515625, 0.3046875, -0.2685546875, 0, 
316, 1033746143, 0.5294378995895386, 0.4352806508541107, -0.5367772579193115, 0.4920410215854645, 9.47541618347168, -2.400059938430786, 1.0769740343093872, -28.31138038635254, 1.1936113834381104, -9.39571762084961, -0.9833984375, 0.30078125, -0.2685546875, 0, 
317, 1033754476, 0.5301350951194763, 0.4352051913738251, -0.5372215509414673, 0.49087053537368774, 9.749234199523926, -2.7588956356048584, 1.00704026222229, -16.6272029876709, -4.107089996337891, -9.920088768005371, -0.9794921875, 0.3046875, -0.26953125, 0, 
318, 1033762809, 0.530508279800415, 0.4354349374771118, -0.5372887253761292, 0.49018970131874084, 10.192193031311035, -2.707204818725586, 0.8002887964248657, -6.243086338043213, -2.899019241333008, -8.655101776123047, -0.98046875, 0.3056640625, -0.267578125, 0, 
319, 1033771142, 0.5308558940887451, 0.43559250235557556, -0.536927342414856, 0.4900693893432617, 10.327351570129395, -2.5357894897460938, 0.862999677658081, 0.5298689007759094, 3.888766050338745, -6.448563098907471, -0.97998046875, 0.30322265625, -0.26611328125, 0, 
320, 1033779475, 0.5310755372047424, 0.43572279810905457, -0.536453366279602, 0.4902344048023224, 10.205294609069824, -2.2985010147094727, 1.1434273719787598, 3.84609317779541, 5.651051998138428, -3.9528660774230957, -0.9794921875, 0.30126953125, -0.2724609375, 0, 
321, 1033787808, 0.5309171676635742, 0.43602535128593445, -0.536173403263092, 0.49044322967529297, 10.121026039123535, -1.8309043645858765, 1.1856578588485718, 6.471653938293457, 0.5549964308738708, -1.2222856283187866, -0.98095703125, 0.3017578125, -0.26904296875, 0, 
322, 1033796141, 0.5306673049926758, 0.4361944794654846, -0.5359721183776855, 0.49078309535980225, 10.030172348022461, -1.3011775016784668, 1.1122771501541138, 6.39499044418335, 0.9848288893699646, 1.8361179828643799, -0.982421875, 0.302734375, -0.26953125, 0, 
323, 1033804474, 0.5305382609367371, 0.4360350966453552, -0.5357354283332825, 0.49132251739501953, 9.937734603881836, -0.9385166764259338, 1.149821400642395, 5.020966529846191, 5.555791854858398, 4.653965950012207, -0.9794921875, 0.30029296875, -0.27099609375, 0, 
324, 1033812807, 0.5305036306381226, 0.43550020456314087, -0.535455048084259, 0.49213919043540955, 9.960705757141113, -0.5924152135848999, 1.1285115480422974, 4.014301776885986, 10.760322570800781, 8.574020385742188, -0.97998046875, 0.29931640625, -0.27099609375, 0, 
325, 1033821140, 0.5304492115974426, 0.4347532093524933, -0.535169243812561, 0.49316802620887756, 9.853097915649414, -0.38858628273010254, 1.3195217847824097, 4.213888168334961, 13.36880111694336, 11.753694534301758, -0.98046875, 0.30419921875, -0.27490234375, 0, 
326, 1033829473, 0.5301500558853149, 0.4340927302837372, -0.5350865125656128, 0.4941602349281311, 9.727560043334961, -0.23613040149211884, 1.3893132209777832, 4.63301420211792, 9.272726058959961, 13.755448341369629, -0.97802734375, 0.30859375, -0.27294921875, 0, 
327, 1033837806, 0.5296492576599121, 0.4335663616657257, -0.5351487398147583, 0.4950912892818451, 9.798233985900879, -0.2056383639574051, 1.2789359092712402, 5.4066667556762695, 5.462377548217773, 14.525694847106934, -0.97607421875, 0.30859375, -0.2783203125, 0, 
328, 1033846139, 0.5291038751602173, 0.43306994438171387, -0.5355652570724487, 0.49565809965133667, 10.13602066040039, -0.2476763129234314, 1.2480303049087524, 0.7693876624107361, 0.1712183803319931, 14.101855278015137, -0.9775390625, 0.3115234375, -0.2744140625, 0, 
329, 1033854472, 0.5284377932548523, 0.43247708678245544, -0.5359765291213989, 0.4964410662651062, 10.318120002746582, 0.018323514610528946, 0.9045848250389099, 2.5971434116363525, 1.2575697898864746, 17.149057388305664, -0.974609375, 0.30810546875, -0.2744140625, 0, 
330, 1033862805, 0.5279178023338318, 0.4316621720790863, -0.5363116264343262, 0.4973409175872803, 10.29096794128418, -0.20806434750556946, 0.9434674978256226, 1.315124750137329, 5.108260631561279, 18.209739685058594, -0.97705078125, 0.3154296875, -0.27783203125, 0, 
331, 1033871138, 0.5277435779571533, 0.43056803941726685, -0.536598265171051, 0.498164564371109, 10.127315521240234, -0.29223307967185974, 1.124267339706421, -2.7892370223999023, 9.453537940979004, 17.040884017944336, -0.97265625, 0.31201171875, -0.27587890625, 0, 
332, 1033879471, 0.5278908610343933, 0.4292955994606018, -0.5368658304214478, 0.4988178014755249, 9.907506942749023, -0.24014459550380707, 1.1372971534729004, -7.319835186004639, 12.189294815063477, 14.829303741455078, -0.9736328125, 0.31640625, -0.2763671875, 0, 
333, 1033887804, 0.5281263589859009, 0.4279484748840332, -0.5372330546379089, 0.4993305504322052, 9.885052680969238, -0.1933721899986267, 1.0645970106124878, -9.957755088806152, 11.790928840637207, 14.319080352783203, -0.970703125, 0.32275390625, -0.28173828125, 0, 
334, 1033896137, 0.5283526182174683, 0.42652925848960876, -0.5376703143119812, 0.49983465671539307, 9.744101524353027, -0.11149502545595169, 1.1965553760528564, -11.118196487426758, 11.667762756347656, 15.288772583007812, -0.970703125, 0.3212890625, -0.28173828125, 0, 
335, 1033904470, 0.5285093188285828, 0.4251476526260376, -0.5381783246994019, 0.5002989768981934, 9.655384063720703, -0.1377706229686737, 1.3678346872329712, -10.984745025634766, 10.127603530883789, 15.595526695251465, -0.9677734375, 0.322265625, -0.2802734375, 0, 
336, 1033912803, 0.5285696387290955, 0.42390504479408264, -0.5387297868728638, 0.5006961226463318, 9.749648094177246, -0.1523289978504181, 1.4845095872879028, -10.440340042114258, 7.769067764282227, 15.015233993530273, -0.96923828125, 0.33056640625, -0.2783203125, 0, 
337, 1033921136, 0.5286918878555298, 0.42263364791870117, -0.5393308401107788, 0.5009946227073669, 9.91108226776123, -0.18924546241760254, 1.524802565574646, -11.925018310546875, 7.477322578430176, 14.355515480041504, -0.96875, 0.33203125, -0.28369140625, 0, 
338, 1033929469, 0.5288714170455933, 0.42135289311408997, -0.5399730205535889, 0.5011922717094421, 9.859410285949707, -0.3909708261489868, 1.7015546560287476, -13.513818740844727, 7.094594478607178, 13.55453109741211, -0.96728515625, 0.3330078125, -0.2822265625, 0, 
339, 1033937802, 0.5290935039520264, 0.42022308707237244, -0.5407009124755859, 0.5011212825775146, 9.863938331604004, -0.6520775556564331, 1.7177921533584595, -15.091617584228516, 4.174301624298096, 10.663286209106445, -0.9677734375, 0.3388671875, -0.2841796875, 0, 
340, 1033946135, 0.5292413234710693, 0.4193510115146637, -0.5415309071540833, 0.5007995367050171, 9.958464622497559, -0.7848716378211975, 1.5466960668563843, -15.512496948242188, -0.33003950119018555, 8.045165061950684, -0.9658203125, 0.33837890625, -0.28369140625, 0, 
341, 1033954468, 0.5296043157577515, 0.4183907210826874, -0.5422491431236267, 0.5004414916038513, 10.061073303222656, -0.9933701157569885, 1.3661303520202637, -16.878631591796875, 2.4784724712371826, 6.2873358726501465, -0.9658203125, 0.33935546875, -0.2822265625, 0, 
342, 1033962801, 0.5300610065460205, 0.41730132699012756, -0.5429505705833435, 0.5001072287559509, 10.09305191040039, -0.9928231835365295, 1.5164847373962402, -18.08165740966797, 4.3298187255859375, 6.705206394195557, -0.966796875, 0.3408203125, -0.27880859375, 0, 
343, 1033971134, 0.5304995775222778, 0.4160383939743042, -0.5436384677886963, 0.499947190284729, 10.117204666137695, -0.7805494666099548, 1.4670770168304443, -17.79959487915039, 6.4759087562561035, 9.296088218688965, -0.96435546875, 0.3447265625, -0.28125, 0, 
344, 1033979467, 0.5308199524879456, 0.4147913455963135, -0.5443320274353027, 0.49988853931427, 10.126328468322754, -0.7999140024185181, 1.524052381515503, -16.338109970092773, 6.033435344696045, 10.782623291015625, -0.96875, 0.3486328125, -0.2783203125, 0, 
345, 1033987800, 0.530849039554596, 0.41360417008399963, -0.5450958013534546, 0.5000088810920715, 10.150107383728027, -0.3247770667076111, 1.4059580564498901, -13.390192031860352, 3.9428770542144775, 14.022747039794922, -0.9609375, 0.34765625, -0.28076171875, 0, 
346, 1033996133, 0.5307604074478149, 0.4124639630317688, -0.5459350347518921, 0.5001291036605835, 9.770647048950195, -0.507819414138794, 1.4022119045257568, -12.88990592956543, 2.1930274963378906, 14.930657386779785, -0.9619140625, 0.35205078125, -0.2802734375, 0, 
347, 1034004466, 0.5307058095932007, 0.41131117939949036, -0.5468147397041321, 0.5001755356788635, 9.918937683105469, -0.5017692446708679, 1.1616476774215698, -13.975465774536133, 1.8081481456756592, 14.46079158782959, -0.96044921875, 0.35595703125, -0.28173828125, 0, 
348, 1034012799, 0.5305343270301819, 0.41036301851272583, -0.5478498339653015, 0.5000036358833313, 9.59356689453125, -0.7791831493377686, 0.9503358602523804, -14.561031341552734, -2.833012104034424, 13.032001495361328, -0.95849609375, 0.35595703125, -0.28173828125, 0, 
349, 1034021132, 0.5305778384208679, 0.40940940380096436, -0.5488713383674622, 0.49961888790130615, 9.526799201965332, -1.286695122718811, 0.8540322780609131, -17.252473831176758, -2.29813551902771, 9.947049140930176, -0.962890625, 0.35986328125, -0.27783203125, 0, 
350, 1034029465, 0.530757486820221, 0.4084160029888153, -0.5499472618103027, 0.4990575909614563, 9.501615524291992, -1.6014723777770996, 0.7771981954574585, -20.089279174804688, -2.3692409992218018, 8.349285125732422, -0.962890625, 0.3603515625, -0.2822265625, 0, 
351, 1034037798, 0.5308078527450562, 0.4074048101902008, -0.551161527633667, 0.49849075078964233, 9.5186767578125, -1.9602649211883545, 0.6077814102172852, -20.392040252685547, -4.287901878356934, 10.089746475219727, -0.9609375, 0.36376953125, -0.27880859375, 0, 
352, 1034046131, 0.5306589007377625, 0.40656784176826477, -0.5524845123291016, 0.49786773324012756, 9.465958595275879, -1.9239143133163452, 0.5454487204551697, -19.266576766967773, -8.078298568725586, 10.35185718536377, -0.95947265625, 0.36572265625, -0.27490234375, 0, 
353, 1034054464, 0.5303213596343994, 0.40581223368644714, -0.5539158582687378, 0.49725285172462463, 9.498881340026855, -1.903337836265564, 0.3259120583534241, -18.325584411621094, -10.821352005004883, 11.668966293334961, -0.9609375, 0.36669921875, -0.271484375, 0, 
354, 1034062797, 0.5297672152519226, 0.405274897813797, -0.555460512638092, 0.4965580701828003, 9.47672176361084, -1.8305318355560303, 0.09730765968561172, -16.882877349853516, -15.22929859161377, 11.558789253234863, -0.95947265625, 0.37255859375, -0.27099609375, 0, 
355, 1034071130, 0.5292890071868896, 0.4048008918762207, -0.5569180250167847, 0.4958218038082123, 9.423896789550781, -1.9746695756912231, -0.011245191097259521, -16.526823043823242, -14.693534851074219, 9.74687385559082, -0.95849609375, 0.37353515625, -0.2685546875, 0, 
356, 1034079463, 0.5289238095283508, 0.4045591354370117, -0.5584136843681335, 0.4947253167629242, 9.308694839477539, -2.0886781215667725, -0.26454445719718933, -18.52413558959961, -17.678789138793945, 4.8086652755737305, -0.962890625, 0.37451171875, -0.26416015625, 0, 
357, 1034087796, 0.5285130143165588, 0.40459054708480835, -0.559695303440094, 0.4936893880367279, 9.235634803771973, -2.2511966228485107, -0.23843251168727875, -14.362586975097656, -18.0013484954834, 2.2469842433929443, -0.958984375, 0.37744140625, -0.26025390625, 0, 
358, 1034096129, 0.5278097987174988, 0.4049503207206726, -0.5609912872314453, 0.49267464876174927, 9.314091682434082, -2.3222768306732178, -0.07006652653217316, -10.281598091125488, -22.459381103515625, 1.9634860754013062, -0.96533203125, 0.376953125, -0.26171875, 0, 
359, 1034104462, 0.5267925262451172, 0.4056228697299957, -0.5622882843017578, 0.49173083901405334, 9.34484577178955, -2.4123647212982178, -0.23572450876235962, -5.744060039520264, -26.62003517150879, 2.170628547668457, -0.966796875, 0.3779296875, -0.2509765625, 0, 
360, 1034112795, 0.5253838300704956, 0.40656089782714844, -0.5634987354278564, 0.4910772442817688, 9.474108695983887, -2.372997283935547, -0.4549947679042816, 1.213628888130188, -29.19011878967285, 4.412772178649902, -0.96240234375, 0.3798828125, -0.2509765625, 0, 
361, 1034121128, 0.5239962935447693, 0.40756481885910034, -0.5644717216491699, 0.4906098246574402, 9.391667366027832, -2.3252580165863037, -0.17163757979869843, 4.575575828552246, -26.715240478515625, 3.7473390102386475, -0.9677734375, 0.3779296875, -0.24755859375, 0, 
362, 1034129461, 0.5223395824432373, 0.40877586603164673, -0.5655964612960815, 0.4900733232498169, 9.50739574432373, -2.20571231842041, -0.1155434250831604, 6.058284282684326, -31.68187713623047, 4.3369550704956055, -0.96826171875, 0.37548828125, -0.24560546875, 0, 
363, 1034137794, 0.5204268097877502, 0.41031399369239807, -0.5665318965911865, 0.4897424876689911, 9.720438957214355, -2.0076498985290527, -0.3759706914424896, 12.691173553466797, -33.363521575927734, 3.900974988937378, -0.970703125, 0.38134765625, -0.2412109375, 0, 
364, 1034146127, 0.5186350345611572, 0.4117721915245056, -0.5670450925827026, 0.4898253381252289, 9.950141906738281, -1.8945038318634033, -0.7649192214012146, 17.533546447753906, -26.52587890625, 4.318742275238037, -0.96923828125, 0.3779296875, -0.23828125, 0, 
365, 1034154460, 0.5172233581542969, 0.41278547048568726, -0.5671558380126953, 0.4903367757797241, 10.1494722366333, -1.4975500106811523, -0.8930713534355164, 18.26856803894043, -15.270919799804688, 5.969964027404785, -0.9736328125, 0.37890625, -0.234375, 0, 
366, 1034162793, 0.5160084962844849, 0.41352999210357666, -0.5668851733207703, 0.49130165576934814, 10.145767211914062, -1.4943554401397705, -0.7146256566047668, 21.33965301513672, -6.633706092834473, 7.834874153137207, -0.97021484375, 0.37744140625, -0.232421875, 0, 
367, 1034171126, 0.5150454640388489, 0.41420871019363403, -0.5663107633590698, 0.4924015402793884, 10.178558349609375, -1.42021644115448, -0.20913848280906677, 22.566686630249023, -1.3059550523757935, 5.84283971786499, -0.96923828125, 0.37890625, -0.236328125, 0, 
368, 1034179459, 0.5143266916275024, 0.4147129952907562, -0.5658796429634094, 0.49322348833084106, 9.83792495727539, -1.5510780811309814, 0.3358471393585205, 16.78502655029297, -0.8174273371696472, 4.428741455078125, -0.96923828125, 0.37744140625, -0.23583984375, 0, 
369, 1034187792, 0.5136659145355225, 0.41533342003822327, -0.5656322836875916, 0.4936732053756714, 9.545650482177734, -1.786984920501709, 0.3169170618057251, 13.154282569885254, -4.579876899719238, 1.5106637477874756, -0.97021484375, 0.3759765625, -0.23486328125, 0, 
370, 1034196125, 0.5128501653671265, 0.41617351770401, -0.5654807686805725, 0.49398741126060486, 9.844669342041016, -1.705432653427124, 0.2321857064962387, 13.864859580993652, -8.724888801574707, 0.4823673963546753, -0.97265625, 0.37841796875, -0.23583984375, 0, 
371, 1034204458, 0.5118419528007507, 0.4169846177101135, -0.5655118823051453, 0.4943133294582367, 10.172391891479492, -1.5213056802749634, 0.1156642735004425, 13.607437133789062, -11.24386978149414, 3.1049580574035645, -0.9736328125, 0.3779296875, -0.2353515625, 0, 
372, 1034212791, 0.5108388066291809, 0.41759705543518066, -0.5656395554542542, 0.4946878254413605, 10.338289260864258, -1.246373176574707, -0.04547962546348572, 11.906292915344238, -10.256185531616211, 5.546738624572754, -0.97216796875, 0.37744140625, -0.2373046875, 0, 
373, 1034221124, 0.5100449323654175, 0.4179040193557739, -0.5656570196151733, 0.4952273964881897, 10.441106796264648, -0.7769325971603394, -0.1719072014093399, 10.60615062713623, -4.831639289855957, 6.991751670837402, -0.97314453125, 0.375, -0.234375, 0, 
374, 1034229457, 0.5092548727989197, 0.4180521070957184, -0.5657382607460022, 0.4958221912384033, 10.45600700378418, -0.4173125922679901, -0.19846488535404205, 9.450052261352539, -3.8452858924865723, 8.989892959594727, -0.96826171875, 0.3759765625, -0.232421875, 0, 
375, 1034237790, 0.508524477481842, 0.41811898350715637, -0.5658667087554932, 0.4963688552379608, 10.396284103393555, -0.3003942668437958, -0.10123401880264282, 7.8679375648498535, -3.4389162063598633, 9.115275382995605, -0.97216796875, 0.3798828125, -0.232421875, 0, 
376, 1034246123, 0.5080708265304565, 0.418076753616333, -0.5659535527229309, 0.4967697262763977, 10.20928955078125, -0.3529108464717865, -0.03858593478798866, 4.6370086669921875, -1.0855056047439575, 6.85102653503418, -0.97119140625, 0.3779296875, -0.23486328125, 0, 
377, 1034254456, 0.5078694224357605, 0.41796278953552246, -0.5659894347190857, 0.49703073501586914, 10.015198707580566, -0.5472066402435303, -0.0160406194627285, 1.9661614894866943, 0.9185905456542969, 4.381711959838867, -0.9697265625, 0.38134765625, -0.236328125, 0, 
378, 1034262789, 0.5078510046005249, 0.4178285598754883, -0.5658766031265259, 0.4972907602787018, 9.816581726074219, -0.7722549438476562, 0.08456690609455109, 1.762477159500122, 3.515899419784546, 2.462437391281128, -0.9736328125, 0.37841796875, -0.23291015625, 0, 
379, 1034271122, 0.5080035328865051, 0.41759932041168213, -0.5657004117965698, 0.4975276589393616, 9.604697227478027, -0.931325376033783, 0.19071418046951294, 0.3939981460571289, 5.802648544311523, 1.474560260772705, -0.97119140625, 0.3798828125, -0.234375, 0, 
380, 1034279455, 0.5081872940063477, 0.41734644770622253, -0.5655328035354614, 0.4977428615093231, 9.450737953186035, -1.122951626777649, 0.24874626100063324, -0.202057883143425, 6.026389122009277, 1.3745366334915161, -0.97119140625, 0.37646484375, -0.234375, 0, 
381, 1034287788, 0.5083038210868835, 0.41716137528419495, -0.5653712749481201, 0.49796223640441895, 9.477405548095703, -1.3058425188064575, 0.294475793838501, 0.6827089786529541, 5.014358043670654, 1.3408153057098389, -0.97265625, 0.38134765625, -0.23681640625, 0, 
382, 1034296121, 0.5083345770835876, 0.41708996891975403, -0.5652042627334595, 0.4981803894042969, 9.519815444946289, -1.4027820825576782, 0.22118429839611053, 1.9627037048339844, 3.6061131954193115, 1.0340338945388794, -0.97314453125, 0.3779296875, -0.2353515625, 0, 
383, 1034304454, 0.5083338618278503, 0.4171345829963684, -0.564996600151062, 0.4983791708946228, 9.641849517822266, -1.5098732709884644, 0.16066870093345642, 3.1003339290618896, 2.7381231784820557, -0.05069056525826454, -0.97021484375, 0.37890625, -0.23779296875, 0, 
384, 1034312787, 0.5083800554275513, 0.417279988527298, -0.5647053718566895, 0.4985405504703522, 9.8375825881958, -1.540942907333374, 0.10895310342311859, 3.8000636100769043, 2.7834348678588867, -1.8637171983718872, -0.97216796875, 0.37744140625, -0.23779296875, 0, 
385, 1034321120, 0.5083701014518738, 0.41759946942329407, -0.5643380880355835, 0.49869903922080994, 10.015262603759766, -1.3794997930526733, -0.002260674024000764, 5.8519182205200195, 1.6676533222198486, -3.31986141204834, -0.9716796875, 0.37939453125, -0.23681640625, 0, 
386, 1034329453, 0.5083099007606506, 0.4181215167045593, -0.5639447569847107, 0.4987679123878479, 10.068915367126465, -1.2521631717681885, -0.12637671828269958, 7.025357723236084, -0.4430750608444214, -5.291568756103516, -0.97265625, 0.37744140625, -0.23828125, 0, 
387, 1034337786, 0.5086005926132202, 0.4184804856777191, -0.5633330941200256, 0.49886152148246765, 9.986295700073242, -1.2590556144714355, -0.08494038879871368, 5.568906784057617, 5.063204765319824, -7.546082496643066, -0.96923828125, 0.3759765625, -0.23974609375, 0, 
388, 1034346119, 0.5090384483337402, 0.4188304543495178, -0.5626351833343506, 0.4989091455936432, 9.893967628479004, -1.2559528350830078, -0.009494172409176826, 4.883341312408447, 6.606180191040039, -9.274530410766602, -0.97119140625, 0.3779296875, -0.2392578125, 0, 
389, 1034354452, 0.5092931985855103, 0.41945427656173706, -0.5619411468505859, 0.4989071786403656, 9.868575096130371, -1.2280164957046509, -0.10261403024196625, 7.459902763366699, 2.99582839012146, -10.49079704284668, -0.966796875, 0.375, -0.2412109375, 0, 
390, 1034362785, 0.5095517635345459, 0.4201217293739319, -0.5611544847488403, 0.4989669919013977, 9.880261421203613, -1.1247899532318115, -0.24056722223758698, 8.840356826782227, 3.7333390712738037, -10.926419258117676, -0.96923828125, 0.3681640625, -0.23828125, 0, 
391, 1034371118, 0.509865939617157, 0.4207674562931061, -0.5601491928100586, 0.4992315173149109, 9.748688697814941, -0.8232704997062683, -0.4318593144416809, 11.452934265136719, 7.025512218475342, -10.999983787536621, -0.97021484375, 0.36767578125, -0.2412109375, 0, 
392, 1034379451, 0.5102263689041138, 0.42142537236213684, -0.5589567422866821, 0.4996446371078491, 9.524080276489258, -0.7226220369338989, -0.43849441409111023, 13.69489860534668, 9.469881057739258, -11.42128849029541, -0.97119140625, 0.36669921875, -0.24365234375, 0, 
393, 1034387784, 0.5106029510498047, 0.4221762716770172, -0.5577332973480225, 0.4999929666519165, 9.410860061645508, -0.830274224281311, -0.4033261835575104, 13.986760139465332, 8.796751022338867, -12.910795211791992, -0.97265625, 0.36279296875, -0.24609375, 0, 
394, 1034396117, 0.5109953284263611, 0.42301100492477417, -0.5565503835678101, 0.5002048015594482, 9.436997413635254, -0.9283554553985596, -0.5334054827690125, 13.139838218688965, 7.266645908355713, -14.356605529785156, -0.97216796875, 0.3623046875, -0.2490234375, 0, 
395, 1034404450, 0.5112603902816772, 0.42391830682754517, -0.5554140210151672, 0.5004284381866455, 9.557171821594238, -0.9994044303894043, -0.6379254460334778, 14.181903839111328, 5.531716346740723, -13.709332466125488, -0.9697265625, 0.359375, -0.25244140625, 0, 
396, 1034412783, 0.5115752220153809, 0.4246455729007721, -0.5542972087860107, 0.5007284283638, 9.58801555633545, -1.121674656867981, -0.5202022790908813, 13.052312850952148, 7.459673881530762, -11.997966766357422, -0.97265625, 0.359375, -0.25048828125, 0, 
397, 1034421116, 0.5117720365524292, 0.42536649107933044, -0.55329430103302, 0.5010247826576233, 9.617589950561523, -1.1289114952087402, -0.675754189491272, 12.899446487426758, 5.783734321594238, -10.527425765991211, -0.97216796875, 0.353515625, -0.25537109375, 0, 
398, 1034429449, 0.5116333365440369, 0.4263591468334198, -0.5523396730422974, 0.5013758540153503, 9.61816120147705, -1.1336439847946167, -0.8643020391464233, 16.84416961669922, 1.3371531963348389, -9.585259437561035, -0.97265625, 0.3515625, -0.25244140625, 0, 
399, 1034437782, 0.5115630626678467, 0.42734819650650024, -0.5512886047363281, 0.5017622709274292, 9.449240684509277, -1.2115260362625122, -0.97063148021698, 17.354150772094727, 2.771678924560547, -10.376483917236328, -0.97607421875, 0.3505859375, -0.25244140625, 0, 
400, 1034446115, 0.5114063620567322, 0.4284864366054535, -0.5502679347991943, 0.5020715594291687, 9.397204399108887, -1.1310341358184814, -1.0869479179382324, 18.11315155029297, 0.4159112870693207, -11.244678497314453, -0.97119140625, 0.34716796875, -0.25244140625, 0, 
401, 1034454448, 0.5108898878097534, 0.430012047290802, -0.5493574142456055, 0.5022900104522705, 9.584521293640137, -1.1225515604019165, -1.266014814376831, 21.547412872314453, -6.286966323852539, -11.711091995239258, -0.97705078125, 0.3447265625, -0.2578125, 0, 
402, 1034462781, 0.5105808973312378, 0.4313794672489166, -0.5483390092849731, 0.5025442242622375, 9.498814582824707, -1.419904112815857, -1.2639631032943726, 20.18752670288086, -2.660731315612793, -12.30931282043457, -0.9736328125, 0.34326171875, -0.2548828125, 0, 
403, 1034471114, 0.510670006275177, 0.4324594736099243, -0.5471625328063965, 0.5028077960014343, 9.382671356201172, -1.647830605506897, -1.1339012384414673, 17.01706886291504, 3.4974586963653564, -13.790274620056152, -0.97412109375, 0.3388671875, -0.25732421875, 0, 
404, 1034479447, 0.5108768343925476, 0.433624267578125, -0.5458714365959167, 0.502997875213623, 9.462544441223145, -1.6474330425262451, -0.993128776550293, 17.105310440063477, 4.1590495109558105, -16.4145565032959, -0.974609375, 0.33447265625, -0.255859375, 0, 
405, 1034487780, 0.510743260383606, 0.43505537509918213, -0.5447686314582825, 0.5030933618545532, 9.630318641662598, -1.6357885599136353, -0.9362984299659729, 19.014379501342773, -2.1134700775146484, -15.6287260055542, -0.9765625, 0.33642578125, -0.25830078125, 0, 
406, 1034496113, 0.5104508996009827, 0.436548113822937, -0.5437743067741394, 0.5031729936599731, 9.671744346618652, -1.7790082693099976, -0.9307263493537903, 19.507171630859375, -4.596771240234375, -14.425189018249512, -0.974609375, 0.33203125, -0.2548828125, 0, 
407, 1034504446, 0.510260820388794, 0.43816107511520386, -0.5425654649734497, 0.5032684803009033, 9.440274238586426, -1.9835548400878906, -0.9782129526138306, 21.40018081665039, -3.0537567138671875, -17.238264083862305, -0.97705078125, 0.3251953125, -0.2578125, 0, 
408, 1034512779, 0.5100188851356506, 0.4399990141391754, -0.5414893627166748, 0.5030691623687744, 9.556941986083984, -1.9885507822036743, -1.175187349319458, 20.112707138061523, -7.715371608734131, -19.79823112487793, -0.97900390625, 0.3203125, -0.26123046875, 0, 
409, 1034521112, 0.5098059177398682, 0.4417474865913391, -0.5402697324752808, 0.5030638575553894, 9.612717628479004, -1.9162018299102783, -1.3799388408660889, 21.785934448242188, -4.684590816497803, -18.870223999023438, -0.9794921875, 0.31689453125, -0.2587890625, 0, 
410, 1034529445, 0.509648323059082, 0.44339731335639954, -0.5387939214706421, 0.5033546686172485, 9.652325630187988, -1.8768380880355835, -1.3217347860336304, 24.692745208740234, -0.010655529797077179, -17.969810485839844, -0.97998046875, 0.3173828125, -0.25830078125, 0, 
411, 1034537778, 0.5096682906150818, 0.44477641582489014, -0.5370625257492065, 0.5039677619934082, 9.732843399047852, -1.6181055307388306, -1.1758867502212524, 25.81890106201172, 6.959047317504883, -16.527240753173828, -0.982421875, 0.31103515625, -0.26318359375, 0, 
412, 1034546111, 0.509868323802948, 0.44583627581596375, -0.5351956486701965, 0.5048142671585083, 9.691397666931152, -1.7227914333343506, -0.7159675359725952, 25.19397735595703, 12.854437828063965, -14.575446128845215, -0.98095703125, 0.30859375, -0.26318359375, 0, 
413, 1034554444, 0.5103949904441833, 0.4464571177959442, -0.5333335399627686, 0.505703330039978, 10.085667610168457, -1.3694615364074707, -0.2406010627746582, 20.418415069580078, 18.5556697845459, -13.319976806640625, -0.98046875, 0.3046875, -0.26904296875, 0, 
414, 1034562777, 0.5113033652305603, 0.4465360939502716, -0.5314742922782898, 0.5066726207733154, 10.242718696594238, -1.0116784572601318, 0.14783070981502533, 14.815068244934082, 25.5732364654541, -11.383846282958984, -0.982421875, 0.3037109375, -0.26904296875, 0, 
415, 1034571110, 0.5118021965026855, 0.4467536509037018, -0.5298713445663452, 0.5076552033424377, 9.816810607910156, -0.8224982023239136, 0.872819185256958, 16.649478912353516, 19.914987564086914, -7.9113450050354, -0.9794921875, 0.30078125, -0.27099609375, 0, 
416, 1034579443, 0.5114166140556335, 0.4477139115333557, -0.5289911031723022, 0.5081155300140381, 10.103764533996582, -0.49248987436294556, 1.1069492101669312, 18.424467086791992, -0.028944097459316254, -6.35138463973999, -0.98388671875, 0.29931640625, -0.27197265625, 0, 
417, 1034587776, 0.5104381442070007, 0.44913825392723083, -0.5286041498184204, 0.5082451105117798, 10.753801345825195, -0.030694125220179558, 0.82570481300354, 19.794649124145508, -13.09223461151123, -4.899979591369629, -0.9794921875, 0.2958984375, -0.27001953125, 0, 
418, 1034596109, 0.5096134543418884, 0.450198233127594, -0.5280717611312866, 0.5086880326271057, 11.182855606079102, 0.421089231967926, 0.7675914168357849, 19.272424697875977, -6.469875812530518, -1.9987560510635376, -0.97900390625, 0.2978515625, -0.2705078125, 0, 
419, 1034604442, 0.5092332363128662, 0.4506356418132782, -0.5273807644844055, 0.5093976855278015, 11.379426956176758, 1.2044942378997803, 1.043642282485962, 15.216792106628418, 3.897782802581787, 0.2686549425125122, -0.9794921875, 0.29248046875, -0.2763671875, 0, 
420, 1034612775, 0.509482741355896, 0.45042532682418823, -0.5266808867454529, 0.5100579857826233, 11.38125991821289, 1.6827789545059204, 1.3308783769607544, 6.47116756439209, 12.736050605773926, 0.1858697086572647, -0.9794921875, 0.29345703125, -0.2734375, 0, 
421, 1034621108, 0.5101432800292969, 0.4497808814048767, -0.5261349081993103, 0.5105297565460205, 11.09344482421875, 1.9835582971572876, 1.570112943649292, -1.7285258769989014, 16.546531677246094, 0.04575984179973602, -0.97509765625, 0.29345703125, -0.2744140625, 0, 
422, 1034629441, 0.5111148953437805, 0.44901618361473083, -0.5258816480636597, 0.510492205619812, 10.721007347106934, 2.034850835800171, 1.659360408782959, -10.06818962097168, 14.402106285095215, -2.994560956954956, -0.9765625, 0.2939453125, -0.27978515625, 0, 
423, 1034637774, 0.5122877359390259, 0.44848328828811646, -0.525782585144043, 0.5098865032196045, 10.0665922164917, 1.599039912223816, 1.4739668369293213, -14.974803924560547, 9.666597366333008, -9.153199195861816, -0.97705078125, 0.29541015625, -0.279296875, 0, 
424, 1034646107, 0.5134774446487427, 0.4482347071170807, -0.5260765552520752, 0.508603572845459, 9.846413612365723, 1.0340863466262817, 1.1402406692504883, -20.62579917907715, 0.8207958340644836, -13.646222114562988, -0.9775390625, 0.291015625, -0.2783203125, 0, 
425, 1034654440, 0.5147286057472229, 0.44795435667037964, -0.5266326069831848, 0.5070079565048218, 10.178433418273926, 0.4718579947948456, 0.9414071440696716, -25.330318450927734, -2.26973032951355, -14.460091590881348, -0.9794921875, 0.29150390625, -0.27392578125, 0, 
426, 1034662773, 0.5162957906723022, 0.4473422169685364, -0.5270242691040039, 0.5055459141731262, 10.119877815246582, -0.24140575528144836, 0.9189077615737915, -27.508047103881836, 4.299033164978027, -14.306458473205566, -0.98193359375, 0.29345703125, -0.27587890625, 0, 
427, 1034671106, 0.518185555934906, 0.44648420810699463, -0.5272396802902222, 0.5041443109512329, 10.185667991638184, -0.7325449585914612, 1.099616527557373, -29.45545768737793, 9.9767427444458, -15.435027122497559, -0.9775390625, 0.28857421875, -0.2763671875, 0, 
428, 1034679439, 0.5203590989112854, 0.4454951286315918, -0.5274239778518677, 0.5025854110717773, 10.28575325012207, -1.0548001527786255, 1.3485932350158691, -33.17268371582031, 12.192123413085938, -17.7509708404541, -0.98046875, 0.29296875, -0.27685546875, 0, 
429, 1034687772, 0.5225655436515808, 0.44454920291900635, -0.5275999307632446, 0.5009462833404541, 10.289499282836914, -1.1712026596069336, 1.4818257093429565, -33.64922332763672, 11.716556549072266, -18.932878494262695, -0.98193359375, 0.29052734375, -0.27685546875, 0, 
430, 1034696105, 0.5246633291244507, 0.4438667297363281, -0.5278311967849731, 0.49911192059516907, 9.833056449890137, -1.4034407138824463, 1.3748531341552734, -32.83078384399414, 7.506888389587402, -21.145370483398438, -0.97802734375, 0.29052734375, -0.27978515625, 0, 
431, 1034704438, 0.5266315340995789, 0.44345971941947937, -0.5280625224113464, 0.49715209007263184, 9.64010238647461, -1.7254711389541626, 0.9948263764381409, -30.954233169555664, 3.9205071926116943, -23.17586898803711, -0.97900390625, 0.28857421875, -0.27783203125, 0, 
432, 1034712771, 0.5284145474433899, 0.44314491748809814, -0.5281548500061035, 0.49543988704681396, 9.46391773223877, -1.968997836112976, 0.8260176181793213, -26.417932510375977, 4.4501824378967285, -21.618408203125, -0.98095703125, 0.28759765625, -0.2744140625, 0, 
433, 1034721104, 0.5300664305686951, 0.44276881217956543, -0.5280598402023315, 0.49411094188690186, 9.138423919677734, -2.0515201091766357, 0.87202388048172, -21.99301528930664, 7.6216888427734375, -18.65076446533203, -0.97998046875, 0.28759765625, -0.27685546875, 0, 
434, 1034729437, 0.5313223600387573, 0.44254374504089355, -0.5279601812362671, 0.49306899309158325, 8.885396957397461, -2.022390127182007, 1.119911789894104, -16.377336502075195, 5.491808891296387, -14.978696823120117, -0.9814453125, 0.28466796875, -0.27978515625, 0, 
435, 1034737770, 0.5320809483528137, 0.44246214628219604, -0.5280953049659729, 0.49217861890792847, 8.910821914672852, -1.89149010181427, 1.0884654521942139, -12.32224178314209, 0.10267467051744461, -10.11716365814209, -0.98095703125, 0.283203125, -0.275390625, 0, 
436, 1034746103, 0.5324105024337769, 0.44249340891838074, -0.5283402800559998, 0.4915309548377991, 9.126973152160645, -1.7490752935409546, 0.959647536277771, -8.338047981262207, -3.0902297496795654, -5.583186626434326, -0.98095703125, 0.2802734375, -0.2734375, 0, 
437, 1034754436, 0.5323581695556641, 0.44258245825767517, -0.5285950899124146, 0.4912337362766266, 9.376291275024414, -1.5353944301605225, 0.8876349925994873, -3.2166872024536133, -4.181319236755371, -0.8240868449211121, -0.98046875, 0.28125, -0.27734375, 0, 
438, 1034762769, 0.531872570514679, 0.4428092837333679, -0.5288050770759583, 0.4913293123245239, 9.581418991088867, -1.4037126302719116, 0.7234795093536377, 3.6908199787139893, -5.557291030883789, 3.7331347465515137, -0.9814453125, 0.28515625, -0.2734375, 0, 
439, 1034771102, 0.5310641527175903, 0.44312936067581177, -0.5289663076400757, 0.49174124002456665, 9.674845695495605, -1.255000114440918, 0.42979055643081665, 9.266090393066406, -6.25970983505249, 7.232961177825928, -0.982421875, 0.2822265625, -0.2744140625, 0, 
440, 1034779435, 0.5301997065544128, 0.4433166980743408, -0.5289440751075745, 0.49252849817276, 9.917326927185059, -1.1741403341293335, 0.3453142046928406, 12.311676025390625, -2.1350491046905518, 10.220709800720215, -0.984375, 0.28515625, -0.27294921875, 0, 
441, 1034787768, 0.529375433921814, 0.4432685971260071, -0.5287920832633972, 0.4936203360557556, 10.228780746459961, -1.0432066917419434, 0.7049000263214111, 13.454305648803711, 2.5628461837768555, 13.062945365905762, -0.98291015625, 0.28466796875, -0.2734375, 0, 
442, 1034796101, 0.5285032987594604, 0.44306680560112, -0.5286376476287842, 0.4948998987674713, 10.308345794677734, -0.7614111304283142, 0.994586706161499, 13.998710632324219, 4.410913944244385, 15.883481979370117, -0.98193359375, 0.2861328125, -0.27685546875, 0, 
443, 1034804434, 0.5276234745979309, 0.4427044987678528, -0.5285754799842834, 0.496227502822876, 10.34675121307373, -0.6517708897590637, 1.1245473623275757, 12.600760459899902, 5.079214572906494, 17.98346519470215, -0.982421875, 0.28515625, -0.27685546875, 0, 
444, 1034812767, 0.5267479419708252, 0.4423498511314392, -0.5286435484886169, 0.49740004539489746, 10.40771198272705, -0.48239609599113464, 1.1003923416137695, 10.613978385925293, 3.159670829772949, 17.597986221313477, -0.9814453125, 0.2880859375, -0.27587890625, 0, 
445, 1034821100, 0.5260111093521118, 0.44195127487182617, -0.5287145972251892, 0.4984574019908905, 10.339439392089844, -0.16799966990947723, 0.9539703726768494, 8.758432388305664, 3.7446999549865723, 16.125547409057617, -0.97998046875, 0.29296875, -0.2783203125, 0, 
446, 1034829433, 0.5254725813865662, 0.4415254592895508, -0.5288144946098328, 0.499296098947525, 10.166375160217285, 0.2073422074317932, 0.7811136841773987, 5.4045915603637695, 3.837999105453491, 13.585062980651855, -0.9814453125, 0.2939453125, -0.27978515625, 0, 
447, 1034837766, 0.5251423120498657, 0.4411250948905945, -0.5289672017097473, 0.499835729598999, 10.081768989562988, 0.4156952202320099, 0.8237100839614868, 1.7583919763565063, 2.9877476692199707, 10.097644805908203, -0.97900390625, 0.294921875, -0.27734375, 0, 
448, 1034846099, 0.5251908898353577, 0.4406413733959198, -0.52937912940979, 0.4997754395008087, 10.220105171203613, 0.3497748076915741, 1.2493513822555542, -7.259279727935791, 0.7977170944213867, 5.372035503387451, -0.9794921875, 0.29736328125, -0.2783203125, 0, 
