PacketCounter,SampleTimeFine,Quat_W,Quat_X,Quat_Y,Quat_Z,Acc_X,Acc_Y,Acc_Z,Gyr_X,Gyr_Y,Gyr_Z,Mag_X,Mag_Y,Mag_Z,Status,
0, 1021604962, 0.6531623601913452, 0.31196868419647217, -0.3942844867706299, 0.5662170052528381, 0, 0, 0, 0, 0, 0, -0.70556640625, 0.2783203125, -0.65234375, 0, 
1, 1021613295, 0.6531956791877747, 0.3119538128376007, -0.39428943395614624, 0.56618332862854, 8.600171089172363, -0.4311230182647705, 4.813613414764404, -0.6996399760246277, 0.5658952593803406, -0.33607155084609985, -0.705078125, 0.27978515625, -0.65283203125, 0, 
2, 1021621628, 0.6532334089279175, 0.31192702054977417, -0.3942966163158417, 0.5661494731903076, 8.568211555480957, -0.4520171284675598, 4.804020404815674, -0.849790632724762, 0.6858211159706116, -0.28994032740592957, -0.70458984375, 0.2783203125, -0.65185546875, 0, 
3, 1021629961, 0.6532727479934692, 0.31190019845962524, -0.39429745078086853, 0.5661182403564453, 8.56629467010498, -0.43853363394737244, 4.828576564788818, -0.7878298163414001, 0.7386633157730103, -0.3134029805660248, -0.70263671875, 0.2802734375, -0.65380859375, 0, 
4, 1021638294, 0.6532977819442749, 0.31188148260116577, -0.3942883312702179, 0.5661061406135559, 8.566967010498047, -0.4401931166648865, 4.845192909240723, -0.47797444462776184, 0.7943742871284485, -0.10989788174629211, -0.7080078125, 0.279296875, -0.64892578125, 0, 
5, 1021646627, 0.6533169150352478, 0.3118737041950226, -0.39426547288894653, 0.5661042928695679, 8.545129776000977, -0.45766034722328186, 4.8492913246154785, -0.18530617654323578, 0.8205776214599609, -0.09750058501958847, -0.70556640625, 0.2802734375, -0.64892578125, 0, 
6, 1021654960, 0.6533350944519043, 0.31186643242836, -0.3942495584487915, 0.5660985112190247, 8.558576583862305, -0.4422602653503418, 4.854985237121582, -0.25876784324645996, 0.7550820708274841, -0.08886858820915222, -0.7060546875, 0.2783203125, -0.65380859375, 0, 
7, 1021663293, 0.6533398628234863, 0.31186509132385254, -0.3942413628101349, 0.5660995244979858, 8.584755897521973, -0.372713178396225, 4.877552032470703, -0.16473795473575592, 0.5729647874832153, 0.06928650289773941, -0.7041015625, 0.27783203125, -0.6513671875, 0, 
8, 1021671626, 0.6533400416374207, 0.31187883019447327, -0.3942334055900574, 0.56609708070755, 8.592245101928711, -0.3354683220386505, 4.8258514404296875, -0.03579588979482651, 0.43580058217048645, -0.0017033466137945652, -0.7060546875, 0.27978515625, -0.6533203125, 0, 
9, 1021679959, 0.6533399820327759, 0.3118899464607239, -0.3942316174507141, 0.5660922527313232, 8.596158981323242, -0.34086138010025024, 4.850064277648926, -0.11461089551448822, 0.36748746037483215, 0.013345017097890377, -0.70703125, 0.27880859375, -0.65234375, 0, 
10, 1021688292, 0.6533473134040833, 0.31188857555389404, -0.3942413330078125, 0.5660777688026428, 8.570207595825195, -0.3628780245780945, 4.816259384155273, -0.4043847322463989, 0.3835475444793701, -0.005519867409020662, -0.70556640625, 0.27880859375, -0.64990234375, 0, 
11, 1021696625, 0.6533655524253845, 0.31185904145240784, -0.39425843954086304, 0.5660610198974609, 8.523364067077637, -0.39818474650382996, 4.855170726776123, -0.7704889178276062, 0.5612590909004211, 0.06439418345689774, -0.70751953125, 0.27880859375, -0.654296875, 0, 
12, 1021704958, 0.6533727645874023, 0.3118269145488739, -0.39428582787513733, 0.5660513043403625, 8.53994369506836, -0.432975709438324, 4.858790397644043, -0.7916334867477417, 0.4832253158092499, 0.28046301007270813, -0.70654296875, 0.27783203125, -0.65380859375, 0, 
13, 1021713291, 0.6533684730529785, 0.31180065870285034, -0.39432480931282043, 0.5660436153411865, 8.501869201660156, -0.44376954436302185, 4.8643693923950195, -0.7649179100990295, 0.25643688440322876, 0.3978531062602997, -0.705078125, 0.27978515625, -0.6533203125, 0, 
14, 1021721624, 0.6533513069152832, 0.3117719292640686, -0.39437171816825867, 0.5660465955734253, 8.493764877319336, -0.45527130365371704, 4.835464954376221, -0.7412887811660767, 0.20309525728225708, 0.647963285446167, -0.70703125, 0.27880859375, -0.65087890625, 0, 
15, 1021729957, 0.6533246636390686, 0.31174710392951965, -0.39441776275634766, 0.566058874130249, 8.513421058654785, -0.4256299138069153, 4.823312282562256, -0.6033304333686829, 0.14615482091903687, 0.7758294343948364, -0.7041015625, 0.27783203125, -0.65380859375, 0, 
16, 1021738290, 0.6532835960388184, 0.3117254376411438, -0.3944683074951172, 0.5660830140113831, 8.52745532989502, -0.3849231004714966, 4.815773010253906, -0.48716986179351807, 0.0772269144654274, 1.0011323690414429, -0.70703125, 0.27734375, -0.6513671875, 0, 
17, 1021746623, 0.6532413959503174, 0.3116934895515442, -0.3945179581642151, 0.5661146640777588, 8.537440299987793, -0.37473028898239136, 4.7885422706604, -0.5230811238288879, 0.16861853003501892, 1.1244137287139893, -0.70458984375, 0.2802734375, -0.65185546875, 0, 
18, 1021754956, 0.6532065272331238, 0.3116641640663147, -0.3945712447166443, 0.566133975982666, 8.53115177154541, -0.3774626553058624, 4.794399738311768, -0.6310195326805115, 0.12476694583892822, 0.9629160165786743, -0.708984375, 0.2802734375, -0.65185546875, 0, 
19, 1021763289, 0.653177797794342, 0.31162142753601074, -0.3946414887905121, 0.5661416053771973, 8.55281925201416, -0.3910101652145386, 4.814149379730225, -0.9687175154685974, 0.03591115400195122, 0.9495195746421814, -0.705078125, 0.28271484375, -0.65234375, 0, 
20, 1021771622, 0.653162956237793, 0.3115721642971039, -0.3947138786315918, 0.5661353468894958, 8.552576065063477, -0.421917587518692, 4.811366558074951, -1.1841332912445068, 0.10773346573114395, 0.7691697478294373, -0.7041015625, 0.2802734375, -0.65478515625, 0, 
21, 1021779955, 0.6531563997268677, 0.31151390075683594, -0.3948025703430176, 0.5661132335662842, 8.543556213378906, -0.43060120940208435, 4.817805767059326, -1.507897138595581, -0.015176435001194477, 0.672860324382782, -0.70654296875, 0.2802734375, -0.65185546875, 0, 
22, 1021788288, 0.6531585454940796, 0.3114538788795471, -0.39489808678627014, 0.5660772919654846, 8.529725074768066, -0.42679905891418457, 4.786237716674805, -1.6928318738937378, -0.0519072450697422, 0.5272946357727051, -0.7060546875, 0.27880859375, -0.65185546875, 0, 
23, 1021796621, 0.6531619429588318, 0.31140315532684326, -0.39499330520629883, 0.5660347938537598, 8.58950424194336, -0.3873427212238312, 4.795116901397705, -1.6434991359710693, -0.16550637781620026, 0.39814770221710205, -0.7080078125, 0.279296875, -0.6533203125, 0, 
24, 1021804954, 0.6531658172607422, 0.3113716244697571, -0.3950972557067871, 0.5659751296043396, 8.594361305236816, -0.37974950671195984, 4.865316390991211, -1.639541506767273, -0.44051358103752136, 0.18310335278511047, -0.70849609375, 0.28125, -0.65087890625, 0, 
25, 1021813287, 0.6531766057014465, 0.31134703755378723, -0.3951902389526367, 0.5659112930297852, 8.651363372802734, -0.38573136925697327, 4.865864276885986, -1.5399917364120483, -0.4002864360809326, -0.0009605337982065976, -0.70947265625, 0.28125, -0.65478515625, 0, 
26, 1021821620, 0.6531965136528015, 0.311344176530838, -0.3952640891075134, 0.5658383369445801, 8.675576210021973, -0.3910888433456421, 4.857781887054443, -1.2886393070220947, -0.36337631940841675, -0.345651239156723, -0.70849609375, 0.28076171875, -0.64892578125, 0, 
27, 1021829953, 0.6532177329063416, 0.31133854389190674, -0.3953395485877991, 0.5657642483711243, 8.670661926269531, -0.3826487064361572, 4.869148254394531, -1.3332079648971558, -0.3768237829208374, -0.35320746898651123, -0.70703125, 0.28076171875, -0.65234375, 0, 
28, 1021838286, 0.6532507538795471, 0.3113240599632263, -0.395425021648407, 0.5656743049621582, 8.703683853149414, -0.43037134408950806, 4.860047817230225, -1.6323438882827759, -0.37939804792404175, -0.4904101490974426, -0.70703125, 0.2822265625, -0.64990234375, 0, 
29, 1021846619, 0.6532859802246094, 0.3113105297088623, -0.39549484848976135, 0.5655922293663025, 8.682170867919922, -0.4338056147098541, 4.835700988769531, -1.4633156061172485, -0.22294628620147705, -0.5140520334243774, -0.70361328125, 0.2802734375, -0.65283203125, 0, 
30, 1021854952, 0.6533269286155701, 0.3113047480583191, -0.3955456614494324, 0.5655126571655273, 8.635777473449707, -0.4691978991031647, 4.840657711029053, -1.2627304792404175, -0.047181423753499985, -0.6526250839233398, -0.70654296875, 0.28125, -0.6494140625, 0, 
31, 1021863285, 0.6533674597740173, 0.3113110661506653, -0.3955773115158081, 0.5654402375221252, 8.610076904296875, -0.4792834222316742, 4.848876476287842, -0.9585742950439453, 0.03427184373140335, -0.740033745765686, -0.70751953125, 0.28173828125, -0.65185546875, 0, 
32, 1021871618, 0.6533949971199036, 0.3113264739513397, -0.3956023156642914, 0.5653821229934692, 8.558834075927734, -0.5024729371070862, 4.837546348571777, -0.6978726387023926, 0.03942030668258667, -0.5827366709709167, -0.70703125, 0.279296875, -0.650390625, 0, 
33, 1021879951, 0.6534168720245361, 0.3113536834716797, -0.39562293887138367, 0.5653276443481445, 8.535795211791992, -0.46498486399650574, 4.821595668792725, -0.5075587630271912, -0.0533672571182251, -0.5936738848686218, -0.71044921875, 0.2822265625, -0.650390625, 0, 
34, 1021888284, 0.6534237265586853, 0.3113878667354584, -0.3956369161605835, 0.565291166305542, 8.52747631072998, -0.4792547821998596, 4.821745872497559, -0.23536920547485352, -0.026510732248425484, -0.37699028849601746, -0.70654296875, 0.2802734375, -0.64794921875, 0, 
35, 1021896617, 0.6534216403961182, 0.31143030524253845, -0.39565184712409973, 0.5652596950531006, 8.505488395690918, -0.4730389714241028, 4.802597522735596, -0.09884533286094666, -0.1515338122844696, -0.30957362055778503, -0.70849609375, 0.2802734375, -0.65234375, 0, 
36, 1021904950, 0.6534032821655273, 0.3114757537841797, -0.39566701650619507, 0.5652451515197754, 8.50695514678955, -0.4523100256919861, 4.808577537536621, 0.08416838198900223, -0.1698608100414276, -0.038126785308122635, -0.70361328125, 0.28076171875, -0.650390625, 0, 
37, 1021913283, 0.6533722877502441, 0.3115299940109253, -0.3956902027130127, 0.565234899520874, 8.495546340942383, -0.4455792009830475, 4.8237199783325195, 0.18216842412948608, -0.3849947452545166, 0.07638164609670639, -0.71044921875, 0.28173828125, -0.6513671875, 0, 
38, 1021921616, 0.6533281207084656, 0.3115816116333008, -0.39572206139564514, 0.5652352571487427, 8.516718864440918, -0.4513801634311676, 4.794521808624268, 0.19922752678394318, -0.44441983103752136, 0.33301064372062683, -0.7060546875, 0.28271484375, -0.650390625, 0, 
39, 1021929949, 0.6532823443412781, 0.31162041425704956, -0.3957641124725342, 0.5652374029159546, 8.509730339050293, -0.4455792009830475, 4.7972331047058105, 0.027432847768068314, -0.45978838205337524, 0.47002118825912476, -0.70751953125, 0.28173828125, -0.64599609375, 0, 
40, 1021938282, 0.6532251834869385, 0.3116588890552521, -0.39580902457237244, 0.5652506947517395, 8.518004417419434, -0.4515591859817505, 4.801946640014648, 0.10775908082723618, -0.4750031530857086, 0.6793150901794434, -0.70703125, 0.2822265625, -0.6474609375, 0, 
41, 1021946615, 0.6531485319137573, 0.31170156598091125, -0.395870566368103, 0.5652725696563721, 8.52772045135498, -0.38370686769485474, 4.818061828613281, 0.15045800805091858, -0.7497414350509644, 0.9474961161613464, -0.70703125, 0.2822265625, -0.6494140625, 0, 
42, 1021954948, 0.65306156873703, 0.3117321729660034, -0.39593660831451416, 0.5653100609779358, 8.515717506408691, -0.36490926146507263, 4.79657506942749, 0.13168279826641083, -0.6621151566505432, 1.2581455707550049, -0.708984375, 0.28125, -0.65283203125, 0, 
43, 1021963281, 0.6529687643051147, 0.3117462396621704, -0.39600762724876404, 0.5653596520423889, 8.507962226867676, -0.39648932218551636, 4.824299335479736, 0.0396636426448822, -0.5815967917442322, 1.5197820663452148, -0.70849609375, 0.28173828125, -0.65185546875, 0, 
44, 1021971614, 0.6528803706169128, 0.31175053119659424, -0.39608269929885864, 0.565406858921051, 8.526795387268066, -0.3942289650440216, 4.841787815093994, -0.1148926243185997, -0.5045107007026672, 1.5414133071899414, -0.7099609375, 0.28173828125, -0.650390625, 0, 
45, 1021979947, 0.6527954339981079, 0.3117418587207794, -0.3961595296859741, 0.5654559135437012, 8.509294509887695, -0.4170321524143219, 4.808477401733398, -0.24562768638134003, -0.4164234399795532, 1.6020421981811523, -0.7060546875, 0.2822265625, -0.65380859375, 0, 
46, 1021988280, 0.6527172327041626, 0.3117417097091675, -0.39623555541038513, 0.5654929280281067, 8.51681900024414, -0.46893322467803955, 4.813155174255371, -0.26281484961509705, -0.4681129455566406, 1.3990750312805176, -0.70849609375, 0.28125, -0.64990234375, 0, 
47, 1021996613, 0.652654767036438, 0.31174659729003906, -0.39630091190338135, 0.565516471862793, 8.557653427124023, -0.5059635043144226, 4.835901260375977, -0.27026858925819397, -0.40533244609832764, 1.074824571609497, -0.70947265625, 0.283203125, -0.6513671875, 0, 
48, 1022004946, 0.6525943875312805, 0.3117707073688507, -0.3963713049888611, 0.5655234456062317, 8.579691886901855, -0.5417491793632507, 4.867674350738525, -0.23927538096904755, -0.6373462677001953, 0.8325138688087463, -0.70849609375, 0.28271484375, -0.65087890625, 0, 
49, 1022013279, 0.6525420546531677, 0.31181132793426514, -0.3964245617389679, 0.565524160861969, 8.633095741271973, -0.5588370561599731, 4.838976860046387, -0.023552289232611656, -0.6170596480369568, 0.5442256331443787, -0.70703125, 0.2841796875, -0.650390625, 0, 
50, 1022021612, 0.6524905562400818, 0.31187447905540466, -0.3964661955833435, 0.5655195713043213, 8.61117172241211, -0.5264778733253479, 4.866550922393799, 0.2324235439300537, -0.6836054921150208, 0.3256337642669678, -0.70947265625, 0.28125, -0.64794921875, 0, 
51, 1022029945, 0.6524474024772644, 0.31195321679115295, -0.3964823782444, 0.5655145645141602, 8.635069847106934, -0.527100145816803, 4.817060470581055, 0.5374122858047485, -0.5541255474090576, 0.054558318108320236, -0.70556640625, 0.28369140625, -0.650390625, 0, 
52, 1022038278, 0.6524099707603455, 0.31204119324684143, -0.3964710235595703, 0.565517246723175, 8.64647102355957, -0.5170358419418335, 4.818670749664307, 0.8454747200012207, -0.2942691445350647, -0.0825674906373024, -0.70703125, 0.28369140625, -0.6494140625, 0, 
53, 1022046611, 0.6523794531822205, 0.3121219277381897, -0.39643973112106323, 0.5655298233032227, 8.633767127990723, -0.4959637522697449, 4.824527740478516, 0.9648370146751404, -0.0012935188133269548, -0.10075359046459198, -0.7080078125, 0.2841796875, -0.65185546875, 0, 
54, 1022054944, 0.6523457169532776, 0.3122057318687439, -0.39640581607818604, 0.5655463933944702, 8.65104866027832, -0.41491496562957764, 4.8173322677612305, 1.0453681945800781, 0.021080514416098595, -0.06082100048661232, -0.708984375, 0.28173828125, -0.65185546875, 0, 
55, 1022063277, 0.6523144841194153, 0.3122899532318115, -0.3963634967803955, 0.5655654668807983, 8.665790557861328, -0.4066605865955353, 4.786160469055176, 1.1191883087158203, 0.09467020630836487, -0.10218799114227295, -0.7060546875, 0.28173828125, -0.64990234375, 0, 
56, 1022071610, 0.6522992253303528, 0.31235387921333313, -0.3963245153427124, 0.5655750632286072, 8.640877723693848, -0.3962177038192749, 4.762513637542725, 0.7908394932746887, 0.2923608720302582, -0.18038824200630188, -0.70361328125, 0.283203125, -0.65185546875, 0, 
57, 1022079943, 0.6523035168647766, 0.312386691570282, -0.39627528190612793, 0.5655863285064697, 8.612064361572266, -0.3748944401741028, 4.784106731414795, 0.5181246995925903, 0.7169423699378967, -0.19821573793888092, -0.70703125, 0.28466796875, -0.6474609375, 0, 
58, 1022088276, 0.65231853723526, 0.31240615248680115, -0.39622852206230164, 0.5655912756919861, 8.549893379211426, -0.36316415667533875, 4.804571628570557, 0.2940514087677002, 0.8539785742759705, -0.25059688091278076, -0.708984375, 0.28076171875, -0.64990234375, 0, 
59, 1022096609, 0.6523419618606567, 0.3124130666255951, -0.39619794487953186, 0.5655818581581116, 8.556366920471191, -0.37787753343582153, 4.771683216094971, -0.05480165407061577, 0.7658400535583496, -0.3102780282497406, -0.708984375, 0.28466796875, -0.64794921875, 0, 
60, 1022104942, 0.6523739099502563, 0.3124062716960907, -0.39616501331329346, 0.5655719041824341, 8.553091049194336, -0.4175829589366913, 4.7763824462890625, -0.2023908793926239, 0.9619169235229492, -0.31253206729888916, -0.708984375, 0.279296875, -0.6484375, 0, 
61, 1022113275, 0.6524170637130737, 0.31238099932670593, -0.3961348533630371, 0.5655571818351746, 8.55055046081543, -0.4214101731777191, 4.822038173675537, -0.4604286551475525, 1.097057580947876, -0.33479082584381104, -0.70654296875, 0.28369140625, -0.64501953125, 0, 
62, 1022121608, 0.6524614691734314, 0.31234267354011536, -0.3961271643638611, 0.5655323266983032, 8.564635276794434, -0.4607074558734894, 4.802454471588135, -0.8149296641349792, 0.9848672747612, -0.26125240325927734, -0.708984375, 0.28076171875, -0.65087890625, 0, 
63, 1022129941, 0.6525061130523682, 0.31229105591773987, -0.39613109827041626, 0.565506637096405, 8.557918548583984, -0.515870213508606, 4.807218551635742, -1.0269899368286133, 0.9571270942687988, -0.15474839508533478, -0.71044921875, 0.28173828125, -0.64892578125, 0, 
64, 1022138274, 0.6525521278381348, 0.31224268674850464, -0.39612406492233276, 0.5654853582382202, 8.521668434143066, -0.5439307689666748, 4.80082368850708, -0.8993285894393921, 1.0798194408416748, -0.18561354279518127, -0.71142578125, 0.28369140625, -0.64794921875, 0, 
65, 1022146607, 0.6525816917419434, 0.3122093975543976, -0.396122008562088, 0.5654710531234741, 8.547124862670898, -0.5064498782157898, 4.816645622253418, -0.6891637444496155, 0.8366121649742126, -0.06156381219625473, -0.71044921875, 0.2822265625, -0.650390625, 0, 
66, 1022154940, 0.6525917053222656, 0.312186598777771, -0.39611607789993286, 0.5654760599136353, 8.54884147644043, -0.45505672693252563, 4.801252841949463, -0.3806915581226349, 0.7872022390365601, 0.19628186523914337, -0.70849609375, 0.28369140625, -0.6494140625, 0, 
67, 1022163273, 0.6525915861129761, 0.3121698200702667, -0.39609625935554504, 0.5654992461204529, 8.504866600036621, -0.42246121168136597, 4.793727874755859, -0.07124599069356918, 0.8656586408615112, 0.3401058316230774, -0.708984375, 0.2802734375, -0.64794921875, 0, 
68, 1022171606, 0.6525886058807373, 0.3121446371078491, -0.39608171582221985, 0.5655269026756287, 8.503999710083008, -0.40036600828170776, 4.778928279876709, -0.154978945851326, 0.9114313125610352, 0.4761430621147156, -0.70751953125, 0.28271484375, -0.64892578125, 0, 
69, 1022179939, 0.652590274810791, 0.3121221661567688, -0.39606982469558716, 0.5655456781387329, 8.48107624053955, -0.39247649908065796, 4.772934913635254, -0.2160944938659668, 0.8291327953338623, 0.3506845235824585, -0.70703125, 0.283203125, -0.65087890625, 0, 
70, 1022188272, 0.652588427066803, 0.31208375096321106, -0.3960631191730499, 0.5655736923217773, 8.512412071228027, -0.4146288335323334, 4.762041091918945, -0.3365582227706909, 0.9500319361686707, 0.5759872794151306, -0.70849609375, 0.2822265625, -0.64990234375, 0, 
71, 1022196605, 0.6525852084159851, 0.3120421767234802, -0.3960762023925781, 0.5655912160873413, 8.554327964782715, -0.451895147562027, 4.814027786254883, -0.5682389736175537, 0.7224238514900208, 0.5894603133201599, -0.7060546875, 0.2822265625, -0.6484375, 0, 
72, 1022204938, 0.652587354183197, 0.31200310587882996, -0.39609476923942566, 0.5655972957611084, 8.557374954223633, -0.4677315652370453, 4.785488128662109, -0.6751015782356262, 0.657414972782135, 0.46059516072273254, -0.71044921875, 0.283203125, -0.6494140625, 0, 
73, 1022213271, 0.652585506439209, 0.31194862723350525, -0.3961236774921417, 0.5656092762947083, 8.599727630615234, -0.486350417137146, 4.829341888427734, -0.8433358669281006, 0.6635367274284363, 0.6671226620674133, -0.70556640625, 0.2841796875, -0.64990234375, 0, 
74, 1022221604, 0.6525722742080688, 0.31191694736480713, -0.3961538076400757, 0.5656208992004395, 8.62876033782959, -0.47699448466300964, 4.8194427490234375, -0.6030999422073364, 0.4359542429447174, 0.6386396884918213, -0.70849609375, 0.28125, -0.65087890625, 0, 
75, 1022229937, 0.6525571942329407, 0.311896413564682, -0.3961758017539978, 0.5656342506408691, 8.6323881149292, -0.48412588238716125, 4.82440710067749, -0.4201631546020508, 0.3954581916332245, 0.5692251920700073, -0.708984375, 0.2822265625, -0.64990234375, 0, 
76, 1022238270, 0.6525441408157349, 0.31187301874160767, -0.39618217945098877, 0.5656576752662659, 8.642422676086426, -0.4863218069076538, 4.8080339431762695, -0.28100094199180603, 0.6365137100219727, 0.595428466796875, -0.70751953125, 0.28173828125, -0.64599609375, 0, 
77, 1022246603, 0.6525379419326782, 0.3118635416030884, -0.39615949988365173, 0.5656859874725342, 8.651056289672852, -0.4815293848514557, 4.822561264038086, 0.07029826194047928, 0.8227676749229431, 0.38128066062927246, -0.71044921875, 0.28125, -0.6484375, 0, 
78, 1022254936, 0.6525347232818604, 0.31185445189476013, -0.39612698554992676, 0.5657172203063965, 8.631192207336426, -0.499533087015152, 4.837102890014648, 0.14988169074058533, 0.9614942669868469, 0.34516459703445435, -0.708984375, 0.28125, -0.65087890625, 0, 
79, 1022263269, 0.6525387167930603, 0.31185418367385864, -0.39607858657836914, 0.5657467246055603, 8.626729011535645, -0.503824770450592, 4.8424601554870605, 0.31543928384780884, 1.0424481630325317, 0.15161064267158508, -0.70654296875, 0.2841796875, -0.65185546875, 0, 
80, 1022271602, 0.6525418162345886, 0.3118607699871063, -0.3960230350494385, 0.565778374671936, 8.641772270202637, -0.4784897565841675, 4.814271450042725, 0.4459182024002075, 1.0817402601242065, 0.11475177109241486, -0.70751953125, 0.28173828125, -0.6513671875, 0, 
81, 1022279935, 0.6525449156761169, 0.31187233328819275, -0.39595216512680054, 0.5658180117607117, 8.627666473388672, -0.46599340438842773, 4.803999423980713, 0.6555706262588501, 1.1907800436019897, 0.0892655998468399, -0.7060546875, 0.28271484375, -0.6513671875, 0, 
82, 1022288268, 0.6525590419769287, 0.3118892014026642, -0.39587467908859253, 0.5658468008041382, 8.612380981445312, -0.47635072469711304, 4.775688648223877, 0.6450688242912292, 1.245978832244873, -0.14747394621372223, -0.70703125, 0.2861328125, -0.64892578125, 0, 
83, 1022296601, 0.65257328748703, 0.3119065463542938, -0.39578762650489807, 0.5658816695213318, 8.622079849243164, -0.4717228412628174, 4.776933193206787, 0.7606402635574341, 1.332887887954712, -0.14145459234714508, -0.70751953125, 0.28369140625, -0.6513671875, 0, 
84, 1022304934, 0.6525854468345642, 0.31192782521247864, -0.3957052528858185, 0.5659134984016418, 8.584519386291504, -0.45299646258354187, 4.799020767211914, 0.7475770115852356, 1.2578895092010498, -0.14916448295116425, -0.70947265625, 0.28173828125, -0.64990234375, 0, 
85, 1022313267, 0.6525945067405701, 0.31194496154785156, -0.3956260681152344, 0.565949022769928, 8.568405151367188, -0.4423673450946808, 4.799492835998535, 0.7230642437934875, 1.2366552352905273, -0.0591304637491703, -0.70751953125, 0.2841796875, -0.64892578125, 0, 
86, 1022321600, 0.6526008248329163, 0.3119659125804901, -0.3955443501472473, 0.5659873485565186, 8.57764720916748, -0.44034305214881897, 4.796245574951172, 0.8008034825325012, 1.251485824584961, -0.04140540584921837, -0.70751953125, 0.28173828125, -0.64892578125, 0, 
87, 1022329933, 0.6525943875312805, 0.3119904696941376, -0.3954775333404541, 0.5660279989242554, 8.55352783203125, -0.45459944009780884, 4.808699607849121, 0.7883548736572266, 1.0064600706100464, 0.11900373548269272, -0.70703125, 0.28271484375, -0.64990234375, 0, 
88, 1022338266, 0.6525775194168091, 0.31201183795928955, -0.39543452858924866, 0.5660654902458191, 8.566380500793457, -0.4914003014564514, 4.822432518005371, 0.5950698256492615, 0.7709628343582153, 0.29494789242744446, -0.70751953125, 0.28076171875, -0.65087890625, 0, 
89, 1022346599, 0.6525536775588989, 0.31202957034111023, -0.39539527893066406, 0.5661107301712036, 8.566774368286133, -0.4933387339115143, 4.819993495941162, 0.6113349795341492, 0.7366910576820374, 0.4504519999027252, -0.7099609375, 0.28125, -0.64990234375, 0, 
90, 1022354932, 0.6525340676307678, 0.3120405972003937, -0.39535054564476013, 0.5661584734916687, 8.575085639953613, -0.4874090254306793, 4.83156681060791, 0.5872319936752319, 0.8977020978927612, 0.45757272839546204, -0.70361328125, 0.2802734375, -0.65185546875, 0, 
91, 1022363265, 0.6525088548660278, 0.31205570697784424, -0.395305335521698, 0.5662107467651367, 8.580923080444336, -0.447589635848999, 4.843634128570557, 0.677611768245697, 0.8346526026725769, 0.513680636882782, -0.7080078125, 0.28173828125, -0.6484375, 0, 
92, 1022371598, 0.6524642705917358, 0.3120747208595276, -0.39528679847717285, 0.5662646889686584, 8.597208976745605, -0.4089709520339966, 4.8387980461120605, 0.5948137640953064, 0.48864269256591797, 0.7760087847709656, -0.7060546875, 0.28125, -0.65087890625, 0, 
93, 1022379931, 0.6524226069450378, 0.3120971620082855, -0.3952520489692688, 0.5663245320320129, 8.605871200561523, -0.3890860378742218, 4.808877944946289, 0.773959755897522, 0.6258326172828674, 0.7141504883766174, -0.7060546875, 0.28271484375, -0.65185546875, 0, 
94, 1022388264, 0.6523826122283936, 0.31211623549461365, -0.3952218294143677, 0.5663810968399048, 8.598382949829102, -0.38916516304016113, 4.802754878997803, 0.681287407875061, 0.6320313215255737, 0.7145090103149414, -0.70751953125, 0.28564453125, -0.65283203125, 0, 
95, 1022396597, 0.6523607969284058, 0.31212735176086426, -0.395177960395813, 0.5664306282997131, 8.577024459838867, -0.37169748544692993, 4.808913707733154, 0.6017808318138123, 0.8584610223770142, 0.4896160960197449, -0.70458984375, 0.28173828125, -0.650390625, 0, 
96, 1022404930, 0.652334988117218, 0.3121436536312103, -0.3951462507247925, 0.5664737224578857, 8.561202049255371, -0.3738365173339844, 4.799164295196533, 0.5343385934829712, 0.6847453713417053, 0.4898466467857361, -0.70947265625, 0.27978515625, -0.65283203125, 0, 
97, 1022413263, 0.6523162126541138, 0.312166303396225, -0.3951186537742615, 0.5665019750595093, 8.56126594543457, -0.3841438293457031, 4.7788004875183105, 0.4502982497215271, 0.5493741631507874, 0.28321656584739685, -0.70458984375, 0.27978515625, -0.65087890625, 0, 
98, 1022421596, 0.6523028612136841, 0.31218206882476807, -0.39510321617126465, 0.5665194988250732, 8.541016578674316, -0.39520886540412903, 4.763843536376953, 0.20862795412540436, 0.5011425018310547, 0.23731590807437897, -0.70703125, 0.28125, -0.64990234375, 0, 
99, 1022429929, 0.6523040533065796, 0.31218117475509644, -0.3950900733470917, 0.566527783870697, 8.520853042602539, -0.406767874956131, 4.784980297088623, -0.06745508313179016, 0.6257300972938538, 0.13785579800605774, -0.70703125, 0.28369140625, -0.65283203125, 0, 
100, 1022438262, 0.6522989273071289, 0.3121846914291382, -0.395092636346817, 0.5665298104286194, 8.549249649047852, -0.427110493183136, 4.783921718597412, -0.1590515822172165, 0.4138747751712799, 0.17876173555850983, -0.70703125, 0.28173828125, -0.64990234375, 0, 
101, 1022446595, 0.6522986888885498, 0.3121776282787323, -0.39509761333465576, 0.5665305256843567, 8.568096160888672, -0.406810998916626, 4.8021392822265625, -0.29921266436576843, 0.4702260196208954, 0.1917225420475006, -0.70556640625, 0.28125, -0.6484375, 0, 
102, 1022454928, 0.6523014307022095, 0.3121629059314728, -0.3951071500778198, 0.566528856754303, 8.565793991088867, -0.39141786098480225, 4.819299697875977, -0.42994770407676697, 0.5194823145866394, 0.21272625029087067, -0.70556640625, 0.2802734375, -0.6494140625, 0, 
103, 1022463261, 0.6522950530052185, 0.3121570348739624, -0.3951337933540344, 0.5665208101272583, 8.57249641418457, -0.35374385118484497, 4.857223987579346, -0.47881969809532166, 0.19561591744422913, 0.24681876599788666, -0.70703125, 0.2841796875, -0.6513671875, 0, 
104, 1022471594, 0.6522868275642395, 0.31215929985046387, -0.39516913890838623, 0.5665045380592346, 8.582681655883789, -0.340167760848999, 4.812325477600098, -0.5128737688064575, 0.03331131115555763, 0.18697111308574677, -0.7080078125, 0.2802734375, -0.65283203125, 0, 
105, 1022479927, 0.6522833704948425, 0.312155544757843, -0.39521247148513794, 0.5664803981781006, 8.598825454711914, -0.36737000942230225, 4.854419708251953, -0.6892662644386292, -0.023193690925836563, 0.14005865156650543, -0.705078125, 0.28369140625, -0.65234375, 0, 
106, 1022488260, 0.6522888541221619, 0.31216156482696533, -0.3952481746673584, 0.5664457082748413, 8.593732833862305, -0.4240705966949463, 4.837532043457031, -0.6417518854141235, -0.0037268707528710365, -0.10436520725488663, -0.70751953125, 0.28173828125, -0.65087890625, 0, 
107, 1022496593, 0.6523090600967407, 0.3121686577796936, -0.39527684450149536, 0.5663986206054688, 8.586215019226074, -0.414421409368515, 4.799586296081543, -0.7042250037193298, 0.05302146449685097, -0.3708557188510895, -0.7041015625, 0.2841796875, -0.64599609375, 0, 
108, 1022504926, 0.6523361802101135, 0.3121618628501892, -0.3953053951263428, 0.5663512945175171, 8.567397117614746, -0.4365452826023102, 4.8051371574401855, -0.8622136116027832, 0.22473931312561035, -0.3477516770362854, -0.70654296875, 0.28076171875, -0.6552734375, 0, 
109, 1022513259, 0.6523650884628296, 0.3121459186077118, -0.3953333795070648, 0.5663072466850281, 8.55457878112793, -0.4626099765300751, 4.807955741882324, -0.9257112145423889, 0.29925110936164856, -0.288915753364563, -0.70654296875, 0.28076171875, -0.6513671875, 0, 
110, 1022521592, 0.6523945331573486, 0.3121281564235687, -0.3953578472137451, 0.5662658214569092, 8.56904125213623, -0.46276748180389404, 4.830686569213867, -0.9068335294723511, 0.3834194839000702, -0.2723177373409271, -0.70751953125, 0.28125, -0.64404296875, 0, 
111, 1022529925, 0.6524072885513306, 0.31212225556373596, -0.3953907787799835, 0.5662314295768738, 8.555937767028809, -0.458118200302124, 4.86549186706543, -0.7535067796707153, 0.13119611144065857, -0.10971858352422714, -0.7080078125, 0.27880859375, -0.65283203125, 0, 
112, 1022538258, 0.6524000763893127, 0.31214815378189087, -0.3954145014286041, 0.5662088394165039, 8.554800033569336, -0.44743892550468445, 4.8443989753723145, -0.24772804975509644, -0.06786491721868515, -0.05836203321814537, -0.7080078125, 0.28125, -0.6513671875, 0, 
113, 1022546591, 0.65237957239151, 0.3121788203716278, -0.39544230699539185, 0.5661961436271667, 8.575386047363281, -0.45091521739959717, 4.860657215118408, -0.12419060617685318, -0.19539818167686462, 0.12289708852767944, -0.708984375, 0.27880859375, -0.6484375, 0, 
114, 1022554924, 0.6523464918136597, 0.31222978234291077, -0.39547282457351685, 0.566184937953949, 8.588688850402832, -0.4393351078033447, 4.855341911315918, 0.09467020630836487, -0.41662830114364624, 0.13900844752788544, -0.70947265625, 0.28173828125, -0.65283203125, 0, 
115, 1022563257, 0.6523073315620422, 0.31228384375572205, -0.39550331234931946, 0.5661790370941162, 8.595829010009766, -0.4417381286621094, 4.843469142913818, 0.1807340681552887, -0.47477269172668457, 0.2142118662595749, -0.7080078125, 0.28173828125, -0.64697265625, 0, 
116, 1022571590, 0.6522694230079651, 0.312333881855011, -0.39553913474082947, 0.5661700963973999, 8.600521087646484, -0.45634421706199646, 4.858218193054199, 0.08050553500652313, -0.47346627712249756, 0.22307434678077698, -0.70361328125, 0.27978515625, -0.64892578125, 0, 
117, 1022579923, 0.6522371768951416, 0.31239086389541626, -0.39556884765625, 0.5661550760269165, 8.610404968261719, -0.422418475151062, 4.82517147064209, 0.13544808328151703, -0.4900899827480316, 0.059886086732149124, -0.70947265625, 0.28271484375, -0.64794921875, 0, 
118, 1022588256, 0.6522234678268433, 0.31243568658828735, -0.395597368478775, 0.5661261677742004, 8.610491752624512, -0.40544459223747253, 4.828376293182373, -0.12426746636629105, -0.32244476675987244, -0.14719219505786896, -0.7060546875, 0.28173828125, -0.64990234375, 0, 
119, 1022596589, 0.6522180438041687, 0.3124726414680481, -0.3956243097782135, 0.5660932660102844, 8.586043357849121, -0.40095260739326477, 4.84288215637207, -0.2354588806629181, -0.2415294200181961, -0.21430151164531708, -0.70654296875, 0.28173828125, -0.64990234375, 0, 
120, 1022604922, 0.6522176861763, 0.3125012516975403, -0.39564433693885803, 0.5660638809204102, 8.572553634643555, -0.3934135138988495, 4.811245441436768, -0.2617262303829193, -0.04766809567809105, -0.20158401131629944, -0.70751953125, 0.28369140625, -0.650390625, 0, 
121, 1022613255, 0.6522228121757507, 0.3125183880329132, -0.39566147327423096, 0.5660365223884583, 8.556602478027344, -0.3912678062915802, 4.8220601081848145, -0.35259273648262024, 0.08176063001155853, -0.18118228018283844, -0.70703125, 0.28271484375, -0.64990234375, 0, 
122, 1022621588, 0.652245044708252, 0.31251877546310425, -0.3956798315048218, 0.5659976601600647, 8.576187133789062, -0.3799806833267212, 4.8346710205078125, -0.6512547731399536, 0.2675918936729431, -0.31657910346984863, -0.70947265625, 0.28173828125, -0.6513671875, 0, 
123, 1022629921, 0.6522828936576843, 0.31250232458114624, -0.3956977128982544, 0.5659505724906921, 8.521088600158691, -0.37749817967414856, 4.846473693847656, -0.9070128202438354, 0.4308570325374603, -0.4278729557991028, -0.7060546875, 0.28173828125, -0.64697265625, 0, 
124, 1022638254, 0.6523135900497437, 0.3124772310256958, -0.3957342505455017, 0.5659034848213196, 8.539751052856445, -0.3927055597305298, 4.813283443450928, -1.102398157119751, 0.31418415904045105, -0.23835325241088867, -0.70654296875, 0.28125, -0.64794921875, 0, 
125, 1022646587, 0.652357816696167, 0.31244003772735596, -0.39576590061187744, 0.5658509135246277, 8.544185638427734, -0.41823387145996094, 4.82146692276001, -1.2584912776947021, 0.4789861738681793, -0.35320743918418884, -0.70654296875, 0.2802734375, -0.64892578125, 0, 
126, 1022654920, 0.6524003744125366, 0.31240159273147583, -0.39580562710762024, 0.5657952427864075, 8.545215606689453, -0.40782666206359863, 4.833604335784912, -1.3440173864364624, 0.41697415709495544, -0.3233413100242615, -0.705078125, 0.28515625, -0.6513671875, 0, 
127, 1022663253, 0.6524483561515808, 0.31236547231674194, -0.3958515226840973, 0.5657277703285217, 8.568426132202148, -0.4200006425380707, 4.824885845184326, -1.456271767616272, 0.29964813590049744, -0.46062082052230835, -0.7080078125, 0.279296875, -0.65087890625, 0, 
128, 1022671586, 0.6524935364723206, 0.3123440146446228, -0.3958924412727356, 0.5656591057777405, 8.56974983215332, -0.41899922490119934, 4.8092427253723145, -1.2823255062103271, 0.23256444931030273, -0.5467358827590942, -0.70703125, 0.2841796875, -0.6455078125, 0, 
129, 1022679919, 0.6525383591651917, 0.312338650226593, -0.3959227502346039, 0.565589189529419, 8.557188987731934, -0.43588709831237793, 4.8097147941589355, -1.0581880807876587, 0.17302414774894714, -0.6929803490638733, -0.70751953125, 0.28076171875, -0.650390625, 0, 
130, 1022688252, 0.6525861024856567, 0.3123452961444855, -0.3959452509880066, 0.5655144453048706, 8.564306259155273, -0.44272521138191223, 4.823584079742432, -0.9323196411132812, 0.1665949672460556, -0.8532229065895081, -0.7099609375, 0.283203125, -0.64892578125, 0, 
131, 1022696585, 0.652624249458313, 0.3123500943183899, -0.39597535133361816, 0.565446674823761, 8.56601619720459, -0.4630321264266968, 4.842839241027832, -0.9267870187759399, 0.06772403419017792, -0.6783033013343811, -0.70849609375, 0.2822265625, -0.6513671875, 0, 
132, 1022704918, 0.6526649594306946, 0.3123536705970764, -0.39599889516830444, 0.5653812885284424, 8.5687837600708, -0.45962023735046387, 4.807840824127197, -0.8850614428520203, 0.18319301307201385, -0.6936207413673401, -0.7099609375, 0.2802734375, -0.65185546875, 0, 
133, 1022713251, 0.6527060270309448, 0.31235194206237793, -0.39602312445640564, 0.5653178691864014, 8.564371109008789, -0.46150848269462585, 4.785738468170166, -0.9279909133911133, 0.2058359980583191, -0.6502813696861267, -0.70947265625, 0.27880859375, -0.65087890625, 0, 
134, 1022721584, 0.6527426838874817, 0.31234753131866455, -0.3960510790348053, 0.5652585029602051, 8.56352710723877, -0.4628746807575226, 4.794357776641846, -0.941335916519165, 0.20934514701366425, -0.5462107062339783, -0.7080078125, 0.28125, -0.64501953125, 0, 
135, 1022729917, 0.6527706980705261, 0.3123416304588318, -0.39609506726264954, 0.5651986002922058, 8.607452392578125, -0.481021523475647, 4.803541660308838, -1.0438696146011353, 0.00427757715806365, -0.4093795120716095, -0.7099609375, 0.28125, -0.650390625, 0, 
136, 1022738250, 0.6528008580207825, 0.31233739852905273, -0.3961294889450073, 0.5651418566703796, 8.590800285339355, -0.48622164130210876, 4.80944299697876, -0.9474833011627197, 0.12635502219200134, -0.4448296129703522, -0.7060546875, 0.28369140625, -0.64990234375, 0, 
137, 1022746583, 0.6528305411338806, 0.3123193383216858, -0.3961574137210846, 0.5650979280471802, 8.601980209350586, -0.4673594534397125, 4.809600830078125, -0.9492507576942444, 0.32035723328590393, -0.283690482378006, -0.7080078125, 0.27783203125, -0.6474609375, 0, 
138, 1022754916, 0.6528553366661072, 0.31231367588043213, -0.39618241786956787, 0.5650550127029419, 8.644174575805664, -0.45834702253341675, 4.815415382385254, -0.7894946932792664, 0.25319668650627136, -0.3108159303665161, -0.70947265625, 0.2822265625, -0.64892578125, 0, 
139, 1022763249, 0.6528834700584412, 0.3123193383216858, -0.3961961567401886, 0.5650097131729126, 8.632722854614258, -0.4251289963722229, 4.818763256072998, -0.624782383441925, 0.24985402822494507, -0.47329989075660706, -0.70849609375, 0.28271484375, -0.64599609375, 0, 
140, 1022771582, 0.6529131531715393, 0.3123403489589691, -0.396203875541687, 0.5649584531784058, 8.590607643127441, -0.4264739453792572, 4.779164791107178, -0.48299485445022583, 0.19033938646316528, -0.6444157361984253, -0.7099609375, 0.2822265625, -0.64990234375, 0, 
141, 1022779915, 0.6529537439346313, 0.31235238909721375, -0.3961957097053528, 0.5649105906486511, 8.600120544433594, -0.45575055480003357, 4.786367893218994, -0.46521854400634766, 0.4546014368534088, -0.7204899787902832, -0.7099609375, 0.28271484375, -0.64990234375, 0, 
142, 1022788248, 0.6530030965805054, 0.3123682141304016, -0.3961907625198364, 0.5648481249809265, 8.592368125915527, -0.45937681198120117, 4.864748001098633, -0.576602041721344, 0.40271979570388794, -0.923751711845398, -0.70947265625, 0.2802734375, -0.65087890625, 0, 
143, 1022796581, 0.6530635952949524, 0.3123810589313507, -0.39617422223091125, 0.5647827386856079, 8.606579780578613, -0.4807068109512329, 4.844942569732666, -0.5731569528579712, 0.5565972328186035, -1.0743762254714966, -0.71044921875, 0.2783203125, -0.64697265625, 0, 
144, 1022804914, 0.6531211733818054, 0.31239432096481323, -0.396144300699234, 0.5647298097610474, 8.614533424377441, -0.47453391551971436, 4.795502185821533, -0.3885807394981384, 0.7340014576911926, -0.9949209094047546, -0.70751953125, 0.28076171875, -0.64599609375, 0, 
145, 1022813247, 0.6531807780265808, 0.3123990297317505, -0.3961074650287628, 0.5646841526031494, 8.577560424804688, -0.46391910314559937, 4.82437801361084, -0.3777458965778351, 0.882333517074585, -0.9331393837928772, -0.7099609375, 0.28173828125, -0.64794921875, 0, 
146, 1022821580, 0.6532268524169922, 0.3124067783355713, -0.39606913924217224, 0.5646533370018005, 8.5545654296875, -0.44933411478996277, 4.812397480010986, -0.2025957852602005, 0.8834861516952515, -0.7124727964401245, -0.70703125, 0.2802734375, -0.64990234375, 0, 
147, 1022829913, 0.6532738208770752, 0.3124184012413025, -0.3960173726081848, 0.5646289587020874, 8.55628776550293, -0.42539387941360474, 4.8135271072387695, -0.029853392392396927, 0.9839964509010315, -0.7460017800331116, -0.70751953125, 0.28564453125, -0.64599609375, 0, 
148, 1022838246, 0.6533289551734924, 0.31241467595100403, -0.3959774374961853, 0.5645952224731445, 8.534228324890137, -0.3830418884754181, 4.817224979400635, -0.3462660014629364, 1.0246717929840088, -0.753890872001648, -0.7080078125, 0.2822265625, -0.64501953125, 0, 
149, 1022846579, 0.6533927321434021, 0.3124088644981384, -0.3959408104419708, 0.5645503401756287, 8.522547721862793, -0.39847058057785034, 4.819721698760986, -0.4879639744758606, 0.9874032139778137, -0.8993542790412903, -0.712890625, 0.283203125, -0.64990234375, 0, 
150, 1022854912, 0.6534568071365356, 0.3123907148838043, -0.39592522382736206, 0.5644972324371338, 8.529958724975586, -0.4101797938346863, 4.813770294189453, -0.8077064156532288, 0.8839728236198425, -0.8166714310646057, -0.7109375, 0.28271484375, -0.6474609375, 0, 
151, 1022863245, 0.6535341143608093, 0.312370628118515, -0.3959041237831116, 0.5644336342811584, 8.536002159118652, -0.42811912298202515, 4.845529079437256, -0.8975099325180054, 0.9509285092353821, -1.0283218622207642, -0.7099609375, 0.2802734375, -0.64794921875, 0, 
152, 1022871578, 0.6536110639572144, 0.3123660087585449, -0.39589542150497437, 0.5643531680107117, 8.546823501586914, -0.4379831552505493, 4.794751167297363, -0.9466381072998047, 0.6697353720664978, -1.2043428421020508, -0.708984375, 0.28125, -0.6484375, 0, 
153, 1022879911, 0.6536806225776672, 0.3123582601547241, -0.39589670300483704, 0.5642759799957275, 8.555837631225586, -0.4591481387615204, 4.830986976623535, -1.0009914636611938, 0.5538821816444397, -1.060826301574707, -0.70849609375, 0.28369140625, -0.64501953125, 0, 
154, 1022888244, 0.65374755859375, 0.3123570680618286, -0.395892858505249, 0.5642017722129822, 8.552067756652832, -0.47306758165359497, 4.828240394592285, -0.8764806985855103, 0.5718890428543091, -1.0699193477630615, -0.7099609375, 0.2841796875, -0.64892578125, 0, 
155, 1022896577, 0.6538040637969971, 0.3123660087585449, -0.39589372277259827, 0.5641309022903442, 8.573432922363281, -0.5093181729316711, 4.826845645904541, -0.756477952003479, 0.3841622471809387, -0.9955099821090698, -0.70458984375, 0.28125, -0.650390625, 0, 
156, 1022904910, 0.6538524031639099, 0.31238481402397156, -0.3959066569805145, 0.5640552043914795, 8.570579528808594, -0.4977019727230072, 4.801939487457275, -0.7544545531272888, 0.15716895461082458, -0.9757359623908997, -0.708984375, 0.28076171875, -0.6484375, 0, 
157, 1022913243, 0.6538860201835632, 0.3124030828475952, -0.3959125280380249, 0.5640020370483398, 8.5842924118042, -0.4940609931945801, 4.811037540435791, -0.5172666907310486, 0.21874558925628662, -0.6892150640487671, -0.708984375, 0.28564453125, -0.64794921875, 0, 
158, 1022921576, 0.6539058685302734, 0.3124271631240845, -0.3959199786186218, 0.5639603734016418, 8.541424751281738, -0.4864004850387573, 4.7903947830200195, -0.35459062457084656, 0.15786051750183105, -0.5011553168296814, -0.71044921875, 0.2822265625, -0.6494140625, 0, 
159, 1022929909, 0.6539283394813538, 0.3124481439590454, -0.3959208130836487, 0.5639221668243408, 8.547690391540527, -0.47896867990493774, 4.784472465515137, -0.32528796792030334, 0.24546121060848236, -0.504510760307312, -0.71044921875, 0.27978515625, -0.646484375, 0, 
160, 1022938242, 0.6539402604103088, 0.3124726116657257, -0.3959316909313202, 0.5638870000839233, 8.551616668701172, -0.4544060528278351, 4.827432632446289, -0.30991944670677185, 0.10847628116607666, -0.36831989884376526, -0.70556640625, 0.2802734375, -0.6494140625, 0, 
161, 1022946575, 0.6539431214332581, 0.3124981224536896, -0.3959429860115051, 0.563861608505249, 8.553927421569824, -0.40512987971305847, 4.832403659820557, -0.21071550250053406, 0.06600788235664368, -0.21478815376758575, -0.7080078125, 0.28076171875, -0.64599609375, 0, 
162, 1022954908, 0.653947651386261, 0.312514066696167, -0.39596566557884216, 0.5638315677642822, 8.590278625488281, -0.404657781124115, 4.795974254608154, -0.41980448365211487, 0.049563538283109665, -0.16960464417934418, -0.7099609375, 0.28271484375, -0.64599609375, 0, 
163, 1022963241, 0.6539570689201355, 0.3125111758708954, -0.396005243062973, 0.5637944936752319, 8.590264320373535, -0.39836329221725464, 4.792397499084473, -0.7771486639976501, 0.01831417717039585, -0.09591250121593475, -0.7109375, 0.28173828125, -0.64892578125, 0, 
164, 1022971574, 0.6539621949195862, 0.3125113844871521, -0.3960387110710144, 0.5637650489807129, 8.585371017456055, -0.4320102632045746, 4.834034442901611, -0.6438009738922119, 0.07996763288974762, -0.036410633474588394, -0.7099609375, 0.2802734375, -0.6474609375, 0, 
165, 1022979907, 0.6539717316627502, 0.3125106990337372, -0.39606982469558716, 0.5637325644493103, 8.585671424865723, -0.45354750752449036, 4.796745777130127, -0.6676734685897827, 0.09677058458328247, -0.10451889038085938, -0.708984375, 0.28125, -0.64599609375, 0, 
166, 1022988240, 0.6539734601974487, 0.31250542402267456, -0.39609816670417786, 0.5637134313583374, 8.577689170837402, -0.46145135164260864, 4.854104995727539, -0.5816608667373657, 0.19377167522907257, 0.09175018966197968, -0.71240234375, 0.28125, -0.646484375, 0, 
167, 1022996573, 0.6539750099182129, 0.31250807642936707, -0.3961268663406372, 0.5636899471282959, 8.57380485534668, -0.48610010743141174, 4.8339691162109375, -0.5353502631187439, 0.08844595402479172, 0.010117622092366219, -0.7099609375, 0.28125, -0.6513671875, 0, 
168, 1023004906, 0.6539726257324219, 0.31252169609069824, -0.39615771174430847, 0.5636634826660156, 8.57968521118164, -0.514840304851532, 4.806217670440674, -0.4528980553150177, -0.02870074473321438, -0.034822553396224976, -0.70947265625, 0.2822265625, -0.6474609375, 0, 
169, 1023013239, 0.6539652943611145, 0.3125385344028473, -0.39619842171669006, 0.5636342167854309, 8.566366195678711, -0.5266852974891663, 4.807991027832031, -0.4934197962284088, -0.2040558159351349, 0.0016649252502247691, -0.71044921875, 0.28125, -0.6455078125, 0, 
170, 1023021572, 0.6539431214332581, 0.3125830888748169, -0.3962383270263672, 0.5636070966720581, 8.569070816040039, -0.5526359677314758, 4.821925163269043, -0.16553199291229248, -0.4598396122455597, -0.019018571823835373, -0.708984375, 0.283203125, -0.64892578125, 0, 
171, 1023029905, 0.6539154052734375, 0.3126349449157715, -0.39625614881515503, 0.5635979771614075, 8.590986251831055, -0.4897909164428711, 4.850879192352295, 0.19523170590400696, -0.29401302337646484, 0.05189444124698639, -0.7080078125, 0.28076171875, -0.6474609375, 0, 
172, 1023038238, 0.6538808941841125, 0.31269192695617676, -0.39626261591911316, 0.5636019110679626, 8.597638130187988, -0.42712485790252686, 4.868275165557861, 0.43037036061286926, -0.18958374857902527, 0.14523270726203918, -0.70849609375, 0.28076171875, -0.64697265625, 0, 
173, 1023046571, 0.6538559794425964, 0.31274867057800293, -0.3962554931640625, 0.5636042952537537, 8.591343879699707, -0.36804237961769104, 4.8532538414001465, 0.4839297831058502, -0.04235313832759857, -0.0003714064368978143, -0.7080078125, 0.28076171875, -0.6484375, 0, 
174, 1023054904, 0.6538321375846863, 0.3128059208393097, -0.3962455093860626, 0.5636072158813477, 8.599570274353027, -0.3272210955619812, 4.835543632507324, 0.5080327391624451, 0.0086063826456666, -0.017584173008799553, -0.70849609375, 0.28125, -0.6494140625, 0, 
175, 1023063237, 0.6538143157958984, 0.31286564469337463, -0.3962162137031555, 0.5636152029037476, 8.596258163452148, -0.2804701328277588, 4.817139148712158, 0.6822863221168518, 0.1968453824520111, -0.11706985533237457, -0.7099609375, 0.279296875, -0.6494140625, 0, 
176, 1023071570, 0.6538105607032776, 0.3129221498966217, -0.39618146419525146, 0.563612699508667, 8.582589149475098, -0.3176148533821106, 4.795273303985596, 0.5772168040275574, 0.32507026195526123, -0.325749009847641, -0.70751953125, 0.28173828125, -0.64794921875, 0, 
177, 1023079903, 0.6538194417953491, 0.3129662871360779, -0.3961569666862488, 0.5635951161384583, 8.559263229370117, -0.335632860660553, 4.792125701904297, 0.25140371918678284, 0.3103676736354828, -0.44792893528938293, -0.71142578125, 0.28125, -0.6494140625, 0, 
178, 1023088236, 0.6538349986076355, 0.3129960000514984, -0.39614975452423096, 0.5635655522346497, 8.5502290725708, -0.3823695182800293, 4.805286884307861, -0.10736207664012909, 0.2729965150356293, -0.4534360468387604, -0.70751953125, 0.28125, -0.64599609375, 0, 
179, 1023096569, 0.6538467407226562, 0.3130250573158264, -0.3961566686630249, 0.5635308623313904, 8.541667938232422, -0.4108807444572449, 4.81385612487793, -0.23445987701416016, 0.08567961305379868, -0.4075096547603607, -0.708984375, 0.27978515625, -0.6484375, 0, 
180, 1023104902, 0.6538540720939636, 0.31303784251213074, -0.39617133140563965, 0.5635049939155579, 8.538090705871582, -0.39412879943847656, 4.809485912322998, -0.3728792071342468, 0.1787361353635788, -0.16980957984924316, -0.70849609375, 0.283203125, -0.65234375, 0, 
181, 1023113235, 0.653849720954895, 0.3130563199520111, -0.3961870074272156, 0.5634886622428894, 8.54797649383545, -0.3776699900627136, 4.812840938568115, -0.22733913362026215, 0.08009570837020874, -0.02283509075641632, -0.7138671875, 0.27978515625, -0.64794921875, 0, 
182, 1023121568, 0.6538366675376892, 0.3130864202976227, -0.3962125778198242, 0.563469409942627, 8.55309772491455, -0.339767187833786, 4.790931224822998, -0.17864647507667542, -0.13494859635829926, 0.000640355865471065, -0.70947265625, 0.28125, -0.65087890625, 0, 
183, 1023129901, 0.6538230776786804, 0.3131087124347687, -0.3962284028530121, 0.5634616613388062, 8.5726318359375, -0.30715736746788025, 4.8077192306518555, -0.10743890702724457, 0.036295369267463684, 0.10678573697805405, -0.70849609375, 0.2822265625, -0.64697265625, 0, 
184, 1023138234, 0.6538141369819641, 0.3131170868873596, -0.3962550759315491, 0.563448429107666, 8.588833808898926, -0.2719725966453552, 4.814563274383545, -0.3669879734516144, 0.0701061561703682, 0.14554008841514587, -0.7099609375, 0.27978515625, -0.6494140625, 0, 
185, 1023146567, 0.6538153886795044, 0.3131128251552582, -0.3962845802307129, 0.5634286403656006, 8.58411979675293, -0.27803829312324524, 4.752584457397461, -0.5822243690490723, 0.14794781804084778, 0.08701156079769135, -0.70947265625, 0.28271484375, -0.6484375, 0, 
186, 1023154900, 0.6538322567939758, 0.31310051679611206, -0.39630958437919617, 0.5633983016014099, 8.598281860351562, -0.26155799627304077, 4.779114723205566, -0.7430304884910583, 0.3127754330635071, -0.10357114672660828, -0.70849609375, 0.28076171875, -0.64599609375, 0, 
187, 1023163233, 0.6538586020469666, 0.3130955696105957, -0.3963428735733032, 0.5633469820022583, 8.584298133850098, -0.2872224450111389, 4.7831268310546875, -0.8981503844261169, 0.12059180438518524, -0.37029218673706055, -0.7060546875, 0.27978515625, -0.64697265625, 0, 
188, 1023171566, 0.6538960933685303, 0.31307557225227356, -0.3963812589645386, 0.5632877349853516, 8.581551551818848, -0.3226790428161621, 4.784036159515381, -1.1657934188842773, 0.23980045318603516, -0.42336487770080566, -0.7109375, 0.28125, -0.64892578125, 0, 
189, 1023179899, 0.6539467573165894, 0.31305739283561707, -0.3964199125766754, 0.5632118582725525, 8.574313163757324, -0.38201189041137695, 4.791439056396484, -1.2961698770523071, 0.20140472054481506, -0.6844506859779358, -0.71142578125, 0.28173828125, -0.64892578125, 0, 
190, 1023188232, 0.6540031433105469, 0.31302884221076965, -0.39645659923553467, 0.5631363391876221, 8.570393562316895, -0.45620831847190857, 4.83532190322876, -1.3978073596954346, 0.3552694320678711, -0.6755626797676086, -0.70751953125, 0.28125, -0.64794921875, 0, 
191, 1023196565, 0.6540493369102478, 0.3130064308643341, -0.39648985862731934, 0.5630718469619751, 8.581737518310547, -0.48235195875167847, 4.811953544616699, -1.2114380598068237, 0.30749887228012085, -0.5484904050827026, -0.70849609375, 0.2841796875, -0.646484375, 0, 
192, 1023204898, 0.6540840864181519, 0.3129952847957611, -0.396528422832489, 0.5630103945732117, 8.589856147766113, -0.4873161017894745, 4.803741931915283, -1.0858515501022339, 0.14574500918388367, -0.4701620936393738, -0.7138671875, 0.28125, -0.6494140625, 0, 
193, 1023213231, 0.6541030406951904, 0.31298965215682983, -0.39656805992126465, 0.5629637241363525, 8.598668098449707, -0.46519944071769714, 4.824749946594238, -0.896741509437561, 0.04754001647233963, -0.23976202309131622, -0.708984375, 0.28271484375, -0.64697265625, 0, 
194, 1023221564, 0.6541091203689575, 0.31298986077308655, -0.3965862989425659, 0.5629434585571289, 8.612401962280273, -0.45938417315483093, 4.8319244384765625, -0.47807684540748596, 0.2609834372997284, -0.026933366432785988, -0.70751953125, 0.279296875, -0.646484375, 0, 
195, 1023229897, 0.6541004180908203, 0.31300467252731323, -0.39659419655799866, 0.5629398226737976, 8.613167762756348, -0.4016607403755188, 4.830750942230225, -0.11210069805383682, 0.21042093634605408, 0.11283069849014282, -0.7099609375, 0.28564453125, -0.6435546875, 0, 
196, 1023238230, 0.6540797352790833, 0.3130421042442322, -0.39660465717315674, 0.5629356503486633, 8.624783515930176, -0.40266913175582886, 4.796060085296631, 0.12074550241231918, -0.03382359817624092, 0.08900946378707886, -0.71044921875, 0.27783203125, -0.6494140625, 0, 
197, 1023246563, 0.6540462970733643, 0.3130851686000824, -0.3966110646724701, 0.562946081161499, 8.616229057312012, -0.3787287175655365, 4.771389961242676, 0.3362124264240265, -0.06991405040025711, 0.27066558599472046, -0.70703125, 0.279296875, -0.646484375, 0, 
198, 1023254896, 0.6540165543556213, 0.3131330609321594, -0.396612286567688, 0.562952995300293, 8.61007022857666, -0.35817861557006836, 4.800516128540039, 0.3839573562145233, -0.03197937458753586, 0.1609342247247696, -0.71044921875, 0.27783203125, -0.646484375, 0, 
199, 1023263229, 0.653984546661377, 0.313179612159729, -0.39659973978996277, 0.562973141670227, 8.610219955444336, -0.36513832211494446, 4.78804874420166, 0.5622836351394653, 0.12279465049505234, 0.24576856195926666, -0.7138671875, 0.28173828125, -0.6484375, 0, 
200, 1023271562, 0.6539549231529236, 0.31322532892227173, -0.39659157395362854, 0.5629879236221313, 8.594963073730469, -0.37815651297569275, 4.783614158630371, 0.4820983409881592, 0.10482626408338547, 0.20308247208595276, -0.71044921875, 0.27880859375, -0.6474609375, 0, 
201, 1023279895, 0.6539247035980225, 0.31325969099998474, -0.3965762257575989, 0.5630147457122803, 8.600643157958984, -0.3949015438556671, 4.746483325958252, 0.5028330683708191, 0.2818078100681305, 0.34676551818847656, -0.7138671875, 0.2822265625, -0.64599609375, 0, 
202, 1023288228, 0.6539000272750854, 0.31327924132347107, -0.3965686857700348, 0.5630378723144531, 8.597360610961914, -0.41401416063308716, 4.787705898284912, 0.26395466923713684, 0.3623901903629303, 0.38608336448669434, -0.7109375, 0.2802734375, -0.6474609375, 0, 
203, 1023296561, 0.6538790464401245, 0.31330785155296326, -0.3965519070625305, 0.5630581378936768, 8.600893020629883, -0.4415736198425293, 4.765910625457764, 0.38587841391563416, 0.3600592613220215, 0.23987731337547302, -0.71240234375, 0.28271484375, -0.6474609375, 0, 
204, 1023304894, 0.6538572907447815, 0.31332966685295105, -0.396544486284256, 0.563076376914978, 8.603704452514648, -0.44841888546943665, 4.795294761657715, 0.24459032714366913, 0.3403363525867462, 0.3067304491996765, -0.71240234375, 0.27734375, -0.646484375, 0, 
205, 1023313227, 0.6538386344909668, 0.31335389614105225, -0.39652881026268005, 0.5630956888198853, 8.57323932647705, -0.4426175057888031, 4.787726402282715, 0.32258567214012146, 0.39256376028060913, 0.24272051453590393, -0.70947265625, 0.28271484375, -0.64404296875, 0, 
206, 1023321560, 0.6538183689117432, 0.3133782744407654, -0.39651423692703247, 0.5631159543991089, 8.571443557739258, -0.4139345586299896, 4.787054061889648, 0.32987290620803833, 0.40105485916137695, 0.26983314752578735, -0.7109375, 0.28125, -0.64794921875, 0, 
207, 1023329893, 0.6537981033325195, 0.3134151101112366, -0.39651089906692505, 0.5631213784217834, 8.565593719482422, -0.3860603868961334, 4.766354084014893, 0.2711522579193115, 0.11534089595079422, 0.11388088017702103, -0.71240234375, 0.28515625, -0.64990234375, 0, 
208, 1023338226, 0.6537789106369019, 0.3134489059448242, -0.3965020775794983, 0.5631310343742371, 8.567546844482422, -0.3656819462776184, 4.765288352966309, 0.30867713689804077, 0.23729027807712555, 0.141697958111763, -0.70849609375, 0.28125, -0.64501953125, 0, 
209, 1023346559, 0.6537652611732483, 0.3134710490703583, -0.39648890495300293, 0.5631437301635742, 8.544994354248047, -0.36440131068229675, 4.778928756713867, 0.22788985073566437, 0.38598087430000305, 0.16603146493434906, -0.71240234375, 0.2822265625, -0.64794921875, 0, 
210, 1023354892, 0.6537530422210693, 0.31348881125450134, -0.39648425579071045, 0.5631514191627502, 8.565916061401367, -0.36022433638572693, 4.764608860015869, 0.0897778868675232, 0.3516065776348114, 0.1729985475540161, -0.70849609375, 0.2802734375, -0.64501953125, 0, 
211, 1023363225, 0.653734564781189, 0.3135117292404175, -0.3964883089065552, 0.563157320022583, 8.57165241241455, -0.3682784140110016, 4.780874252319336, 0.08398907631635666, 0.1690027266740799, 0.21367394924163818, -0.7099609375, 0.28369140625, -0.6455078125, 0, 
212, 1023371558, 0.6537224650382996, 0.3135363757610321, -0.39648663997650146, 0.5631586909294128, 8.59524917602539, -0.3678707182407379, 4.748686790466309, 0.09328705072402954, 0.24589665234088898, 0.08954737335443497, -0.7080078125, 0.28173828125, -0.64404296875, 0, 
213, 1023379891, 0.6537054181098938, 0.31355780363082886, -0.3964890241622925, 0.5631648898124695, 8.597058296203613, -0.4002012014389038, 4.777477264404297, 0.07937850803136826, 0.20534931123256683, 0.20634825527668, -0.7119140625, 0.2822265625, -0.64990234375, 0, 
214, 1023388224, 0.653693437576294, 0.3135770857334137, -0.3965021073818207, 0.5631588101387024, 8.614920616149902, -0.39508718252182007, 4.753673076629639, -0.11088401824235916, 0.12257690727710724, 0.11340702325105667, -0.71044921875, 0.28076171875, -0.6474609375, 0, 
215, 1023396557, 0.653684139251709, 0.31358933448791504, -0.3965233564376831, 0.5631478428840637, 8.60673713684082, -0.38764116168022156, 4.763664722442627, -0.27592936158180237, 0.0760742649435997, 0.12374236434698105, -0.71240234375, 0.28076171875, -0.6474609375, 0, 
216, 1023404890, 0.6536791920661926, 0.31359732151031494, -0.3965451717376709, 0.5631337761878967, 8.624247550964355, -0.39796972274780273, 4.742378234863281, -0.3552822470664978, 0.13601158559322357, 0.08639681339263916, -0.70947265625, 0.27880859375, -0.64794921875, 0, 
217, 1023413223, 0.6536831855773926, 0.3136069178581238, -0.396562397480011, 0.5631117224693298, 8.634525299072266, -0.4079838693141937, 4.766396999359131, -0.3876073956489563, 0.15506857633590698, -0.0823625698685646, -0.7109375, 0.2802734375, -0.65087890625, 0, 
218, 1023421556, 0.6536846160888672, 0.3136209547519684, -0.39658528566360474, 0.5630860924720764, 8.64783763885498, -0.3930630385875702, 4.782168865203857, -0.3972127437591553, 0.06411242485046387, -0.09394020587205887, -0.7099609375, 0.2802734375, -0.6484375, 0, 
219, 1023429889, 0.6536784172058105, 0.3136352002620697, -0.39660578966140747, 0.5630709528923035, 8.652235984802246, -0.4119250774383545, 4.764008045196533, -0.2880961298942566, 0.06475278735160828, 0.04702773690223694, -0.7119140625, 0.28076171875, -0.64697265625, 0, 
220, 1023438222, 0.6536714434623718, 0.3136560916900635, -0.39661309123039246, 0.5630622506141663, 8.67561149597168, -0.4278043806552887, 4.773678779602051, -0.08684506267309189, 0.1771736592054367, 0.018493475392460823, -0.7099609375, 0.2802734375, -0.64794921875, 0, 
221, 1023446555, 0.6536688804626465, 0.31367403268814087, -0.39661845564842224, 0.5630514025688171, 8.682464599609375, -0.42818382382392883, 4.780874252319336, -0.12990258634090424, 0.21198339760303497, -0.026856524869799614, -0.7109375, 0.27978515625, -0.64794921875, 0, 
222, 1023454888, 0.6536643505096436, 0.31368792057037354, -0.39661872386932373, 0.563048779964447, 8.668931007385254, -0.4321533143520355, 4.75922966003418, -0.07401233911514282, 0.33503416180610657, 0.06214013323187828, -0.71240234375, 0.28076171875, -0.6484375, 0, 
223, 1023463221, 0.6536656618118286, 0.3136960566043854, -0.3965998589992523, 0.5630559921264648, 8.66397476196289, -0.40880653262138367, 4.752821445465088, 0.050767410546541214, 0.6030102372169495, 0.05422533303499222, -0.71044921875, 0.27978515625, -0.646484375, 0, 
224, 1023471554, 0.6536691784858704, 0.3137001097202301, -0.39657658338546753, 0.5630660057067871, 8.651735305786133, -0.43163830041885376, 4.746662139892578, 0.054097265005111694, 0.7225775718688965, 0.06493207812309265, -0.71044921875, 0.28076171875, -0.64453125, 0, 
225, 1023479887, 0.6536733508110046, 0.31370362639427185, -0.3965441584587097, 0.5630819797515869, 8.615500450134277, -0.4468168318271637, 4.7654032707214355, 0.15045800805091858, 0.814788818359375, 0.0760742723941803, -0.708984375, 0.28271484375, -0.6513671875, 0, 
226, 1023488220, 0.653683066368103, 0.31370189785957336, -0.39650529623031616, 0.5630990862846375, 8.579699516296387, -0.42556554079055786, 4.789064407348633, 0.1355249136686325, 0.9699597358703613, 0.0451066680252552, -0.70947265625, 0.2802734375, -0.64990234375, 0, 
227, 1023496553, 0.653689980506897, 0.31371065974235535, -0.3964613676071167, 0.5631170868873596, 8.56313419342041, -0.42424240708351135, 4.785059452056885, 0.28534260392189026, 0.90226149559021, -0.003317043650895357, -0.708984375, 0.28125, -0.64794921875, 0, 
228, 1023504886, 0.6536865830421448, 0.31373515725135803, -0.39643049240112305, 0.5631291270256042, 8.580021858215332, -0.4155084490776062, 4.790201187133789, 0.34056687355041504, 0.6027798652648926, -0.007645849138498306, -0.7119140625, 0.28173828125, -0.64697265625, 0, 
229, 1023513219, 0.6536722779273987, 0.3137625753879547, -0.3964112401008606, 0.5631440281867981, 8.610735893249512, -0.41239678859710693, 4.770066261291504, 0.3352903425693512, 0.40514039993286133, 0.13680563867092133, -0.71142578125, 0.28076171875, -0.64697265625, 0, 
230, 1023521552, 0.6536514163017273, 0.31378358602523804, -0.39639440178871155, 0.5631685256958008, 8.605985641479492, -0.37003830075263977, 4.756103992462158, 0.34205248951911926, 0.46266990900039673, 0.3197168707847595, -0.712890625, 0.2783203125, -0.6455078125, 0, 
231, 1023529885, 0.653632402420044, 0.31380197405815125, -0.39638328552246094, 0.5631881952285767, 8.614426612854004, -0.36737000942230225, 4.769200801849365, 0.2383660525083542, 0.3975329101085663, 0.29976338148117065, -0.7099609375, 0.27978515625, -0.6455078125, 0, 
232, 1023538218, 0.6536157131195068, 0.31381767988204956, -0.3963737487792969, 0.5632054209709167, 8.580500602722168, -0.3792794942855835, 4.760038375854492, 0.18306496739387512, 0.4298325181007385, 0.28378012776374817, -0.71337890625, 0.27978515625, -0.64794921875, 0, 
233, 1023546551, 0.6536024808883667, 0.3138265013694763, -0.3963601589202881, 0.563225507736206, 8.569313049316406, -0.371404230594635, 4.767455577850342, 0.1488187164068222, 0.5267055630683899, 0.30186375975608826, -0.71240234375, 0.279296875, -0.64599609375, 0, 
234, 1023554884, 0.6535971164703369, 0.3138220012187958, -0.3963625431060791, 0.5632325410842896, 8.563776969909668, -0.41867735981941223, 4.759322643280029, -0.19849750399589539, 0.4977101683616638, 0.2620592415332794, -0.7109375, 0.28125, -0.64697265625, 0, 
235, 1023563217, 0.6535962224006653, 0.3138090968132019, -0.3963603973388672, 0.5632423162460327, 8.549442291259766, -0.4204941689968109, 4.7276787757873535, -0.24391154944896698, 0.6149209141731262, 0.28219202160835266, -0.70947265625, 0.27734375, -0.6484375, 0, 
236, 1023571550, 0.6536068916320801, 0.31380224227905273, -0.39635607600212097, 0.563236653804779, 8.554986953735352, -0.43497177958488464, 4.76707649230957, -0.30774223804473877, 0.6074928045272827, 0.006531629711389542, -0.7138671875, 0.2822265625, -0.646484375, 0, 
237, 1023579883, 0.653606116771698, 0.31380441784858704, -0.3963596820831299, 0.5632337927818298, 8.582281112670898, -0.448461651802063, 4.7444024085998535, -0.22316400706768036, 0.3927686810493469, 0.10950084775686264, -0.70947265625, 0.28173828125, -0.6484375, 0, 
238, 1023588216, 0.6535953879356384, 0.3138110339641571, -0.39637160301208496, 0.5632342100143433, 8.590248107910156, -0.441101610660553, 4.784557342529297, -0.18832866847515106, 0.2665417194366455, 0.22450874745845795, -0.71240234375, 0.2802734375, -0.64794921875, 0, 
239, 1023596549, 0.6535800099372864, 0.3138187825679779, -0.3963848948478699, 0.5632384419441223, 8.591294288635254, -0.40425723791122437, 4.742849826812744, -0.14547604322433472, 0.21328972280025482, 0.2963566780090332, -0.71142578125, 0.27783203125, -0.64453125, 0, 
240, 1023604882, 0.6535685062408447, 0.313826322555542, -0.39639389514923096, 0.5632411241531372, 8.603962898254395, -0.3819689452648163, 4.764881134033203, -0.14101918041706085, 0.29169487953186035, 0.2328590303659439, -0.71240234375, 0.28076171875, -0.64697265625, 0, 
241, 1023613215, 0.6535470485687256, 0.3138490915298462, -0.3963959217071533, 0.5632519721984863, 8.604205131530762, -0.3274857699871063, 4.7954020500183105, 0.13973847031593323, 0.19388693571090698, 0.27377772331237793, -0.7109375, 0.28125, -0.6455078125, 0, 
242, 1023621548, 0.6535300016403198, 0.31385207176208496, -0.39639195799827576, 0.5632728934288025, 8.596014976501465, -0.3529355823993683, 4.788234710693359, 0.04629772901535034, 0.4915243685245514, 0.4100198745727539, -0.71337890625, 0.279296875, -0.64794921875, 0, 
243, 1023629881, 0.6535245776176453, 0.31383639574050903, -0.39638859033584595, 0.5632903575897217, 8.612530708312988, -0.3518769443035126, 4.787927150726318, -0.199458047747612, 0.6556603312492371, 0.39518919587135315, -0.71142578125, 0.27978515625, -0.6474609375, 0, 
244, 1023638214, 0.6535272598266602, 0.31380924582481384, -0.39639171957969666, 0.5633002519607544, 8.584477424621582, -0.39825600385665894, 4.793212890625, -0.425823837518692, 0.7217066884040833, 0.35427045822143555, -0.7109375, 0.28173828125, -0.64794921875, 0, 
245, 1023646547, 0.6535480618476868, 0.31377795338630676, -0.39638468623161316, 0.5632984042167664, 8.578526496887207, -0.4191926121711731, 4.80298376083374, -0.5288442373275757, 0.8689372539520264, 0.08614066243171692, -0.71240234375, 0.27783203125, -0.64794921875, 0, 
246, 1023654880, 0.6535661220550537, 0.3137526512145996, -0.3963828384876251, 0.5632926225662231, 8.592324256896973, -0.4394136965274811, 4.7989349365234375, -0.5285112857818604, 0.7685551047325134, 0.06029590219259262, -0.71337890625, 0.27880859375, -0.64697265625, 0, 
247, 1023663213, 0.653593122959137, 0.31371572613716125, -0.3963870406150818, 0.5632790327072144, 8.580100059509277, -0.43043702840805054, 4.79412841796875, -0.7553766965866089, 0.7958343625068665, 0.012781505472958088, -0.71044921875, 0.28076171875, -0.6474609375, 0, 
248, 1023671546, 0.6536129713058472, 0.31368714570999146, -0.3963950276374817, 0.5632662177085876, 8.598676681518555, -0.42188212275505066, 4.82249641418457, -0.6793279051780701, 0.6853600740432739, 0.04313436895608902, -0.7109375, 0.279296875, -0.64892578125, 0, 
249, 1023679879, 0.6536206603050232, 0.3136744499206543, -0.39640012383461, 0.5632607340812683, 8.621199607849121, -0.4112384021282196, 4.753779411315918, -0.4192409813404083, 0.5291901230812073, 0.10734925419092178, -0.70947265625, 0.2802734375, -0.64892578125, 0, 
250, 1023688212, 0.6536208987236023, 0.3136754035949707, -0.39639776945114136, 0.5632616281509399, 8.647871971130371, -0.4143929183483124, 4.790751934051514, -0.16338041424751282, 0.49924707412719727, 0.11754372715950012, -0.71240234375, 0.283203125, -0.6484375, 0, 
251, 1023696545, 0.653618574142456, 0.3136821687221527, -0.3963795304298401, 0.5632733702659607, 8.645478248596191, -0.425415575504303, 4.787176609039307, 0.07417882233858109, 0.6084661483764648, 0.13316839933395386, -0.7109375, 0.28173828125, -0.64501953125, 0, 
252, 1023704878, 0.6536136865615845, 0.3136957883834839, -0.3963695764541626, 0.5632786154747009, 8.64943790435791, -0.4225326180458069, 4.793305397033691, 0.04578544199466705, 0.4624266028404236, 0.09058474004268646, -0.708984375, 0.2783203125, -0.64697265625, 0, 
253, 1023713211, 0.6536054611206055, 0.3137063980102539, -0.39634665846824646, 0.563298225402832, 8.670411109924316, -0.46019247174263, 4.805665969848633, 0.21236762404441833, 0.6230150461196899, 0.208243727684021, -0.708984375, 0.28076171875, -0.64892578125, 0, 
254, 1023721544, 0.6535905003547668, 0.313721239566803, -0.39633363485336304, 0.5633166432380676, 8.63906192779541, -0.48708757758140564, 4.78859281539917, 0.19724240899085999, 0.4803053140640259, 0.2670668065547943, -0.7109375, 0.27880859375, -0.64453125, 0, 
255, 1023729877, 0.6535743474960327, 0.3137321174144745, -0.3963097333908081, 0.5633461475372314, 8.68684196472168, -0.463768869638443, 4.756661891937256, 0.310598224401474, 0.6288550496101379, 0.3527336120605469, -0.71142578125, 0.279296875, -0.64697265625, 0, 
256, 1023738210, 0.6535600423812866, 0.3137524724006653, -0.3962852954864502, 0.563368558883667, 8.631449699401855, -0.44861915707588196, 4.7806596755981445, 0.35439854860305786, 0.5628983974456787, 0.2190273255109787, -0.71044921875, 0.28076171875, -0.646484375, 0, 
257, 1023746543, 0.6535347700119019, 0.31377118825912476, -0.3962485194206238, 0.5634133219718933, 8.625226974487305, -0.4145859181880951, 4.789565086364746, 0.60316401720047, 0.6983721256256104, 0.4603134095668793, -0.712890625, 0.28515625, -0.64599609375, 0, 
258, 1023754876, 0.6535105109214783, 0.313795804977417, -0.39620086550712585, 0.563461422920227, 8.62738037109375, -0.3954024910926819, 4.798706531524658, 0.7549796104431152, 0.7956550121307373, 0.4038596451282501, -0.708984375, 0.28271484375, -0.6484375, 0, 
259, 1023763209, 0.6534855961799622, 0.3138206899166107, -0.3961530327796936, 0.563510000705719, 8.63007640838623, -0.36840003728866577, 4.754423141479492, 0.7640470266342163, 0.770348072052002, 0.4126965403556824, -0.7119140625, 0.279296875, -0.6494140625, 0, 
260, 1023771542, 0.6534707546234131, 0.3138427138328552, -0.3961034119129181, 0.5635497570037842, 8.609504699707031, -0.35892966389656067, 4.760868072509766, 0.6637928485870361, 0.8469602465629578, 0.26218727231025696, -0.712890625, 0.27734375, -0.64501953125, 0, 
261, 1023779875, 0.6534627079963684, 0.3138541877269745, -0.3960604667663574, 0.5635828375816345, 8.598010063171387, -0.3506752848625183, 4.768821716308594, 0.4485052824020386, 0.8547983169555664, 0.23680362105369568, -0.7099609375, 0.2783203125, -0.6484375, 0, 
262, 1023788208, 0.653467059135437, 0.31385454535484314, -0.3960161805152893, 0.5636088252067566, 8.574299812316895, -0.3694731593132019, 4.76621150970459, 0.2748919725418091, 1.0126843452453613, 0.13242559134960175, -0.7080078125, 0.28076171875, -0.6494140625, 0, 
263, 1023796541, 0.6534891724586487, 0.313834547996521, -0.39598533511161804, 0.5636160969734192, 8.576730728149414, -0.37691906094551086, 4.7803521156311035, -0.19829261302947998, 1.042653203010559, -0.005776009988039732, -0.708984375, 0.2783203125, -0.6494140625, 0, 
264, 1023804874, 0.6535159349441528, 0.3138154149055481, -0.39595481753349304, 0.5636170506477356, 8.552433013916016, -0.3680852949619293, 4.733994483947754, -0.2524923086166382, 1.0539745092391968, -0.10521046817302704, -0.7099609375, 0.28271484375, -0.64892578125, 0, 
265, 1023813207, 0.6535474061965942, 0.3137982189655304, -0.3959192931652069, 0.5636152029037476, 8.525043487548828, -0.37114691734313965, 4.785615921020508, -0.22680123150348663, 1.0747989416122437, -0.1946297585964203, -0.7109375, 0.279296875, -0.6474609375, 0, 
266, 1023821540, 0.653572678565979, 0.31378233432769775, -0.39589542150497437, 0.5636113882064819, 8.515538215637207, -0.3802594244480133, 4.777991771697998, -0.2900172173976898, 0.9406059384346008, -0.12513835728168488, -0.70947265625, 0.2802734375, -0.64990234375, 0, 
267, 1023829873, 0.6535933017730713, 0.3137582540512085, -0.39589235186576843, 0.5636029243469238, 8.497549057006836, -0.39394283294677734, 4.780945777893066, -0.5301762223243713, 0.7481918334960938, 0.00671093026176095, -0.71142578125, 0.2783203125, -0.64892578125, 0, 
268, 1023838206, 0.6536121964454651, 0.3137369751930237, -0.3959043622016907, 0.5635845065116882, 8.488621711730957, -0.4089566469192505, 4.781897068023682, -0.6641899347305298, 0.5618226528167725, -0.02042735368013382, -0.70947265625, 0.279296875, -0.64697265625, 0, 
269, 1023846539, 0.6536260843276978, 0.3137231767177582, -0.39592909812927246, 0.56355881690979, 8.513821601867676, -0.416531503200531, 4.781296253204346, -0.7170448303222656, 0.3088180124759674, -0.032248321920633316, -0.71142578125, 0.27880859375, -0.64599609375, 0, 
270, 1023854872, 0.6536446809768677, 0.31370311975479126, -0.39596298336982727, 0.5635244846343994, 8.518964767456055, -0.42072317004203796, 4.786245346069336, -0.9082807302474976, 0.28637993335723877, -0.07277004420757294, -0.70849609375, 0.28076171875, -0.6474609375, 0, 
271, 1023863205, 0.6536574363708496, 0.313681423664093, -0.396001398563385, 0.5634947419166565, 8.544120788574219, -0.3939356803894043, 4.779307842254639, -0.9119309186935425, 0.2233305275440216, 0.04195612296462059, -0.7109375, 0.2802734375, -0.6494140625, 0, 
272, 1023871538, 0.6536638140678406, 0.3136616051197052, -0.39604252576828003, 0.563469409942627, 8.55851936340332, -0.3805525600910187, 4.774780750274658, -0.8630844354629517, 0.18875128030776978, 0.13204137980937958, -0.7109375, 0.2802734375, -0.646484375, 0, 
273, 1023879871, 0.6536668539047241, 0.31365159153938293, -0.3960937559604645, 0.5634354948997498, 8.576223373413086, -0.379536896944046, 4.808140277862549, -0.8856762051582336, -0.054033227264881134, 0.07110511511564255, -0.71240234375, 0.28125, -0.64990234375, 0, 
274, 1023888204, 0.6536624431610107, 0.3136465549468994, -0.3961530327796936, 0.5634016990661621, 8.584183692932129, -0.39269107580184937, 4.778549671173096, -0.8709992170333862, -0.18043947219848633, 0.13670316338539124, -0.71142578125, 0.2841796875, -0.65087890625, 0, 
275, 1023896537, 0.653656005859375, 0.31363362073898315, -0.3962090313434601, 0.5633769631385803, 8.575729370117188, -0.39279836416244507, 4.80549430847168, -0.8599338531494141, -0.08676821738481522, 0.2629813253879547, -0.71337890625, 0.27978515625, -0.64599609375, 0, 
276, 1023904870, 0.6536609530448914, 0.31361305713653564, -0.3962518572807312, 0.563352644443512, 8.582781791687012, -0.4284766614437103, 4.795938968658447, -0.8730995655059814, 0.17865927517414093, 0.1615745723247528, -0.70703125, 0.28173828125, -0.64697265625, 0, 
277, 1023913203, 0.6536674499511719, 0.31359320878982544, -0.3962944447994232, 0.5633261203765869, 8.586980819702148, -0.43585142493247986, 4.806859970092773, -0.8834733366966248, 0.15073977410793304, 0.12676484882831573, -0.705078125, 0.2802734375, -0.6474609375, 0, 
278, 1023921536, 0.6536652445793152, 0.3135945498943329, -0.39632749557495117, 0.5633047819137573, 8.59426212310791, -0.4634541869163513, 4.837789058685303, -0.5508981943130493, 0.07015739381313324, 0.0842452123761177, -0.7119140625, 0.27978515625, -0.6455078125, 0, 
279, 1023929869, 0.6536579132080078, 0.3136102557182312, -0.3963533043861389, 0.5632864236831665, 8.608839988708496, -0.48273107409477234, 4.8158087730407715, -0.3300265967845917, -0.014305549673736095, 0.04275015369057655, -0.7119140625, 0.28271484375, -0.65087890625, 0, 
280, 1023938202, 0.6536446809768677, 0.31363508105278015, -0.3963770270347595, 0.5632712841033936, 8.600621223449707, -0.4590551555156708, 4.813469886779785, -0.18013212084770203, -0.0619480274617672, 0.05816993489861488, -0.7080078125, 0.28076171875, -0.64599609375, 0, 
281, 1023946535, 0.653632640838623, 0.3136522173881531, -0.39639604091644287, 0.5632623434066772, 8.615864753723145, -0.4350144863128662, 4.81179666519165, -0.1909797489643097, 0.05126689746975899, 0.12680327892303467, -0.71044921875, 0.28125, -0.6494140625, 0, 
282, 1023954868, 0.6536181569099426, 0.3136748969554901, -0.3964013457298279, 0.5632627010345459, 8.616673469543457, -0.4206733703613281, 4.8154730796813965, 0.025140369310975075, 0.18095174431800842, 0.13543526828289032, -0.71044921875, 0.2802734375, -0.64501953125, 0, 
283, 1023963201, 0.6536046266555786, 0.31369614601135254, -0.3964008688926697, 0.5632668733596802, 8.59001350402832, -0.39547353982925415, 4.830643653869629, 0.07319267839193344, 0.2421697974205017, 0.14998416602611542, -0.70947265625, 0.28076171875, -0.646484375, 0, 
284, 1023971534, 0.6535929441452026, 0.31371936202049255, -0.396390825510025, 0.5632745027542114, 8.577646255493164, -0.3892576992511749, 4.759952545166016, 0.18141283094882965, 0.3619675636291504, 0.11248491704463959, -0.71044921875, 0.28173828125, -0.6474609375, 0, 
285, 1023979867, 0.6535751819610596, 0.3137439787387848, -0.39637210965156555, 0.5632947087287903, 8.573418617248535, -0.3425210416316986, 4.7687788009643555, 0.35146573185920715, 0.4268740117549896, 0.22861988842487335, -0.712890625, 0.28125, -0.64990234375, 0, 
286, 1023988200, 0.6535532474517822, 0.3137587308883667, -0.3963763117790222, 0.5633088946342468, 8.572588920593262, -0.3607679307460785, 4.792998313903809, 0.07341039925813675, 0.2712291479110718, 0.3594702184200287, -0.7119140625, 0.283203125, -0.6474609375, 0, 
287, 1023996533, 0.6535350680351257, 0.3137710690498352, -0.3963765501976013, 0.5633230209350586, 8.578804969787598, -0.3407328128814697, 4.818526744842529, 0.06331838667392731, 0.3218684494495392, 0.3246860206127167, -0.712890625, 0.2822265625, -0.64697265625, 0, 
288, 1024004866, 0.6535077095031738, 0.3137853741645813, -0.39639198780059814, 0.5633358955383301, 8.591666221618652, -0.34544655680656433, 4.80382776260376, -0.002523002214729786, 0.13857302069664001, 0.4417431354522705, -0.71142578125, 0.28076171875, -0.64404296875, 0, 
289, 1024013199, 0.6534855961799622, 0.3137901723384857, -0.39640969038009644, 0.5633463859558105, 8.601544380187988, -0.3767402470111847, 4.798027038574219, -0.14319638907909393, 0.18724007904529572, 0.4395659267902374, -0.71240234375, 0.287109375, -0.64599609375, 0, 
290, 1024021532, 0.6534673571586609, 0.3137882649898529, -0.396432489156723, 0.5633525848388672, 8.614755630493164, -0.4012816548347473, 4.819421291351318, -0.27549389004707336, 0.21851502358913422, 0.4321121275424957, -0.7080078125, 0.28125, -0.6494140625, 0, 
291, 1024029865, 0.6534606218338013, 0.31377679109573364, -0.39645150303840637, 0.563353419303894, 8.610113143920898, -0.4091998338699341, 4.855400085449219, -0.41821643710136414, 0.3439992070198059, 0.3285025954246521, -0.7099609375, 0.27978515625, -0.6455078125, 0, 
292, 1024038198, 0.6534577012062073, 0.3137664496898651, -0.3964769244194031, 0.5633445978164673, 8.628667831420898, -0.3880276381969452, 4.831393718719482, -0.5282423496246338, 0.27902862429618835, 0.23072022199630737, -0.7099609375, 0.28271484375, -0.6474609375, 0, 
293, 1024046531, 0.6534554362297058, 0.313755065202713, -0.39648473262786865, 0.5633480548858643, 8.624090194702148, -0.39676105976104736, 4.809836387634277, -0.33543121814727783, 0.48059991002082825, 0.2694617509841919, -0.7119140625, 0.2822265625, -0.64501953125, 0, 
294, 1024054864, 0.6534534096717834, 0.31374210119247437, -0.39648544788360596, 0.5633572340011597, 8.627623558044434, -0.44856908917427063, 4.82395601272583, -0.263378381729126, 0.604649543762207, 0.29430755972862244, -0.71044921875, 0.283203125, -0.6474609375, 0, 
295, 1024063197, 0.6534515023231506, 0.31373387575149536, -0.39648258686065674, 0.5633659362792969, 8.64940357208252, -0.45296093821525574, 4.829327583312988, -0.19877928495407104, 0.5749115347862244, 0.2505328357219696, -0.71044921875, 0.2802734375, -0.6435546875, 0, 
296, 1024071530, 0.6534553170204163, 0.3137394189834595, -0.3964720666408539, 0.5633658766746521, 8.647758483886719, -0.4625958204269409, 4.817432403564453, -0.08512890338897705, 0.5540358424186707, 0.0159064382314682, -0.71240234375, 0.28173828125, -0.64697265625, 0, 
297, 1024079863, 0.6534489393234253, 0.3137635588645935, -0.3964333236217499, 0.5633871555328369, 8.652350425720215, -0.4793906807899475, 4.76599645614624, 0.4583282768726349, 0.6763310432434082, 0.06732701510190964, -0.70947265625, 0.28076171875, -0.6474609375, 0, 
298, 1024088196, 0.65342777967453, 0.3137926161289215, -0.3963833153247833, 0.5634306073188782, 8.617880821228027, -0.43595191836357117, 4.794801235198975, 0.7763803005218506, 0.7779427170753479, 0.3014667332172394, -0.708984375, 0.283203125, -0.64892578125, 0, 
299, 1024096529, 0.6533989906311035, 0.31383928656578064, -0.3963262438774109, 0.5634781718254089, 8.610591888427734, -0.4259369671344757, 4.805779933929443, 1.042640209197998, 0.6588109135627747, 0.2741619646549225, -0.712890625, 0.2822265625, -0.64794921875, 0, 
300, 1024104862, 0.6533731818199158, 0.3138735890388489, -0.396264910697937, 0.5635321736335754, 8.60888957977295, -0.3939213752746582, 4.806881904602051, 0.9939091801643372, 0.8586148023605347, 0.35826635360717773, -0.70947265625, 0.2822265625, -0.6455078125, 0, 
301, 1024113195, 0.653337836265564, 0.3139162063598633, -0.3961890935897827, 0.5636026263237, 8.593826293945312, -0.386976420879364, 4.801067352294922, 1.30583918094635, 0.9215232729911804, 0.4713018834590912, -0.71533203125, 0.27978515625, -0.6494140625, 0, 
302, 1024121528, 0.6533035039901733, 0.31394731998443604, -0.3961125910282135, 0.5636789202690125, 8.566366195678711, -0.399741530418396, 4.7910027503967285, 1.238089680671692, 1.0699833631515503, 0.5745272636413574, -0.708984375, 0.27783203125, -0.6474609375, 0, 
303, 1024129861, 0.6532682776451111, 0.31395450234413147, -0.396060973405838, 0.5637518763542175, 8.565658569335938, -0.40482228994369507, 4.804457187652588, 0.8115101456642151, 0.9906305074691772, 0.7913262248039246, -0.7119140625, 0.2822265625, -0.646484375, 0, 
304, 1024138194, 0.6532340049743652, 0.3139495551586151, -0.3960258364677429, 0.5638191103935242, 8.529400825500488, -0.39508727192878723, 4.812110900878906, 0.5334932804107666, 0.9387617111206055, 0.8616628646850586, -0.71142578125, 0.28271484375, -0.64697265625, 0, 
305, 1024146527, 0.6531962156295776, 0.3139416575431824, -0.3959975838661194, 0.5638872385025024, 8.541088104248047, -0.44228890538215637, 4.83539342880249, 0.4807535409927368, 0.862047016620636, 0.9504417777061462, -0.7109375, 0.28173828125, -0.64892578125, 0, 
306, 1024154860, 0.6531570553779602, 0.31392955780029297, -0.39597922563552856, 0.5639522671699524, 8.549192428588867, -0.4639049768447876, 4.784815788269043, 0.34576651453971863, 0.8082315325737, 0.9900670051574707, -0.7109375, 0.27978515625, -0.64794921875, 0, 
307, 1024163193, 0.6531188488006592, 0.3139215111732483, -0.39597222208976746, 0.5640059113502502, 8.54726791381836, -0.44601553678512573, 4.793220043182373, 0.23757201433181763, 0.6082355976104736, 0.9170408248901367, -0.71044921875, 0.279296875, -0.6484375, 0, 
308, 1024171526, 0.653069257736206, 0.3139139413833618, -0.3959674537181854, 0.5640708804130554, 8.545144081115723, -0.3901232182979584, 4.790437698364258, 0.3329594135284424, 0.5928926467895508, 1.1071752309799194, -0.70947265625, 0.28076171875, -0.6513671875, 0, 
309, 1024179859, 0.6530243158340454, 0.31390121579170227, -0.3959622383117676, 0.5641335844993591, 8.592610359191895, -0.36048898100852966, 4.768149375915527, 0.25977954268455505, 0.6304687261581421, 1.0828930139541626, -0.7080078125, 0.28173828125, -0.64599609375, 0, 
310, 1024188192, 0.6529960036277771, 0.3138861656188965, -0.3959582448005676, 0.5641774535179138, 8.59203815460205, -0.3485794961452484, 4.758600234985352, 0.046925272792577744, 0.668300986289978, 0.7959623336791992, -0.7109375, 0.279296875, -0.646484375, 0, 
311, 1024196525, 0.6529792547225952, 0.3138682246208191, -0.3959434926509857, 0.564217209815979, 8.59156608581543, -0.35913708806037903, 4.7871904373168945, 0.04052171856164932, 0.8106393218040466, 0.6459397673606873, -0.7099609375, 0.279296875, -0.64501953125, 0, 
312, 1024204858, 0.652981698513031, 0.3138466775417328, -0.39591801166534424, 0.5642442107200623, 8.575149536132812, -0.3537796139717102, 4.780187606811523, -0.05259883031249046, 1.0068186521530151, 0.3551925718784332, -0.708984375, 0.2783203125, -0.6494140625, 0, 
313, 1024213191, 0.6529816389083862, 0.31384003162384033, -0.3959116041660309, 0.564252495765686, 8.569191932678223, -0.3537152409553528, 4.800981044769287, -0.1664797067642212, 0.6040861010551453, 0.208243727684021, -0.71044921875, 0.28125, -0.650390625, 0, 
314, 1024221524, 0.6529858112335205, 0.3138335645198822, -0.3959059715270996, 0.5642552375793457, 8.562403678894043, -0.38412198424339294, 4.804278373718262, -0.205413356423378, 0.6158942580223083, 0.13058136403560638, -0.7099609375, 0.27783203125, -0.6484375, 0, 
315, 1024229857, 0.6530030369758606, 0.313826322555542, -0.39589643478393555, 0.5642459988594055, 8.586615562438965, -0.3928770422935486, 4.831452369689941, -0.3174756169319153, 0.6536240577697754, -0.0948110818862915, -0.7099609375, 0.28125, -0.6455078125, 0, 
316, 1024238190, 0.6530187726020813, 0.3138252794742584, -0.39587682485580444, 0.5642420649528503, 8.581629753112793, -0.3940359950065613, 4.8228254318237305, -0.14291460812091827, 0.7350260019302368, -0.11156278103590012, -0.7099609375, 0.28173828125, -0.64892578125, 0, 
317, 1024246523, 0.6530243158340454, 0.31382760405540466, -0.39586660265922546, 0.5642415285110474, 8.58792495727539, -0.4140709340572357, 4.780795574188232, -0.12851941585540771, 0.5607467889785767, 0.017801892012357712, -0.708984375, 0.2822265625, -0.6455078125, 0, 
318, 1024254856, 0.6530249714851379, 0.31382206082344055, -0.39585885405540466, 0.5642492175102234, 8.572396278381348, -0.4269317388534546, 4.818297863006592, -0.143478125333786, 0.6294954419136047, 0.1844993382692337, -0.7119140625, 0.275390625, -0.6484375, 0, 
319, 1024263189, 0.6530246138572693, 0.3138158917427063, -0.395851194858551, 0.5642585158348083, 8.561230659484863, -0.42643818259239197, 4.77186918258667, -0.14644938707351685, 0.6144342422485352, 0.2130591720342636, -0.708984375, 0.28125, -0.64306640625, 0, 
320, 1024271522, 0.6530174016952515, 0.31381815671920776, -0.3958500623703003, 0.5642662644386292, 8.580815315246582, -0.44618719816207886, 4.753457546234131, -0.11809442937374115, 0.4699699580669403, 0.2168244868516922, -0.712890625, 0.28369140625, -0.6455078125, 0, 
321, 1024279855, 0.6530085206031799, 0.3138267993927002, -0.3958466053009033, 0.5642741322517395, 8.596529960632324, -0.4255440831184387, 4.746790885925293, -0.01722557283937931, 0.40806037187576294, 0.20294156670570374, -0.7099609375, 0.27734375, -0.64599609375, 0, 
322, 1024288188, 0.6529874205589294, 0.3138418197631836, -0.3958452641963959, 0.5642914175987244, 8.613625526428223, -0.4412948489189148, 4.787269115447998, 0.07878938317298889, 0.33785173296928406, 0.32486534118652344, -0.71044921875, 0.2822265625, -0.64794921875, 0, 
323, 1024296521, 0.6529667973518372, 0.3138580918312073, -0.3958355188369751, 0.5643130540847778, 8.6099214553833, -0.4657577574253082, 4.811989784240723, 0.22558455169200897, 0.40032488107681274, 0.34768760204315186, -0.7099609375, 0.27978515625, -0.65087890625, 0, 
324, 1024304854, 0.6529501676559448, 0.31387192010879517, -0.3958195745944977, 0.5643357634544373, 8.622386932373047, -0.44332605600357056, 4.834384918212891, 0.24210576713085175, 0.5249893069267273, 0.30793434381484985, -0.71240234375, 0.279296875, -0.6494140625, 0, 
325, 1024313187, 0.6529378890991211, 0.3138818144798279, -0.39579617977142334, 0.5643609166145325, 8.610620498657227, -0.4560938775539398, 4.786482334136963, 0.2586013376712799, 0.6336193680763245, 0.29189983010292053, -0.70947265625, 0.2822265625, -0.650390625, 0, 
326, 1024321520, 0.6529248952865601, 0.3138881325721741, -0.3957713842391968, 0.5643897652626038, 8.600786209106445, -0.423319548368454, 4.800852298736572, 0.2548103928565979, 0.7101802229881287, 0.3353928029537201, -0.70947265625, 0.279296875, -0.64404296875, 0, 
327, 1024329853, 0.6529102325439453, 0.3138982057571411, -0.3957485258579254, 0.5644171833992004, 8.57793140411377, -0.4439336955547333, 4.7913312911987305, 0.2780425250530243, 0.6235529184341431, 0.331115186214447, -0.70849609375, 0.28369140625, -0.6455078125, 0, 
328, 1024338186, 0.6528989672660828, 0.31391429901123047, -0.3957175612449646, 0.5644428730010986, 8.585936546325684, -0.44741031527519226, 4.8051438331604, 0.36935722827911377, 0.6853857040405273, 0.214519202709198, -0.7099609375, 0.27978515625, -0.64794921875, 0, 
329, 1024346519, 0.6528748869895935, 0.3139508366584778, -0.3956941068172455, 0.5644668340682983, 8.600420951843262, -0.43405595421791077, 4.807633399963379, 0.5416386127471924, 0.35824069380760193, 0.22568704187870026, -0.7119140625, 0.28076171875, -0.646484375, 0, 
330, 1024354852, 0.6528454422950745, 0.31398701667785645, -0.39566975831985474, 0.5644978880882263, 8.598318099975586, -0.4239843189716339, 4.792218208312988, 0.6055461168289185, 0.39235883951187134, 0.3234565854072571, -0.70947265625, 0.28125, -0.64794921875, 0, 
331, 1024363185, 0.652817964553833, 0.3140147924423218, -0.39564764499664307, 0.5645295977592468, 8.600935935974121, -0.42791837453842163, 4.800687313079834, 0.5094414949417114, 0.4293714463710785, 0.37637555599212646, -0.71044921875, 0.27783203125, -0.646484375, 0, 
332, 1024371518, 0.6527853608131409, 0.3140377104282379, -0.39562949538230896, 0.564567506313324, 8.585392951965332, -0.41809797286987305, 4.799958229064941, 0.5020133256912231, 0.4522961378097534, 0.5146667957305908, -0.7080078125, 0.28173828125, -0.6494140625, 0, 
333, 1024379851, 0.6527499556541443, 0.3140592575073242, -0.3956142067909241, 0.5646071434020996, 8.597086906433105, -0.4042496383190155, 4.796024799346924, 0.4784226417541504, 0.40772736072540283, 0.5713511109352112, -0.70849609375, 0.27978515625, -0.6513671875, 0, 
334, 1024388184, 0.652710497379303, 0.31407853960990906, -0.3955948054790497, 0.5646554827690125, 8.594698905944824, -0.42655977606773376, 4.821016311645508, 0.5576474666595459, 0.5005789399147034, 0.6709136366844177, -0.7099609375, 0.2802734375, -0.6484375, 0, 
335, 1024396517, 0.6526728272438049, 0.31408876180648804, -0.3955819010734558, 0.5647024512290955, 8.601322174072266, -0.4196646809577942, 4.7826409339904785, 0.4081628620624542, 0.49286913871765137, 0.7285456657409668, -0.70947265625, 0.28076171875, -0.6484375, 0, 
336, 1024404850, 0.6526361107826233, 0.31411564350128174, -0.3955737352371216, 0.5647356510162354, 8.608725547790527, -0.4273606538772583, 4.767213344573975, 0.44709643721580505, 0.28910788893699646, 0.5232475399971008, -0.7099609375, 0.28173828125, -0.646484375, 0, 
337, 1024413183, 0.6526126265525818, 0.31413012742996216, -0.39557698369026184, 0.5647525787353516, 8.596372604370117, -0.41055193543434143, 4.790287494659424, 0.09697549045085907, 0.2623665928840637, 0.393716424703598, -0.7099609375, 0.28369140625, -0.64892578125, 0, 
338, 1024421516, 0.6525946855545044, 0.3141401410102844, -0.39557820558547974, 0.5647668838500977, 8.593854904174805, -0.4194786548614502, 4.801581859588623, 0.03570624440908432, 0.35573050379753113, 0.33859458565711975, -0.7080078125, 0.2841796875, -0.64501953125, 0, 
339, 1024429849, 0.6525816917419434, 0.3141617178916931, -0.3955734372138977, 0.5647732019424438, 8.590715408325195, -0.4226188659667969, 4.778492450714111, 0.11936233192682266, 0.291515588760376, 0.1449509561061859, -0.70751953125, 0.28271484375, -0.6455078125, 0, 
340, 1024438182, 0.6525768637657166, 0.3141765594482422, -0.3955729007720947, 0.5647708773612976, 8.578985214233398, -0.3953876793384552, 4.7823486328125, -0.05408445745706558, 0.33493170142173767, 0.05355936288833618, -0.7080078125, 0.2802734375, -0.64599609375, 0, 
341, 1024446515, 0.6525713801383972, 0.31419309973716736, -0.39557066559791565, 0.5647695064544678, 8.58816146850586, -0.39241212606430054, 4.807017803192139, -0.020760338753461838, 0.3156186044216156, 0.055813416838645935, -0.7099609375, 0.28173828125, -0.6474609375, 0, 
342, 1024454848, 0.652563750743866, 0.3142065107822418, -0.3955662250518799, 0.5647740364074707, 8.61468505859375, -0.4083917737007141, 4.83194637298584, 0.027663372457027435, 0.3940238058567047, 0.13370630145072937, -0.712890625, 0.27978515625, -0.6474609375, 0, 
343, 1024463181, 0.6525501608848572, 0.3142280876636505, -0.39556339383125305, 0.5647796988487244, 8.592581748962402, -0.3711681663990021, 4.808806419372559, 0.10309729725122452, 0.2674638330936432, 0.15286575257778168, -0.71044921875, 0.275390625, -0.6455078125, 0, 
344, 1024471514, 0.6525380611419678, 0.31425535678863525, -0.39555346965789795, 0.5647854804992676, 8.58126449584961, -0.39249759912490845, 4.749022006988525, 0.19758819043636322, 0.3180263042449951, 0.06867175549268723, -0.70947265625, 0.2802734375, -0.64599609375, 0, 
345, 1024479847, 0.6525179743766785, 0.31428268551826477, -0.39556077122688293, 0.564788281917572, 8.577059745788574, -0.44681665301322937, 4.746147155761719, 0.08813857287168503, 0.08378415554761887, 0.18839271366596222, -0.70751953125, 0.27978515625, -0.64697265625, 0, 
346, 1024488180, 0.652499258518219, 0.3143071234226227, -0.39557594060897827, 0.5647857785224915, 8.592331886291504, -0.4505648612976074, 4.766304016113281, -0.02724073827266693, 0.04262208566069603, 0.17804454267024994, -0.708984375, 0.27978515625, -0.6484375, 0, 
347, 1024496513, 0.6524903774261475, 0.3143167197704315, -0.395582914352417, 0.5647858381271362, 8.579999923706055, -0.4381187856197357, 4.810959339141846, -0.1314394623041153, 0.27327829599380493, 0.17143608629703522, -0.71044921875, 0.279296875, -0.64697265625, 0, 
348, 1024504846, 0.6524788737297058, 0.31431886553764343, -0.3955945372581482, 0.5647898316383362, 8.586709022521973, -0.44863343238830566, 4.804514408111572, -0.19455289840698242, 0.31344136595726013, 0.28710994124412537, -0.7099609375, 0.28564453125, -0.646484375, 0, 
349, 1024513179, 0.6524624824523926, 0.31431832909584045, -0.3956156075000763, 0.5647942423820496, 8.58366870880127, -0.4209233522415161, 4.780302047729492, -0.2751865088939667, 0.20422229170799255, 0.38580161333084106, -0.71142578125, 0.28173828125, -0.64794921875, 0, 
350, 1024521512, 0.6524438858032227, 0.3143281042575836, -0.39564049243927, 0.5647928714752197, 8.57090950012207, -0.393892765045166, 4.766032695770264, -0.22669878602027893, 0.07543391734361649, 0.30752450227737427, -0.71337890625, 0.28466796875, -0.64599609375, 0, 
351, 1024529845, 0.6524235606193542, 0.3143391013145447, -0.39566048979759216, 0.5647963881492615, 8.595643043518066, -0.36908668279647827, 4.770538330078125, -0.15168751776218414, 0.09759023785591125, 0.34087425470352173, -0.71044921875, 0.2822265625, -0.6484375, 0, 
352, 1024538178, 0.652411937713623, 0.3143467903137207, -0.39566129446029663, 0.5648049116134644, 8.585192680358887, -0.39849919080734253, 4.771418571472168, -0.04575983062386513, 0.3884654641151428, 0.24584540724754333, -0.7109375, 0.27880859375, -0.64697265625, 0, 
353, 1024546511, 0.6524139642715454, 0.31433865427970886, -0.39565810561180115, 0.5648093223571777, 8.604726791381836, -0.40931427478790283, 4.828261852264404, -0.23497219383716583, 0.5807002782821655, 0.1782238483428955, -0.7109375, 0.28271484375, -0.64990234375, 0, 
354, 1024554844, 0.6524192690849304, 0.3143317401409149, -0.39565935730934143, 0.5648061037063599, 8.604568481445312, -0.42344146966934204, 4.8009161949157715, -0.30822888016700745, 0.538564920425415, 0.0944909080862999, -0.708984375, 0.27880859375, -0.64990234375, 0, 
355, 1024563177, 0.6524338722229004, 0.31431812047958374, -0.3956466317176819, 0.5648057460784912, 8.614748001098633, -0.4459511339664459, 4.799750804901123, -0.2906959354877472, 0.7562987208366394, 0.02660038135945797, -0.70654296875, 0.28076171875, -0.6474609375, 0, 
356, 1024571510, 0.652459979057312, 0.3142993748188019, -0.3956141471862793, 0.56480872631073, 8.584240913391113, -0.4515160620212555, 4.824141979217529, -0.23635536432266235, 1.0743378400802612, -0.10787436366081238, -0.7099609375, 0.27880859375, -0.64794921875, 0, 
357, 1024579843, 0.6524883508682251, 0.31427910923957825, -0.39557021856307983, 0.5648179650306702, 8.583395957946777, -0.4547349512577057, 4.804914474487305, -0.11461089551448822, 1.2050217390060425, -0.09314616024494171, -0.71044921875, 0.2783203125, -0.64892578125, 0, 
358, 1024588176, 0.6525173187255859, 0.31425559520721436, -0.39552798867225647, 0.5648271441459656, 8.569198608398438, -0.4352576434612274, 4.807046413421631, -0.1449381411075592, 1.2389861345291138, -0.07109230756759644, -0.7080078125, 0.27978515625, -0.64599609375, 0, 
359, 1024596509, 0.6525318026542664, 0.3142533302307129, -0.395494669675827, 0.5648350119590759, 8.58549976348877, -0.4277614653110504, 4.807347297668457, 0.016841357573866844, 0.8879814147949219, -0.049742840230464935, -0.71044921875, 0.2802734375, -0.6494140625, 0, 
360, 1024604842, 0.652534008026123, 0.3142518401145935, -0.3954694867134094, 0.5648509860038757, 8.55824089050293, -0.4053945243358612, 4.780316352844238, 0.061922408640384674, 0.8007906079292297, 0.14611639082431793, -0.71142578125, 0.28369140625, -0.6474609375, 0, 
361, 1024613175, 0.6525444984436035, 0.31424033641815186, -0.3954342007637024, 0.5648699402809143, 8.570115089416504, -0.41663169860839844, 4.780546188354492, 0.02620336040854454, 1.0035912990570068, 0.121385857462883, -0.71142578125, 0.2802734375, -0.650390625, 0, 
362, 1024621508, 0.6525399088859558, 0.3142387866973877, -0.39541786909103394, 0.564887523651123, 8.568069458007812, -0.4224470555782318, 4.741891860961914, 0.03751204535365105, 0.6908287405967712, 0.254413366317749, -0.70751953125, 0.2802734375, -0.64794921875, 0, 
363, 1024629841, 0.6525273323059082, 0.31424635648727417, -0.395402729511261, 0.5649085640907288, 8.568591117858887, -0.4377825856208801, 4.749645233154297, 0.15190520882606506, 0.5577627420425415, 0.3054625391960144, -0.7099609375, 0.28369140625, -0.6474609375, 0, 
364, 1024638174, 0.6525200605392456, 0.31425198912620544, -0.3953944444656372, 0.5649193525314331, 8.57590103149414, -0.4610794186592102, 4.8326897621154785, 0.02453843504190445, 0.5182527899742126, 0.2159792184829712, -0.7099609375, 0.28173828125, -0.6455078125, 0, 
365, 1024646507, 0.6525102853775024, 0.31426894664764404, -0.39537400007247925, 0.5649356245994568, 8.60519790649414, -0.46524909138679504, 4.7674479484558105, 0.2409018725156784, 0.5282679796218872, 0.16485320031642914, -0.7109375, 0.27978515625, -0.65185546875, 0, 
366, 1024654840, 0.6524947881698608, 0.3142857253551483, -0.395352840423584, 0.5649589896202087, 8.629189491271973, -0.47183728218078613, 4.768256664276123, 0.30383604764938354, 0.5578012466430664, 0.2636217176914215, -0.7109375, 0.279296875, -0.6484375, 0, 
367, 1024663173, 0.6524953842163086, 0.3142910897731781, -0.3953208327293396, 0.564977765083313, 8.619047164916992, -0.47915464639663696, 4.763428688049316, 0.19336186349391937, 0.7876632809638977, 0.12064303457736969, -0.71533203125, 0.28173828125, -0.65087890625, 0, 
368, 1024671506, 0.6524956226348877, 0.31430262327194214, -0.3952980637550354, 0.5649869441986084, 8.62429141998291, -0.4577392041683197, 4.757828712463379, 0.09674496948719025, 0.6391519904136658, 0.018980147317051888, -0.71044921875, 0.279296875, -0.6474609375, 0, 
369, 1024679839, 0.6524903178215027, 0.31430837512016296, -0.39526334404945374, 0.565014123916626, 8.61528491973877, -0.4410371482372284, 4.776790142059326, 0.28897979855537415, 0.8146864175796509, 0.2284533679485321, -0.70654296875, 0.2822265625, -0.6484375, 0, 
370, 1024688172, 0.652483344078064, 0.3143255114555359, -0.395216703414917, 0.5650453567504883, 8.598160743713379, -0.41706082224845886, 4.78654670715332, 0.5175356268882751, 0.8637375831604004, 0.15873141586780548, -0.712890625, 0.28173828125, -0.64794921875, 0, 
371, 1024696505, 0.6524792313575745, 0.3143342435359955, -0.3951629102230072, 0.565082848072052, 8.6283597946167, -0.40651753544807434, 4.795595169067383, 0.5157682299613953, 1.0146310329437256, 0.2127518355846405, -0.70751953125, 0.2822265625, -0.6484375, 0, 
372, 1024704838, 0.6524807214736938, 0.31433525681495667, -0.39510804414749146, 0.5651189684867859, 8.610420227050781, -0.3925408720970154, 4.780094623565674, 0.4235570430755615, 1.1289986371994019, 0.18642041087150574, -0.71044921875, 0.27880859375, -0.64990234375, 0, 
373, 1024713171, 0.6524819731712341, 0.3143315017223358, -0.39506325125694275, 0.5651508569717407, 8.609726905822754, -0.3845153748989105, 4.777047634124756, 0.28050145506858826, 1.0346614122390747, 0.22840212285518646, -0.70703125, 0.27783203125, -0.6474609375, 0, 
374, 1024721504, 0.6524868607521057, 0.31433069705963135, -0.3950198292732239, 0.5651761293411255, 8.610548973083496, -0.38435086607933044, 4.782547950744629, 0.2136867642402649, 1.0140292644500732, 0.10641434788703918, -0.70947265625, 0.27978515625, -0.64697265625, 0, 
375, 1024729837, 0.6524962782859802, 0.3143157362937927, -0.394986629486084, 0.5651967525482178, 8.615878105163574, -0.39610299468040466, 4.807833671569824, -0.007440934889018536, 1.0137089490890503, 0.1747659295797348, -0.70849609375, 0.2802734375, -0.65087890625, 0, 
376, 1024738170, 0.6525108218193054, 0.31429338455200195, -0.3949625492095947, 0.565209150314331, 8.609762191772461, -0.40053775906562805, 4.808956623077393, -0.21468570828437805, 1.0042060613632202, 0.13073505461215973, -0.70751953125, 0.2783203125, -0.64697265625, 0, 
377, 1024746503, 0.6525248885154724, 0.31426990032196045, -0.3949507474899292, 0.5652141571044922, 8.600077629089355, -0.3899157643318176, 4.780938625335693, -0.3542321026325226, 0.8459870219230652, 0.13452596962451935, -0.7109375, 0.279296875, -0.64990234375, 0, 
378, 1024754836, 0.6525485515594482, 0.31424185633659363, -0.39494800567626953, 0.565204381942749, 8.58707332611084, -0.37763434648513794, 4.781818389892578, -0.5917784571647644, 0.8099989295005798, -0.015125205740332603, -0.70849609375, 0.27880859375, -0.6494140625, 0, 
379, 1024763169, 0.6525848507881165, 0.3142088055610657, -0.39495378732681274, 0.565176784992218, 8.591852188110352, -0.36550313234329224, 4.797662258148193, -0.8503029346466064, 0.7414039969444275, -0.20118699967861176, -0.70947265625, 0.27880859375, -0.6474609375, 0, 
380, 1024771502, 0.6526331901550293, 0.3141593635082245, -0.39495861530303955, 0.5651450753211975, 8.590200424194336, -0.3734574317932129, 4.807389736175537, -1.0649757385253906, 0.9488025307655334, -0.25456708669662476, -0.7060546875, 0.28125, -0.64892578125, 0, 
381, 1024779835, 0.6526886224746704, 0.31412196159362793, -0.39496228098869324, 0.5650992393493652, 8.583433151245117, -0.3815755546092987, 4.798456192016602, -1.0546789169311523, 0.8193737864494324, -0.49795350432395935, -0.7080078125, 0.27978515625, -0.64892578125, 0, 
382, 1024788168, 0.6527392268180847, 0.3140968382358551, -0.394960880279541, 0.5650558471679688, 8.579728126525879, -0.4115388095378876, 4.7911529541015625, -0.8745210766792297, 0.7762265205383301, -0.5380525588989258, -0.70751953125, 0.28271484375, -0.6494140625, 0, 
383, 1024796501, 0.6527877449989319, 0.31406980752944946, -0.3949638605117798, 0.5650128126144409, 8.583032608032227, -0.4205947816371918, 4.820722579956055, -0.9113672971725464, 0.7199392914772034, -0.4794856905937195, -0.7099609375, 0.28076171875, -0.64990234375, 0, 
384, 1024804834, 0.6528414487838745, 0.3140406012535095, -0.39497026801109314, 0.5649624466896057, 8.610548973083496, -0.42767536640167236, 4.817246437072754, -1.021303653717041, 0.7261891961097717, -0.5670350790023804, -0.70947265625, 0.28271484375, -0.65087890625, 0, 
385, 1024813167, 0.6528899073600769, 0.3140104115009308, -0.39497026801109314, 0.5649233460426331, 8.607666969299316, -0.416374146938324, 4.789593696594238, -0.8936167359352112, 0.7874584197998047, -0.4394506812095642, -0.71435546875, 0.2802734375, -0.64794921875, 0, 
386, 1024821500, 0.6529378890991211, 0.31397634744644165, -0.39496105909347534, 0.5648932456970215, 8.594562530517578, -0.4149364233016968, 4.8190202713012695, -0.808654248714447, 0.9595860838890076, -0.3815368413925171, -0.70263671875, 0.28173828125, -0.64892578125, 0, 
387, 1024829833, 0.6529718041419983, 0.3139507472515106, -0.394949734210968, 0.5648760795593262, 8.596773147583008, -0.4384048879146576, 4.774987697601318, -0.5838636755943298, 0.8693214654922485, -0.20305684208869934, -0.70947265625, 0.28076171875, -0.64990234375, 0, 
388, 1024838166, 0.6529973149299622, 0.3139388859272003, -0.3949364423751831, 0.5648624897003174, 8.590292930603027, -0.4632038176059723, 4.806760311126709, -0.3866596519947052, 0.7731143236160278, -0.19468098878860474, -0.70751953125, 0.28369140625, -0.64794921875, 0, 
389, 1024846499, 0.6530136466026306, 0.313925176858902, -0.3949337601661682, 0.5648531913757324, 8.58481502532959, -0.46014204621315, 4.809336185455322, -0.4252091348171234, 0.6371541023254395, -0.023321762681007385, -0.70751953125, 0.28125, -0.65087890625, 0, 
390, 1024854832, 0.6530210375785828, 0.31392163038253784, -0.39492955803871155, 0.5648494958877563, 8.582117080688477, -0.43635204434394836, 4.796782493591309, -0.28051427006721497, 0.5723244547843933, 0.010860435664653778, -0.70654296875, 0.28125, -0.64892578125, 0, 
391, 1024863165, 0.6530253291130066, 0.31391534209251404, -0.39493048191070557, 0.5648474097251892, 8.594926834106445, -0.4310806691646576, 4.773956775665283, -0.2964463233947754, 0.5147180557250977, 0.11098647117614746, -0.708984375, 0.2802734375, -0.650390625, 0, 
392, 1024871498, 0.6530324220657349, 0.31391167640686035, -0.3949306905269623, 0.5648410320281982, 8.564812660217285, -0.453662246465683, 4.771646499633789, -0.3002628684043884, 0.5184321403503418, 0.025537390261888504, -0.7099609375, 0.2783203125, -0.64892578125, 0, 
393, 1024879831, 0.6530388593673706, 0.31391188502311707, -0.394929438829422, 0.5648344159126282, 8.555872917175293, -0.4388340711593628, 4.768964767456055, -0.2531326711177826, 0.4752209186553955, 0.008350240997970104, -0.71142578125, 0.28173828125, -0.64794921875, 0, 
394, 1024888164, 0.6530400514602661, 0.31391096115112305, -0.39492905139923096, 0.5648337602615356, 8.557226181030273, -0.42919182777404785, 4.768364906311035, -0.21427586674690247, 0.49545609951019287, 0.10729802399873734, -0.70703125, 0.2802734375, -0.64990234375, 0, 
395, 1024896497, 0.6530356407165527, 0.31390517950057983, -0.3949357271194458, 0.5648373365402222, 8.554585456848145, -0.4169606864452362, 4.787426471710205, -0.26782241463661194, 0.43622320890426636, 0.25005897879600525, -0.708984375, 0.28076171875, -0.64892578125, 0, 
396, 1024904830, 0.6530271172523499, 0.31390655040740967, -0.39493921399116516, 0.5648440718650818, 8.54761028289795, -0.40276944637298584, 4.772812366485596, -0.15085503458976746, 0.42253240942955017, 0.2462296336889267, -0.7060546875, 0.27783203125, -0.64794921875, 0, 
397, 1024913163, 0.6530197858810425, 0.31390735507011414, -0.3949369490146637, 0.5648537278175354, 8.56002140045166, -0.398720920085907, 4.811467170715332, -0.09227526932954788, 0.4753744900226593, 0.25432372093200684, -0.70947265625, 0.28076171875, -0.65185546875, 0, 
398, 1024921496, 0.6530072093009949, 0.31390976905822754, -0.3949422538280487, 0.5648630857467651, 8.5468111038208, -0.4135631024837494, 4.84950590133667, -0.11883723735809326, 0.38682618737220764, 0.3048606216907501, -0.7099609375, 0.27978515625, -0.6513671875, 0, 
399, 1024929829, 0.6530023217201233, 0.3139111399650574, -0.3949419856071472, 0.5648683309555054, 8.5579833984375, -0.42789021134376526, 4.810680389404297, -0.13738194108009338, 0.447685569524765, 0.2012254148721695, -0.7119140625, 0.27783203125, -0.6484375, 0, 
400, 1024938162, 0.6529952883720398, 0.31390854716300964, -0.3949432671070099, 0.564876914024353, 8.541825294494629, -0.42686736583709717, 4.805787563323975, -0.15185397863388062, 0.4885914921760559, 0.2706400156021118, -0.7080078125, 0.28076171875, -0.6494140625, 0, 
401, 1024946495, 0.6529924273490906, 0.31391072273254395, -0.3949486315250397, 0.5648753643035889, 8.550737380981445, -0.4599277973175049, 4.789722442626953, -0.21951401233673096, 0.3711887300014496, 0.14468203485012054, -0.7060546875, 0.28125, -0.646484375, 0, 
402, 1024954828, 0.6529816389083862, 0.31393614411354065, -0.3949586749076843, 0.5648665428161621, 8.558541297912598, -0.44187402725219727, 4.826817035675049, -0.04400525614619255, 0.09739813208580017, 0.029315492138266563, -0.70751953125, 0.28173828125, -0.64892578125, 0, 
403, 1024963161, 0.6529631018638611, 0.31397056579589844, -0.3949744999408722, 0.5648577809333801, 8.587016105651855, -0.40751177072525024, 4.821660041809082, 0.015983281657099724, -0.08815138041973114, 0.07146371155977249, -0.708984375, 0.28125, -0.64892578125, 0, 
404, 1024971494, 0.6529391407966614, 0.3140103816986084, -0.3949870765209198, 0.5648545622825623, 8.608782768249512, -0.4235627353191376, 4.804929256439209, 0.14156988263130188, -0.08492399007081985, 0.10891173779964447, -0.70556640625, 0.27880859375, -0.64697265625, 0, 
405, 1024979827, 0.6529166102409363, 0.3140411376953125, -0.39500024914741516, 0.5648543238639832, 8.608882904052734, -0.39900705218315125, 4.785073280334473, 0.06755755096673965, -0.02161841280758381, 0.18722723424434662, -0.7080078125, 0.2841796875, -0.6494140625, 0, 
406, 1024988160, 0.6528906226158142, 0.3140791654586792, -0.39501601457595825, 0.5648522973060608, 8.598532676696777, -0.3547237813472748, 4.818991661071777, 0.10770786553621292, -0.10508240759372711, 0.15640053153038025, -0.7099609375, 0.2783203125, -0.65283203125, 0, 
407, 1024996493, 0.6528676748275757, 0.31410691142082214, -0.395027756690979, 0.5648552179336548, 8.592854499816895, -0.35324326157569885, 4.784200668334961, 0.0712587982416153, 0.025383707135915756, 0.22986215353012085, -0.70458984375, 0.28125, -0.64599609375, 0, 
408, 1025004826, 0.6528615355491638, 0.3141126334667206, -0.39503616094589233, 0.5648530721664429, 8.594061851501465, -0.3624846339225769, 4.790680885314941, -0.1789282113313675, 0.318128764629364, 0.1596791297197342, -0.70947265625, 0.279296875, -0.64501953125, 0, 
409, 1025013159, 0.652869462966919, 0.3141004145145416, -0.39502987265586853, 0.5648549795150757, 8.578934669494629, -0.3551098704338074, 4.7968902587890625, -0.2858932912349701, 0.6618205904960632, 0.11959285289049149, -0.708984375, 0.27880859375, -0.64794921875, 0, 
410, 1025021492, 0.6528885960578918, 0.3140772581100464, -0.3950166702270508, 0.56485515832901, 8.557940483093262, -0.3825984299182892, 4.801202774047852, -0.3770543038845062, 0.8841009140014648, 0.04193050041794777, -0.708984375, 0.27978515625, -0.6494140625, 0, 
411, 1025029825, 0.6529156565666199, 0.3140547275543213, -0.39500692486763, 0.5648432374000549, 8.550186157226562, -0.3953877091407776, 4.824735641479492, -0.5098128914833069, 0.8184771537780762, -0.11222875863313675, -0.7099609375, 0.28271484375, -0.646484375, 0, 
412, 1025038158, 0.6529372334480286, 0.3140311539173126, -0.39500972628593445, 0.564829409122467, 8.520824432373047, -0.4178190231323242, 4.792898178100586, -0.5751292109489441, 0.6942737698554993, -0.02065787836909294, -0.70849609375, 0.28271484375, -0.64794921875, 0, 
413, 1025046491, 0.6529589891433716, 0.3139972686767578, -0.39501672983169556, 0.5648180842399597, 8.537261009216309, -0.4413160979747772, 4.790437698364258, -0.716430127620697, 0.7283023595809937, 0.06699403375387192, -0.7099609375, 0.283203125, -0.650390625, 0, 
414, 1025054824, 0.6529744863510132, 0.3139568567276001, -0.3950425088405609, 0.5648045539855957, 8.520752906799316, -0.44178080558776855, 4.78359317779541, -0.8996615409851074, 0.5899726152420044, 0.2087816298007965, -0.7099609375, 0.28125, -0.64892578125, 0, 
415, 1025063157, 0.6529814004898071, 0.3139233887195587, -0.3950619697570801, 0.5648015141487122, 8.556144714355469, -0.4306081235408783, 4.788020610809326, -0.7002036571502686, 0.5680469870567322, 0.308754026889801, -0.70947265625, 0.28271484375, -0.64892578125, 0, 
416, 1025071490, 0.6529696583747864, 0.3139009475708008, -0.39508435130119324, 0.5648120641708374, 8.567689895629883, -0.40593814849853516, 4.819528579711914, -0.4563560485839844, 0.4370045065879822, 0.5258090496063232, -0.7109375, 0.2822265625, -0.6484375, 0, 
417, 1025079823, 0.6529393196105957, 0.3139086067676544, -0.39512014389038086, 0.5648178458213806, 8.586714744567871, -0.38223356008529663, 4.797211170196533, -0.24944421648979187, -0.06176872178912163, 0.5254247784614563, -0.70947265625, 0.28125, -0.6484375, 0, 
418, 1025088156, 0.6529054641723633, 0.3139151632785797, -0.3951570391654968, 0.5648275017738342, 8.637773513793945, -0.36313551664352417, 4.811581611633301, -0.22444471716880798, -0.04250682145357132, 0.5912277698516846, -0.70849609375, 0.2822265625, -0.6494140625, 0, 
419, 1025096489, 0.6528803110122681, 0.3139052093029022, -0.3951983153820038, 0.5648331642150879, 8.627801895141602, -0.34638357162475586, 4.827725410461426, -0.4732357859611511, 0.053405676037073135, 0.6029590964317322, -0.70849609375, 0.283203125, -0.64990234375, 0, 
420, 1025104822, 0.6528680920600891, 0.31387650966644287, -0.3952488601207733, 0.5648279786109924, 8.637923240661621, -0.33136260509490967, 4.834299087524414, -0.7965386509895325, 0.16165143251419067, 0.5539847016334534, -0.71142578125, 0.28125, -0.64794921875, 0, 
421, 1025113155, 0.6528845429420471, 0.31381314992904663, -0.39529404044151306, 0.5648125410079956, 8.630562782287598, -0.32015424966812134, 4.834012031555176, -1.2767798900604248, 0.5676882266998291, 0.3970206379890442, -0.70947265625, 0.28125, -0.65087890625, 0, 
422, 1025121488, 0.6529151797294617, 0.31374210119247437, -0.39533787965774536, 0.5647859573364258, 8.646771430969238, -0.3768904507160187, 4.830078601837158, -1.4111651182174683, 0.6900602579116821, 0.23850692808628082, -0.7119140625, 0.2802734375, -0.650390625, 0, 
423, 1025129821, 0.6529602408409119, 0.3136706054210663, -0.3953699469566345, 0.564751148223877, 8.629222869873047, -0.3895581066608429, 4.824068069458008, -1.4770063161849976, 0.8203470706939697, -0.011385527439415455, -0.71044921875, 0.28271484375, -0.64697265625, 0, 
424, 1025138154, 0.6530170440673828, 0.3136002719402313, -0.3953852355480194, 0.564713716506958, 8.638384819030762, -0.41698890924453735, 4.766536235809326, -1.3646879196166992, 1.0355322360992432, -0.19478346407413483, -0.71142578125, 0.28076171875, -0.64990234375, 0, 
425, 1025146487, 0.6530851125717163, 0.31353551149368286, -0.39538121223449707, 0.5646738409996033, 8.593276023864746, -0.4523561894893646, 4.793951988220215, -1.2631274461746216, 1.195800542831421, -0.4280266761779785, -0.70849609375, 0.283203125, -0.65087890625, 0, 
426, 1025154820, 0.6531512141227722, 0.31348535418510437, -0.395366907119751, 0.5646352767944336, 8.580121040344238, -0.4713151156902313, 4.808706283569336, -1.027348518371582, 1.1928036212921143, -0.5293309688568115, -0.7060546875, 0.2841796875, -0.646484375, 0, 
427, 1025163153, 0.6532137989997864, 0.31344401836395264, -0.3953443467617035, 0.5646016001701355, 8.542155265808105, -0.4724520146846771, 4.795860290527344, -0.851161003112793, 1.1776784658432007, -0.5357985496520996, -0.70751953125, 0.2841796875, -0.6494140625, 0, 
428, 1025171486, 0.6532594561576843, 0.31342020630836487, -0.3953254222869873, 0.5645753145217896, 8.549971580505371, -0.47326070070266724, 4.837203025817871, -0.6264088749885559, 0.9722651839256287, -0.43706849217414856, -0.70947265625, 0.2822265625, -0.65087890625, 0, 
429, 1025179819, 0.6532986760139465, 0.31339555978775024, -0.3952992260456085, 0.5645620822906494, 8.544100761413574, -0.46618616580963135, 4.831924915313721, -0.4605567157268524, 1.041807770729065, -0.277619868516922, -0.71044921875, 0.27978515625, -0.6533203125, 0, 
430, 1025188152, 0.6533311009407043, 0.3133894205093384, -0.39526814222335815, 0.5645496845245361, 8.545894622802734, -0.4674525856971741, 4.808441638946533, -0.16263757646083832, 0.9288745522499084, -0.3162205219268799, -0.71142578125, 0.2841796875, -0.64794921875, 0, 
431, 1025196485, 0.6533536911010742, 0.3133861720561981, -0.39523184299468994, 0.5645507574081421, 8.56468391418457, -0.41831979155540466, 4.814964294433594, -0.0412261076271534, 0.9379675984382629, -0.18074683845043182, -0.70849609375, 0.2822265625, -0.64794921875, 0, 
432, 1025204818, 0.6533589959144592, 0.31339892745018005, -0.39519089460372925, 0.5645660161972046, 8.575328826904297, -0.4054875075817108, 4.797791004180908, 0.3225088119506836, 0.8434767127037048, -0.0189417265355587, -0.71044921875, 0.28173828125, -0.65087890625, 0, 
433, 1025213151, 0.6533731818199158, 0.3133961856365204, -0.395142525434494, 0.5645849704742432, 8.565579414367676, -0.40075233578681946, 4.817875862121582, 0.1903650015592575, 1.0727497339248657, -0.008875332772731781, -0.70703125, 0.28369140625, -0.6484375, 0, 
434, 1025221484, 0.6533890962600708, 0.31338971853256226, -0.3951026201248169, 0.5645980834960938, 8.562904357910156, -0.4006665050983429, 4.856573104858398, 0.02161841280758381, 1.0357115268707275, -0.04463280364871025, -0.70947265625, 0.287109375, -0.65087890625, 0, 
435, 1025229817, 0.6534050107002258, 0.31338033080101013, -0.39506807923316956, 0.5646090507507324, 8.558969497680664, -0.4431043565273285, 4.834283828735352, -0.028700748458504677, 0.974672794342041, 0.0023821238428354263, -0.7060546875, 0.28173828125, -0.6474609375, 0, 
436, 1025238150, 0.6534176468849182, 0.3133712708950043, -0.3950451612472534, 0.5646156072616577, 8.54932689666748, -0.4138992130756378, 4.812439441680908, -0.022066662088036537, 0.849931538105011, 0.07884061336517334, -0.70947265625, 0.28466796875, -0.64892578125, 0, 
437, 1025246483, 0.6534240245819092, 0.31336233019828796, -0.3950207829475403, 0.5646302103996277, 8.55269718170166, -0.4377039074897766, 4.786282062530518, -0.04198172315955162, 0.8459997177124023, 0.1502659022808075, -0.70751953125, 0.2822265625, -0.6455078125, 0, 
438, 1025254816, 0.653429388999939, 0.31334877014160156, -0.3950035572052002, 0.5646436214447021, 8.560087203979492, -0.4441700875759125, 4.821410179138184, -0.11350949108600616, 0.8272373676300049, 0.20509320497512817, -0.7080078125, 0.28173828125, -0.646484375, 0, 
439, 1025263149, 0.6534247994422913, 0.31335100531578064, -0.394985169172287, 0.5646606087684631, 8.537153244018555, -0.4069322347640991, 4.783899307250977, 0.07187353819608688, 0.6550071835517883, 0.2217424511909485, -0.7099609375, 0.2841796875, -0.6494140625, 0, 
440, 1025271482, 0.6534169912338257, 0.31334182620048523, -0.39496323466300964, 0.5646899342536926, 8.572273254394531, -0.40833404660224915, 4.821229934692383, 0.08775436133146286, 0.8336665034294128, 0.39842936396598816, -0.70703125, 0.28271484375, -0.65087890625, 0, 
441, 1025279815, 0.6534081697463989, 0.31332656741142273, -0.39494991302490234, 0.5647178888320923, 8.60870361328125, -0.4037136137485504, 4.806166648864746, -0.04611842706799507, 0.7692723274230957, 0.46856117248535156, -0.70751953125, 0.28369140625, -0.6474609375, 0, 
442, 1025288148, 0.6534043550491333, 0.3133036494255066, -0.3949490189552307, 0.5647357106208801, 8.615148544311523, -0.37138277292251587, 4.862495422363281, -0.3385305106639862, 0.7249340415000916, 0.3980708122253418, -0.70849609375, 0.283203125, -0.65087890625, 0, 
443, 1025296481, 0.6534091830253601, 0.31327521800994873, -0.39496245980262756, 0.5647364258766174, 8.616536140441895, -0.4002373218536377, 4.850700378417969, -0.5786896347999573, 0.5895628929138184, 0.30606451630592346, -0.70703125, 0.2822265625, -0.64794921875, 0, 
444, 1025304814, 0.6534255743026733, 0.3132411539554596, -0.39496877789497375, 0.5647319555282593, 8.619268417358398, -0.3937494158744812, 4.83074426651001, -0.6552249789237976, 0.7580276131629944, 0.15599070489406586, -0.71044921875, 0.28076171875, -0.650390625, 0, 
445, 1025313147, 0.653460681438446, 0.31320032477378845, -0.39496326446533203, 0.5647178888320923, 8.60720157623291, -0.37540265917778015, 4.8427605628967285, -0.7534042596817017, 0.9561281204223633, -0.07547233998775482, -0.70751953125, 0.28369140625, -0.6494140625, 0, 
446, 1025321480, 0.6535050272941589, 0.31314972043037415, -0.3949586749076843, 0.5646976232528687, 8.583396911621094, -0.3762681484222412, 4.823648452758789, -0.9603160619735718, 1.071648359298706, -0.17762190103530884, -0.7080078125, 0.279296875, -0.650390625, 0, 
447, 1025329813, 0.6535684466362, 0.3130961060523987, -0.39493489265441895, 0.5646706819534302, 8.580171585083008, -0.3713684678077698, 4.796889781951904, -0.9182062745094299, 1.3178009986877441, -0.4211876392364502, -0.71044921875, 0.283203125, -0.64697265625, 0, 
