PacketCounter,SampleTimeFine,Quat_W,Quat_X,Quat_Y,Quat_Z,Acc_X,Acc_Y,Acc_Z,Gyr_X,Gyr_Y,Gyr_Z,Mag_X,Mag_Y,Mag_Z,Status,
0, 1049953828, 0.5376375317573547, 0.4599917531013489, -0.5159104466438293, 0.48290514945983887, 0, 0, 0, 0, 0, 0, -0.99853515625, 0.24462890625, -0.25830078125, 0, 
1, 1049962161, 0.5379898548126221, 0.4597318172454834, -0.5158114433288574, 0.4828660488128662, 10.14930248260498, 0.3838770389556885, 0.10177387297153473, -3.9707186222076416, 5.1704254150390625, -1.2893437147140503, -0.998046875, 0.24267578125, -0.25927734375, 0, 
2, 1049970494, 0.5383529663085938, 0.4594438672065735, -0.515748918056488, 0.4828023314476013, 10.172614097595215, 0.3692750334739685, 0.12518425285816193, -4.929959774017334, 5.01926326751709, -1.1167423725128174, -1.00146484375, 0.24609375, -0.259765625, 0, 
3, 1049978827, 0.538766086101532, 0.45909833908081055, -0.5157134532928467, 0.48270830512046814, 10.150788307189941, 0.3557520806789398, 0.11206313967704773, -5.799384117126465, 5.352889060974121, -1.0915892124176025, -0.99853515625, 0.24755859375, -0.26220703125, 0, 
4, 1049987160, 0.5392659902572632, 0.4586879014968872, -0.515608549118042, 0.48265203833580017, 10.129590034484863, 0.33018240332603455, 0.08839729428291321, -6.263052940368652, 7.163661956787109, -1.3661226034164429, -0.9970703125, 0.24755859375, -0.25830078125, 0, 
5, 1049995493, 0.5398157238960266, 0.45824140310287476, -0.5154457688331604, 0.48263558745384216, 10.129719734191895, 0.3043646216392517, 0.13068237900733948, -6.0164899826049805, 8.42406177520752, -1.5095109939575195, -0.998046875, 0.24560546875, -0.265625, 0, 
6, 1050003826, 0.5403492450714111, 0.45779949426651, -0.5152806639671326, 0.48263439536094666, 10.115882873535156, 0.31654566526412964, 0.2280603051185608, -5.827584266662598, 8.406668663024902, -1.3323372602462769, -0.998046875, 0.24658203125, -0.265625, 0, 
7, 1050012159, 0.5408621430397034, 0.4573593735694885, -0.5151434540748596, 0.4826236963272095, 10.076777458190918, 0.3342892825603485, 0.18248936533927917, -5.865391254425049, 7.9673848152160645, -1.107060194015503, -0.99853515625, 0.24560546875, -0.26416015625, 0, 
8, 1050020492, 0.541405975818634, 0.45690658688545227, -0.5149605870246887, 0.4826377034187317, 10.054519653320312, 0.3335327208042145, 0.17027170956134796, -5.6735663414001465, 8.778101921081543, -1.3205548524856567, -1, 0.2451171875, -0.267578125, 0, 
9, 1050028825, 0.5419886708259583, 0.45643046498298645, -0.5147220492362976, 0.4826888144016266, 9.99841594696045, 0.3605818450450897, 0.2091769129037857, -5.460993766784668, 9.844754219055176, -1.4920932054519653, -0.99609375, 0.244140625, -0.26220703125, 0, 
10, 1050037158, 0.5425594449043274, 0.45595061779022217, -0.5144618153572083, 0.4827784299850464, 9.911833763122559, 0.3765241205692291, 0.245727077126503, -4.9843645095825195, 10.199743270874023, -1.2270629405975342, -0.99609375, 0.24462890625, -0.26904296875, 0, 
11, 1050045491, 0.5431121587753296, 0.4554724395275116, -0.5141667723655701, 0.48292276263237, 9.855110168457031, 0.3530377447605133, 0.25579679012298584, -4.253640651702881, 10.651321411132812, -0.9367253184318542, -0.99365234375, 0.2451171875, -0.2685546875, 0, 
12, 1050053824, 0.5436270833015442, 0.45501160621643066, -0.5138606429100037, 0.4831031858921051, 9.761650085449219, 0.3658197522163391, 0.31030115485191345, -3.582625150680542, 10.59284496307373, -0.6040477752685547, -0.9951171875, 0.24462890625, -0.2705078125, 0, 
13, 1050062157, 0.5440982580184937, 0.454562783241272, -0.513562798500061, 0.48331189155578613, 9.712112426757812, 0.3800722658634186, 0.2889850437641144, -3.0516676902770996, 10.30314826965332, -0.1394055038690567, -0.9951171875, 0.2470703125, -0.27392578125, 0, 
14, 1050070490, 0.5445312857627869, 0.4541301727294922, -0.5132923126220703, 0.4835183918476105, 9.689905166625977, 0.36061224341392517, 0.2813681662082672, -2.9149129390716553, 9.720602989196777, 0.16175392270088196, -0.99560546875, 0.24755859375, -0.275390625, 0, 
15, 1050078823, 0.5449323058128357, 0.4537033140659332, -0.5130339860916138, 0.4837413728237152, 9.681122779846191, 0.33170217275619507, 0.24400989711284637, -2.6096296310424805, 9.456789016723633, 0.5241825580596924, -0.994140625, 0.2490234375, -0.27294921875, 0, 
16, 1050087156, 0.5453090667724609, 0.45329275727272034, -0.5127652883529663, 0.4839865565299988, 9.684030532836914, 0.32029420137405396, 0.24822567403316498, -2.2328438758850098, 9.406891822814941, 0.6750503182411194, -0.99365234375, 0.24755859375, -0.271484375, 0, 
17, 1050095489, 0.5456551909446716, 0.45289042592048645, -0.5124927759170532, 0.484261691570282, 9.730498313903809, 0.3066781461238861, 0.23942582309246063, -1.621419906616211, 9.336954116821289, 1.01975417137146, -0.9931640625, 0.25048828125, -0.27783203125, 0, 
18, 1050103822, 0.5459540486335754, 0.45252370834350586, -0.5122292041778564, 0.4845464527606964, 9.758951187133789, 0.30815988779067993, 0.26526105403900146, -0.9025816321372986, 8.775078773498535, 1.230968952178955, -0.9931640625, 0.2509765625, -0.2763671875, 0, 
19, 1050112155, 0.546215295791626, 0.4521907567977905, -0.5119690299034119, 0.48483768105506897, 9.789807319641113, 0.298439621925354, 0.22669163346290588, -0.5417026877403259, 8.283464431762695, 1.29228937625885, -0.9931640625, 0.248046875, -0.27880859375, 0, 
20, 1050120488, 0.546454131603241, 0.45188939571380615, -0.5116814374923706, 0.4851529002189636, 9.837732315063477, 0.2472561001777649, 0.2447260022163391, -0.24232345819473267, 8.288996696472168, 1.2140123844146729, -0.99169921875, 0.24658203125, -0.27734375, 0, 
21, 1050128821, 0.5467051267623901, 0.45157432556152344, -0.5114033818244934, 0.4854566752910614, 9.848394393920898, 0.28344428539276123, 0.2240106761455536, -0.13485893607139587, 8.306042671203613, 1.2194297313690186, -0.99169921875, 0.2470703125, -0.27978515625, 0, 
22, 1050137154, 0.5469362735748291, 0.45125213265419006, -0.5111536979675293, 0.48575884103775024, 9.81634521484375, 0.348751038312912, 0.278056263923645, -0.1604091376066208, 8.005600929260254, 1.5849319696426392, -0.9921875, 0.2490234375, -0.2841796875, 0, 
23, 1050145487, 0.547143280506134, 0.45096156001091003, -0.5109131932258606, 0.4860486388206482, 9.798067092895508, 0.3986387848854065, 0.2690129280090332, -0.027266355231404305, 7.463886737823486, 1.467977523803711, -0.9892578125, 0.25048828125, -0.2822265625, 0, 
24, 1050153820, 0.5473224520683289, 0.4507088363170624, -0.5106869339942932, 0.48631906509399414, 9.773284912109375, 0.4794113039970398, 0.28994545340538025, -0.06637928634881973, 6.806086540222168, 1.3254342079162598, -0.9921875, 0.25, -0.2822265625, 0, 
25, 1050162153, 0.5475011467933655, 0.4504536986351013, -0.5105178356170654, 0.48653197288513184, 9.749042510986328, 0.5314618945121765, 0.2633088529109955, -0.6021010875701904, 6.01324987411499, 1.2736679315567017, -0.98974609375, 0.24951171875, -0.28466796875, 0, 
26, 1050170486, 0.5476972460746765, 0.45016905665397644, -0.5103824734687805, 0.48671630024909973, 9.728633880615234, 0.516260027885437, 0.26118582487106323, -1.2733221054077148, 5.919782638549805, 1.374280571937561, -0.98828125, 0.24951171875, -0.28369140625, 0, 
27, 1050178819, 0.5479169487953186, 0.44985443353652954, -0.5102474689483643, 0.48690173029899597, 9.698131561279297, 0.43891996145248413, 0.2602752149105072, -1.7247471809387207, 6.273335933685303, 1.4208471775054932, -0.990234375, 0.248046875, -0.2900390625, 0, 
28, 1050187152, 0.548170804977417, 0.4495082199573517, -0.5100852251052856, 0.48710551857948303, 9.695125579833984, 0.3762127459049225, 0.2722288966178894, -1.6388626098632812, 7.058386325836182, 1.41426420211792, -0.98828125, 0.25146484375, -0.287109375, 0, 
29, 1050195485, 0.5484142899513245, 0.4491586983203888, -0.5098952054977417, 0.4873529076576233, 9.680848121643066, 0.32376569509506226, 0.35335084795951843, -1.3313897848129272, 7.471443176269531, 1.6319342851638794, -0.98779296875, 0.25146484375, -0.28955078125, 0, 
30, 1050203818, 0.5486223101615906, 0.4488082826137543, -0.5097349882125854, 0.48760905861854553, 9.686040878295898, 0.31931406259536743, 0.45410603284835815, -1.138744831085205, 7.075906753540039, 2.1509039402008057, -0.99072265625, 0.25048828125, -0.291015625, 0, 
31, 1050212151, 0.5487543940544128, 0.44846898317337036, -0.5096190571784973, 0.4878937602043152, 9.657463073730469, 0.3286065459251404, 0.4661403298377991, -0.8027629852294922, 6.292085647583008, 3.0471205711364746, -0.98828125, 0.25146484375, -0.28857421875, 0, 
32, 1050220484, 0.5488488674163818, 0.44812995195388794, -0.5095162391662598, 0.488206148147583, 9.647435188293457, 0.3607444763183594, 0.48458293080329895, -0.3905273973941803, 6.121417045593262, 3.606689214706421, -0.98681640625, 0.25341796875, -0.29052734375, 0, 
33, 1050228817, 0.5489439964294434, 0.4477284550666809, -0.5094559788703918, 0.4885304272174835, 9.65345573425293, 0.349131315946579, 0.4929717183113098, -1.1411782503128052, 6.27431058883667, 4.372888565063477, -0.9892578125, 0.24951171875, -0.29296875, 0, 
34, 1050237150, 0.5490989089012146, 0.44722652435302734, -0.5093913078308105, 0.4888833165168762, 9.724624633789062, 0.23878049850463867, 0.5411237478256226, -1.8588893413543701, 7.598592281341553, 4.892139911651611, -0.98828125, 0.25048828125, -0.2890625, 0, 
35, 1050245483, 0.5493482351303101, 0.4465761184692383, -0.509281575679779, 0.4893120527267456, 9.768331527709961, 0.14575745165348053, 0.593044638633728, -2.9035532474517822, 10.044225692749023, 5.563783645629883, -0.98876953125, 0.251953125, -0.2958984375, 0, 
36, 1050253816, 0.5497039556503296, 0.4457763135433197, -0.5091338157653809, 0.4897953271865845, 9.778801918029785, 0.04035838693380356, 0.6679883599281311, -4.335055351257324, 12.441871643066406, 6.067333698272705, -0.98583984375, 0.2529296875, -0.29443359375, 0, 
37, 1050262149, 0.5501483678817749, 0.44483330845832825, -0.5089885592460632, 0.49030449986457825, 9.777080535888672, -0.04377360641956329, 0.7061992883682251, -5.510302543640137, 14.142084121704102, 6.688570022583008, -0.98779296875, 0.25439453125, -0.296875, 0, 
38, 1050270482, 0.5506324172019958, 0.4438104033470154, -0.5088175535202026, 0.49086523056030273, 9.753609657287598, -0.13081631064414978, 0.7663621306419373, -5.8657002449035645, 15.489137649536133, 7.227288722991943, -0.9873046875, 0.2578125, -0.298828125, 0, 
39, 1050278815, 0.5511371493339539, 0.44274479150772095, -0.5086199641227722, 0.4914654791355133, 9.6995849609375, -0.20577484369277954, 0.7626677751541138, -5.816610813140869, 16.34443473815918, 7.5114665031433105, -0.982421875, 0.25341796875, -0.30078125, 0, 
40, 1050287148, 0.5516847968101501, 0.44168907403945923, -0.5084118843078613, 0.4920158386230469, 9.656264305114746, -0.2558582127094269, 0.716164767742157, -6.236235618591309, 16.373699188232422, 6.7290143966674805, -0.97998046875, 0.2607421875, -0.30078125, 0, 
41, 1050295481, 0.5522797107696533, 0.4406382441520691, -0.5081931352615356, 0.49251648783683777, 9.58384895324707, -0.3271600902080536, 0.7232122421264648, -6.804819583892822, 16.431150436401367, 5.913354873657227, -0.98291015625, 0.26171875, -0.3046875, 0, 
42, 1050303814, 0.5529309511184692, 0.43960022926330566, -0.5080114006996155, 0.4929004907608032, 9.482069969177246, -0.38313955068588257, 0.6455540060997009, -8.049800872802734, 15.767358779907227, 4.801158905029297, -0.982421875, 0.2626953125, -0.306640625, 0, 
43, 1050312147, 0.5536149144172668, 0.4386371970176697, -0.5078321099281311, 0.4931754469871521, 9.38534164428711, -0.3916950821876526, 0.44059550762176514, -8.52164077758789, 14.792019844055176, 3.2204532623291016, -0.9814453125, 0.26708984375, -0.310546875, 0, 
44, 1050320480, 0.5543084144592285, 0.43777939677238464, -0.5075834393501282, 0.4934147596359253, 9.402092933654785, -0.5600687861442566, 0.41293036937713623, -7.595621109008789, 14.479459762573242, 1.7435741424560547, -0.97705078125, 0.26416015625, -0.30908203125, 0, 
45, 1050328813, 0.5550018548965454, 0.4370041489601135, -0.5073100924491882, 0.49360352754592896, 9.500687599182129, -0.6233091950416565, 0.3087659180164337, -7.112728595733643, 13.779282569885254, 0.6217344403266907, -0.9794921875, 0.2666015625, -0.30908203125, 0, 
46, 1050337146, 0.5556261539459229, 0.43639305233955383, -0.5070288777351379, 0.4937306344509125, 9.613990783691406, -0.720982015132904, 0.2440047711133957, -5.864571571350098, 11.898273468017578, -0.5631418228149414, -0.98046875, 0.265625, -0.31005859375, 0, 
47, 1050345479, 0.5561156868934631, 0.43586111068725586, -0.506858229637146, 0.49382445216178894, 9.989949226379395, -0.6634267568588257, 0.36939066648483276, -5.391528129577637, 9.350605964660645, 0.2010461539030075, -0.97900390625, 0.2666015625, -0.314453125, 0, 
48, 1050353812, 0.5563929677009583, 0.4352961778640747, -0.5068620443344116, 0.494006484746933, 9.967272758483887, -1.0498079061508179, 0.16717880964279175, -4.973606586456299, 7.316528797149658, 3.6016693115234375, -0.97607421875, 0.26611328125, -0.31640625, 0, 
49, 1050362145, 0.5564395785331726, 0.43498262763023376, -0.5068614482879639, 0.4942306876182556, 10.137908935546875, -1.082751750946045, -0.1114078238606453, -1.312511920928955, 4.261491775512695, 3.701974630355835, -0.978515625, 0.265625, -0.31396484375, 0, 
50, 1050370478, 0.5563742518424988, 0.4346472918987274, -0.5067757368087769, 0.4946872889995575, 10.462363243103027, -1.0878288745880127, -0.1292179375886917, 1.3356797695159912, 5.6972975730896, 5.892196178436279, -0.97705078125, 0.267578125, -0.314453125, 0, 
51, 1050378811, 0.5562390685081482, 0.43422383069992065, -0.5066401958465576, 0.49534985423088074, 10.533340454101562, -1.116436243057251, -0.3084259629249573, 2.9073309898376465, 7.396430492401123, 8.252381324768066, -0.97607421875, 0.2646484375, -0.31884765625, 0, 
52, 1050387144, 0.5560051202774048, 0.43385112285614014, -0.5065044164657593, 0.49607688188552856, 10.63577938079834, -1.074811339378357, -0.4019150733947754, 4.283929347991943, 6.775067329406738, 9.068208694458008, -0.97607421875, 0.27001953125, -0.318359375, 0, 
53, 1050395477, 0.5556938648223877, 0.43361061811447144, -0.50637286901474, 0.49676984548568726, 10.545470237731934, -1.249667763710022, -0.5499609708786011, 5.541665554046631, 5.074410438537598, 8.434408187866211, -0.974609375, 0.26953125, -0.3212890625, 0, 
54, 1050403810, 0.5554301738739014, 0.43342459201812744, -0.5061619877815247, 0.49744147062301636, 10.595381736755371, -1.4465464353561401, -0.464988648891449, 6.014145851135254, 5.539950370788574, 7.097628116607666, -0.97509765625, 0.2705078125, -0.31787109375, 0, 
55, 1050412143, 0.5551519393920898, 0.43316930532455444, -0.5061259269714355, 0.4980108439922333, 10.6339750289917, -1.4213745594024658, -0.44820263981819153, 3.7185983657836914, 3.9394443035125732, 7.936367511749268, -0.97412109375, 0.27197265625, -0.3193359375, 0, 
56, 1050420476, 0.5547839403152466, 0.43278276920318604, -0.5061952471733093, 0.4986860752105713, 10.81517505645752, -1.3945969343185425, -0.4463360905647278, 3.2999072074890137, 4.070050239562988, 10.91130542755127, -0.97509765625, 0.275390625, -0.3203125, 0, 
57, 1050428809, 0.5543043613433838, 0.43225738406181335, -0.5062641501426697, 0.49960437417030334, 10.982748985290527, -1.3751928806304932, -0.4155888259410858, 4.565187454223633, 5.665370464324951, 14.48427677154541, -0.9755859375, 0.27490234375, -0.3251953125, 0, 
58, 1050437142, 0.5537540316581726, 0.4317995309829712, -0.5061382055282593, 0.5007367134094238, 11.018129348754883, -1.3052868843078613, -0.0482972115278244, 7.958037853240967, 7.511197566986084, 14.938252449035645, -0.9755859375, 0.28076171875, -0.32373046875, 0, 
59, 1050445475, 0.5530412197113037, 0.4312974512577057, -0.5062998533248901, 0.5017925500869751, 10.86851692199707, -1.2998372316360474, -0.12665125727653503, 6.445516586303711, 3.9953606128692627, 17.52377700805664, -0.97265625, 0.27685546875, -0.32080078125, 0, 
60, 1050453808, 0.5523603558540344, 0.4305059611797333, -0.5066260099411011, 0.5028918981552124, 10.72462272644043, -1.305554747581482, 0.13053534924983978, 3.3336172103881836, 5.256043434143066, 20.642343521118164, -0.97021484375, 0.28076171875, -0.322265625, 0, 
61, 1050462141, 0.5520752668380737, 0.4294701814651489, -0.5077912211418152, 0.5029153227806091, 10.417708396911621, -1.8247060775756836, 0.9630868434906006, -14.275959968566895, -3.075592279434204, 16.38581657409668, -0.970703125, 0.283203125, -0.322265625, 0, 
62, 1050470474, 0.5515181422233582, 0.42845839262008667, -0.5089849829673767, 0.5031830072402954, 10.30671501159668, -0.7333279252052307, -0.1466759741306305, -11.09244155883789, -3.871554374694824, 20.11084747314453, -0.970703125, 0.28515625, -0.31689453125, 0, 
63, 1050478807, 0.5512272119522095, 0.4271126687526703, -0.5101903080940247, 0.5034253597259521, 10.105242729187012, -1.0250489711761475, 0.054000839591026306, -15.33582592010498, 0.02382124960422516, 20.494779586791992, -0.9736328125, 0.29052734375, -0.3212890625, 0, 
64, 1050487140, 0.5511325001716614, 0.42548149824142456, -0.5111685395240784, 0.5039175152778625, 9.856025695800781, -0.6241109371185303, -0.0863756537437439, -16.13726043701172, 6.640737533569336, 21.6087589263916, -0.97265625, 0.2978515625, -0.32080078125, 0, 
65, 1050495473, 0.5509994029998779, 0.42387712001800537, -0.5121203660964966, 0.504448413848877, 9.629500389099121, -0.6828354001045227, 0.18590150773525238, -14.44537353515625, 6.535758018493652, 21.914785385131836, -0.970703125, 0.29931640625, -0.3212890625, 0, 
66, 1050503806, 0.5509817004203796, 0.4222250282764435, -0.5132223963737488, 0.5047330856323242, 9.323283195495605, -0.6495541930198669, 0.11449716985225677, -18.1690731048584, 5.143264293670654, 20.470731735229492, -0.97216796875, 0.30126953125, -0.3203125, 0, 
67, 1050512139, 0.5508939027786255, 0.4207442104816437, -0.5145436525344849, 0.5047203302383423, 9.174354553222656, -0.596477210521698, 0.2702867388725281, -20.170669555664062, 0.034963447600603104, 18.757442474365234, -0.966796875, 0.3095703125, -0.32080078125, 0, 
68, 1050520472, 0.5505453944206238, 0.41959720849990845, -0.5158206224441528, 0.5047520995140076, 9.225278854370117, -0.42853420972824097, 0.21508881449699402, -15.535845756530762, -3.489978790283203, 18.28301239013672, -0.9677734375, 0.310546875, -0.3193359375, 0, 
69, 1050528805, 0.5500839352607727, 0.4187207520008087, -0.5170355439186096, 0.5047399401664734, 9.218035697937012, -0.6272100210189819, 0.24463626742362976, -12.692214965820312, -5.997600078582764, 16.46010971069336, -0.97021484375, 0.31640625, -0.31787109375, 0, 
70, 1050537138, 0.5496624708175659, 0.4179229140281677, -0.5183509588241577, 0.5045113563537598, 9.265474319458008, -0.5624233484268188, 0.06993013620376587, -14.641796112060547, -8.215128898620605, 14.55558967590332, -0.97216796875, 0.31591796875, -0.31494140625, 0, 
71, 1050545471, 0.5493486523628235, 0.41719529032707214, -0.519490122795105, 0.5042835474014282, 9.209287643432617, -0.6576448082923889, -0.11973587423563004, -13.423872947692871, -6.648906230926514, 12.311254501342773, -0.96728515625, 0.31982421875, -0.3125, 0, 
72, 1050553804, 0.5492971539497375, 0.41637033224105835, -0.5204820036888123, 0.5039985179901123, 9.21292781829834, -0.858385443687439, -0.2567685842514038, -15.101734161376953, -3.2620632648468018, 9.90500259399414, -0.966796875, 0.32177734375, -0.314453125, 0, 
73, 1050562137, 0.5494756698608398, 0.4154844880104065, -0.5212224721908569, 0.5037696957588196, 9.23734188079834, -1.0950264930725098, -0.21650618314743042, -14.683891296386719, 0.9727008938789368, 7.737192153930664, -0.96923828125, 0.322265625, -0.30908203125, 0, 
74, 1050570470, 0.5497235655784607, 0.4146665930747986, -0.5217780470848083, 0.5035977959632874, 9.156271934509277, -1.1187362670898438, -0.0791444256901741, -12.846577644348145, 2.771742343902588, 6.144983291625977, -0.96533203125, 0.33056640625, -0.314453125, 0, 
75, 1050578803, 0.5499818325042725, 0.41397446393966675, -0.522240161895752, 0.5034060478210449, 9.153939247131348, -1.349385142326355, -0.1367618441581726, -11.481005668640137, 2.5204410552978516, 4.484719753265381, -0.9697265625, 0.32763671875, -0.310546875, 0, 
76, 1050587136, 0.5502616167068481, 0.41342055797576904, -0.5225701928138733, 0.503213107585907, 9.206511497497559, -1.4654244184494019, -0.15181520581245422, -9.323927879333496, 2.7372653484344482, 2.618056535720825, -0.96826171875, 0.33056640625, -0.31103515625, 0, 
77, 1050595469, 0.550491213798523, 0.41301241517066956, -0.5228726863861084, 0.5029829144477844, 9.343729019165039, -1.6091746091842651, -0.10532908886671066, -8.34250545501709, 1.335923194885254, 1.4441689252853394, -0.97119140625, 0.3310546875, -0.3134765625, 0, 
78, 1050603802, 0.5506617426872253, 0.41284459829330444, -0.5230244398117065, 0.5027762055397034, 9.337346076965332, -1.657039999961853, -0.17090876400470734, -4.82605504989624, 0.568162202835083, -0.5403066873550415, -0.97021484375, 0.33154296875, -0.3095703125, 0, 
79, 1050612135, 0.5507239699363708, 0.4130023419857025, -0.5230904221534729, 0.5025097131729126, 9.249778747558594, -1.6418509483337402, -0.28229767084121704, -1.7322778701782227, -2.194512367248535, -3.085221767425537, -0.97021484375, 0.33154296875, -0.31396484375, 0, 
80, 1050620468, 0.5507349371910095, 0.4136059582233429, -0.5227953791618347, 0.5023083090782166, 9.287138938903809, -1.601172685623169, -0.15653924643993378, 4.8751325607299805, -2.4845938682556152, -7.5049591064453125, -0.97216796875, 0.33349609375, -0.30712890625, 0, 
81, 1050628801, 0.5505799055099487, 0.41440680623054504, -0.5226402878761292, 0.5019795298576355, 9.406879425048828, -1.7218090295791626, -0.09381411224603653, 5.454488277435303, -6.880522727966309, -7.935496807098389, -0.96875, 0.328125, -0.30810546875, 0, 
82, 1050637134, 0.5502752065658569, 0.41504043340682983, -0.522852897644043, 0.5015687346458435, 9.500021934509277, -1.8203575611114502, -0.23288632929325104, 1.9443897008895874, -9.998825073242188, -4.228936195373535, -0.9716796875, 0.32666015625, -0.3046875, 0, 
83, 1050645467, 0.5498985052108765, 0.41564109921455383, -0.5231825113296509, 0.5011407732963562, 9.452564239501953, -1.6535451412200928, -0.45766720175743103, 1.144738793373108, -11.326871871948242, -2.955626964569092, -0.9765625, 0.326171875, -0.3046875, 0, 
84, 1050653800, 0.5495986938476562, 0.4163169264793396, -0.5231887102127075, 0.5009016990661621, 9.533865928649902, -1.4106758832931519, -0.5901392102241516, 4.841987133026123, -7.707259654998779, -4.456787586212158, -0.97607421875, 0.32763671875, -0.30126953125, 0, 
85, 1050662133, 0.5493345856666565, 0.416827917098999, -0.5231484770774841, 0.500808596611023, 9.618245124816895, -1.516372561454773, -0.5466676354408264, 4.779488563537598, -5.189533710479736, -2.6681456565856934, -0.97314453125, 0.3271484375, -0.3037109375, 0, 
86, 1050670466, 0.5491319298744202, 0.41714590787887573, -0.5233758687973022, 0.5005285143852234, 9.5847749710083, -1.4697800874710083, -0.7058703303337097, -0.2232152372598648, -6.447704792022705, -1.5925265550613403, -0.97607421875, 0.3251953125, -0.30029296875, 0, 
87, 1050678799, 0.5489616394042969, 0.417411208152771, -0.5235688090324402, 0.5002923607826233, 9.543595314025879, -1.4033799171447754, -0.8056107759475708, -0.24765121936798096, -5.401824474334717, -1.292046070098877, -0.97802734375, 0.32666015625, -0.30078125, 0, 
88, 1050687132, 0.5488413572311401, 0.41776391863822937, -0.5235803723335266, 0.5001178979873657, 9.596009254455566, -1.193255066871643, -0.933972954750061, 1.8145123720169067, -3.8574655055999756, -2.8502368927001953, -0.97802734375, 0.32763671875, -0.29833984375, 0, 
89, 1050695465, 0.5488466024398804, 0.4180968403816223, -0.5234386324882507, 0.4999823570251465, 9.569764137268066, -1.1622254848480225, -1.0994751453399658, 2.2814600467681885, -1.4996238946914673, -4.149160861968994, -0.97705078125, 0.3271484375, -0.2998046875, 0, 
90, 1050703798, 0.5490397214889526, 0.41837748885154724, -0.5231130123138428, 0.49987587332725525, 9.606804847717285, -1.080194354057312, -1.1788206100463867, 2.2776689529418945, 1.834337830543518, -5.914492607116699, -0.97607421875, 0.32666015625, -0.29736328125, 0, 
91, 1050712131, 0.549464225769043, 0.41854724287986755, -0.5226101279258728, 0.49979329109191895, 9.631360054016113, -1.065390706062317, -1.205637812614441, 1.5012632608413696, 5.668648719787598, -7.532378673553467, -0.9794921875, 0.3232421875, -0.30126953125, 0, 
92, 1050720464, 0.5500010848045349, 0.4187221825122833, -0.522010326385498, 0.4996832311153412, 9.622671127319336, -1.024452567100525, -1.1041250228881836, 1.3611916303634644, 7.085921764373779, -9.121881484985352, -0.9794921875, 0.32373046875, -0.29736328125, 0, 
93, 1050728797, 0.5506231784820557, 0.4189866781234741, -0.5212928056716919, 0.4995255470275879, 9.564178466796875, -0.9286702275276184, -1.216930866241455, 2.0170960426330566, 7.627741813659668, -11.376348495483398, -0.9814453125, 0.3203125, -0.30419921875, 0, 
94, 1050737130, 0.5513392090797424, 0.41935473680496216, -0.5203825235366821, 0.49937599897384644, 9.521599769592285, -1.0257984399795532, -1.1618131399154663, 3.655740976333618, 9.168642044067383, -13.8236083984375, -0.97998046875, 0.3212890625, -0.30322265625, 0, 
95, 1050745463, 0.552080512046814, 0.41985541582107544, -0.519530177116394, 0.4990236163139343, 9.461152076721191, -1.1300556659698486, -1.107010841369629, 2.6517398357391357, 6.757727146148682, -16.138673782348633, -0.98095703125, 0.31787109375, -0.30517578125, 0, 
96, 1050753796, 0.5527803301811218, 0.42047131061553955, -0.5187143683433533, 0.498578816652298, 9.48718547821045, -1.087713599205017, -1.1532407999038696, 2.8680524826049805, 4.937734603881836, -17.1806640625, -0.978515625, 0.31591796875, -0.3056640625, 0, 
97, 1050762129, 0.5534185171127319, 0.42119550704956055, -0.5178372263908386, 0.49817144870758057, 9.648820877075195, -1.1168972253799438, -1.1957485675811768, 4.722830772399902, 4.360082149505615, -17.588056564331055, -0.982421875, 0.31298828125, -0.30029296875, 0, 
98, 1050770462, 0.5540286898612976, 0.42191728949546814, -0.5169579982757568, 0.4977951645851135, 9.702028274536133, -1.1262869834899902, -1.2287185192108154, 5.109503269195557, 4.455469131469727, -17.168777465820312, -0.97998046875, 0.3076171875, -0.3056640625, 0, 
99, 1050778795, 0.5545974969863892, 0.4225965738296509, -0.5161274671554565, 0.4974473714828491, 9.768450736999512, -1.1256585121154785, -1.164013147354126, 4.88790225982666, 4.1644792556762695, -16.068967819213867, -0.9833984375, 0.3095703125, -0.3076171875, 0, 
100, 1050787128, 0.5550894141197205, 0.4233579635620117, -0.5153091549873352, 0.4970995783805847, 9.727686882019043, -1.112699270248413, -1.3331111669540405, 5.878084182739258, 3.0473523139953613, -16.06995391845703, -0.98291015625, 0.3037109375, -0.302734375, 0, 
101, 1050795461, 0.5555460453033447, 0.4241226017475128, -0.5144518613815308, 0.4968256652355194, 9.782561302185059, -1.2347445487976074, -1.3708577156066895, 6.897787570953369, 3.4187841415405273, -15.500344276428223, -0.98388671875, 0.3017578125, -0.30810546875, 0, 
102, 1050803794, 0.5560212135314941, 0.4248404800891876, -0.5135839581489563, 0.4965782165527344, 9.83569622039795, -1.2800202369689941, -1.4103853702545166, 6.7025299072265625, 4.194792747497559, -15.171045303344727, -0.98681640625, 0.2998046875, -0.3095703125, 0, 
103, 1050812127, 0.5565158128738403, 0.42551201581954956, -0.5126917362213135, 0.49637120962142944, 9.8729248046875, -1.2476627826690674, -1.3961901664733887, 6.674378871917725, 4.979741096496582, -14.793644905090332, -0.98583984375, 0.29931640625, -0.30615234375, 0, 
104, 1050820460, 0.5568450689315796, 0.4262482523918152, -0.5118971467018127, 0.4961903691291809, 9.967592239379883, -1.3316714763641357, -1.4713190793991089, 7.664037704467773, 2.872227668762207, -13.36767578125, -0.98681640625, 0.29736328125, -0.3076171875, 0, 
105, 1050828793, 0.5570152401924133, 0.42718449234962463, -0.5111140012741089, 0.49600157141685486, 9.986180305480957, -1.2618536949157715, -1.6350361108779907, 9.986197471618652, 0.16111356019973755, -13.666667938232422, -0.9873046875, 0.29345703125, -0.30859375, 0, 
106, 1050837126, 0.5569906830787659, 0.4283215403556824, -0.5101810097694397, 0.4960089921951294, 10.154122352600098, -1.3527941703796387, -1.6404714584350586, 15.077903747558594, -0.1791844666004181, -13.146652221679688, -0.986328125, 0.294921875, -0.30517578125, 0, 
107, 1050845459, 0.5568055510520935, 0.4294062852859497, -0.5095013380050659, 0.49597758054733276, 10.304945945739746, -1.4359831809997559, -1.6118431091308594, 13.614123344421387, -3.2148818969726562, -10.468963623046875, -0.98681640625, 0.291015625, -0.30908203125, 0, 
108, 1050853792, 0.5563240647315979, 0.43072521686553955, -0.5090196132659912, 0.4958690106868744, 10.325756072998047, -1.2413966655731201, -1.7990726232528687, 15.27981948852539, -8.760339736938477, -9.532404899597168, -0.98681640625, 0.2861328125, -0.30859375, 0, 
109, 1050862125, 0.5556278228759766, 0.4322581887245178, -0.5086055994033813, 0.4957405924797058, 10.310976028442383, -1.2761317491531372, -2.0114736557006836, 17.574548721313477, -12.460087776184082, -9.295601844787598, -0.9921875, 0.28662109375, -0.3046875, 0, 
110, 1050870458, 0.5548610687255859, 0.43378549814224243, -0.5083297491073608, 0.49554798007011414, 10.41248893737793, -1.3678982257843018, -2.198219060897827, 16.573646545410156, -14.244762420654297, -8.468568801879883, -0.99560546875, 0.28564453125, -0.30126953125, 0, 
111, 1050878791, 0.5538023114204407, 0.43550029397010803, -0.508158802986145, 0.49540358781814575, 10.462298393249512, -1.2770154476165771, -2.6535356044769287, 19.355640411376953, -18.181547164916992, -6.771857738494873, -0.99609375, 0.28125, -0.30078125, 0, 
112, 1050887124, 0.5523344278335571, 0.4376072287559509, -0.5080355405807495, 0.4953120946884155, 10.197310447692871, -1.3049137592315674, -2.9544742107391357, 24.846790313720703, -23.648183822631836, -6.062741756439209, -0.99609375, 0.2783203125, -0.2958984375, 0, 
113, 1050895457, 0.5510581731796265, 0.4394676089286804, -0.5078385472297668, 0.4952884614467621, 10.685884475708008, -1.2539509534835815, -2.969071626663208, 22.7862491607666, -19.774280548095703, -5.546382904052734, -0.99658203125, 0.27685546875, -0.2919921875, 0, 
114, 1050903790, 0.5501540899276733, 0.44066667556762695, -0.5073869228363037, 0.49569085240364075, 11.875408172607422, -1.1969966888427734, -2.4408795833587646, 20.247150421142578, -8.046407699584961, -1.8038833141326904, -1.00146484375, 0.2783203125, -0.2890625, 0, 
115, 1050912123, 0.5494014024734497, 0.4410444498062134, -0.5069546699523926, 0.49663108587265015, 13.436346054077148, -0.2830962836742401, -0.9987673759460449, 16.725393295288086, 1.6021323204040527, 7.110782146453857, -1.0029296875, 0.2744140625, -0.296875, 0, 
116, 1050920456, 0.5481548309326172, 0.4405609965324402, -0.5071226954460144, 0.4982633590698242, 14.632973670959473, 1.1220951080322266, 0.4986210763454437, 13.953006744384766, 3.8256428241729736, 25.32683563232422, -1.0009765625, 0.27783203125, -0.29345703125, 0, 
117, 1050928789, 0.5457921624183655, 0.4399573504924774, -0.5085163712501526, 0.49996718764305115, 14.800383567810059, 2.0434701442718506, 1.1164023876190186, 11.897244453430176, -12.061572074890137, 41.80427551269531, -1.0009765625, 0.2822265625, -0.29150390625, 0, 
118, 1050937122, 0.5429006814956665, 0.4393608272075653, -0.5109331011772156, 0.5011744499206543, 14.2300386428833, 2.75163197517395, 0.5410139560699463, 4.655066967010498, -26.366146087646484, 47.82646560668945, -1.0009765625, 0.2900390625, -0.28759765625, 0, 
119, 1050945455, 0.541409969329834, 0.4374779760837555, -0.5133247375488281, 0.5019897222518921, 13.618354797363281, 2.4265899658203125, -0.5480263233184814, -16.00520133972168, -9.966607093811035, 44.1617431640625, -1.0009765625, 0.2958984375, -0.28662109375, 0, 
120, 1050953788, 0.542619526386261, 0.43332788348197937, -0.5146652460098267, 0.5029100179672241, 13.486183166503906, 2.551647901535034, -0.1409153938293457, -41.11886978149414, 33.33158493041992, 35.9562873840332, -0.99755859375, 0.3017578125, -0.28515625, 0, 
121, 1050962121, 0.5456605553627014, 0.42703959345817566, -0.5152549147605896, 0.5043924450874329, 12.229782104492188, 1.971817135810852, 0.821965754032135, -58.83051681518555, 69.9048080444336, 38.17254638671875, -0.99609375, 0.31103515625, -0.29052734375, 0, 
122, 1050970454, 0.5485298037528992, 0.42111602425575256, -0.5156227946281433, 0.5058822631835938, 10.558892250061035, -0.08537911623716354, 1.5635194778442383, -53.48030471801758, 67.99622344970703, 35.5124626159668, -0.9921875, 0.31884765625, -0.2998046875, 0, 
123, 1050978787, 0.5508348941802979, 0.41678816080093384, -0.5159385204315186, 0.5066394805908203, 9.872425079345703, -1.8683595657348633, 1.5957194566726685, -43.02119827270508, 48.91645431518555, 22.314088821411133, -0.986328125, 0.32861328125, -0.30517578125, 0, 
124, 1050987120, 0.553088366985321, 0.41342902183532715, -0.5158478021621704, 0.5070289373397827, 10.27027702331543, -1.8877208232879639, 1.7595667839050293, -35.152915954589844, 42.90117263793945, 10.671356201171875, -0.982421875, 0.33056640625, -0.3095703125, 0, 
125, 1050995453, 0.5553000569343567, 0.4106481373310089, -0.5147665739059448, 0.5079694986343384, 10.900352478027344, -2.3303167819976807, 2.705644369125366, -19.714136123657227, 49.109683990478516, 5.43540620803833, -0.98291015625, 0.33349609375, -0.3125, 0, 
126, 1051003786, 0.556979775428772, 0.40873467922210693, -0.5133447051048279, 0.5091112852096558, 11.31515121459961, -3.1956710815429688, 4.516246318817139, -6.2681074142456055, 43.151344299316406, 2.607942819595337, -0.974609375, 0.3349609375, -0.3212890625, 0, 
127, 1051012119, 0.5569487810134888, 0.40876999497413635, -0.5130670070648193, 0.5093966126441956, 11.54176139831543, -3.5383353233337402, 5.285292625427246, 4.201169967651367, 3.7236952781677246, 0.7148677110671997, -0.97998046875, 0.33642578125, -0.3203125, 0, 
128, 1051020452, 0.5554271340370178, 0.41018691658973694, -0.512984573841095, 0.5100019574165344, 11.769675254821777, -3.0546984672546387, 3.887450695037842, 24.069740295410156, -16.0413761138916, 4.93878698348999, -0.97998046875, 0.3369140625, -0.3193359375, 0, 
129, 1051028785, 0.5536736845970154, 0.411512553691864, -0.5123900175094604, 0.5114364624023438, 11.685626029968262, -2.9176039695739746, 3.246481418609619, 34.10427474975586, -8.57309341430664, 10.670762062072754, -0.9794921875, 0.337890625, -0.31689453125, 0, 
130, 1051037118, 0.5524465441703796, 0.4121024012565613, -0.5116007924079895, 0.5130757689476013, 11.40455150604248, -2.4803731441497803, 3.262946128845215, 28.353660583496094, 3.071161985397339, 12.588932991027832, -0.97607421875, 0.3359375, -0.31982421875, 0, 
131, 1051045451, 0.5515543818473816, 0.41209161281585693, -0.5109548568725586, 0.5146853923797607, 10.90191650390625, -1.48729407787323, 3.043898582458496, 20.654949188232422, 8.288389205932617, 15.059823036193848, -0.98291015625, 0.3388671875, -0.3203125, 0, 
132, 1051053784, 0.5508456230163574, 0.4123014211654663, -0.5101587772369385, 0.5160642862319946, 10.366230010986328, -0.4964536428451538, 2.5691802501678467, 20.74892234802246, 7.962111473083496, 9.584312438964844, -0.97607421875, 0.33544921875, -0.32177734375, 0, 
133, 1051062117, 0.5502034425735474, 0.41277989745140076, -0.5092189908027649, 0.5172936320304871, 10.087701797485352, 0.0031813483219593763, 2.4705662727355957, 22.35798454284668, 6.649483680725098, 5.305299758911133, -0.97607421875, 0.33544921875, -0.32275390625, 0, 
134, 1051070450, 0.5496772527694702, 0.4135150909423828, -0.5081670880317688, 0.5182992219924927, 9.625787734985352, 0.519111692905426, 2.4011642932891846, 22.89498519897461, 5.325201511383057, 0.32629987597465515, -0.97900390625, 0.3349609375, -0.32373046875, 0, 
135, 1051078783, 0.5492042899131775, 0.4145096242427826, -0.5070019960403442, 0.5191465616226196, 9.255374908447266, 0.8100308775901794, 2.0919346809387207, 24.232105255126953, 3.6931653022766113, -3.675811529159546, -0.9775390625, 0.3310546875, -0.3251953125, 0, 
136, 1051087116, 0.5488542318344116, 0.4156043231487274, -0.5057064294815063, 0.519904613494873, 8.979520797729492, 0.9893867373466492, 1.9612828493118286, 24.6151180267334, 4.41945743560791, -6.698318958282471, -0.97802734375, 0.33056640625, -0.32861328125, 0, 
137, 1051095449, 0.5484827756881714, 0.41690146923065186, -0.5043503642082214, 0.5205749273300171, 8.852838516235352, 1.063908576965332, 1.9173983335494995, 26.0685977935791, 2.670311450958252, -8.933981895446777, -0.9794921875, 0.32861328125, -0.32470703125, 0, 
138, 1051103782, 0.5481191277503967, 0.41822385787963867, -0.5030657052993774, 0.5211398005485535, 8.767208099365234, 0.9916664361953735, 1.6868027448654175, 24.988698959350586, 1.5099856853485107, -9.575643539428711, -0.98095703125, 0.32470703125, -0.3251953125, 0, 
139, 1051112115, 0.548022985458374, 0.4195685088634491, -0.5018488168716431, 0.5213333964347839, 8.750479698181152, 0.7812354564666748, 1.6614179611206055, 20.54728889465332, 0.44356194138526917, -14.032753944396973, -0.98095703125, 0.326171875, -0.32666015625, 0, 
140, 1051120448, 0.5480925440788269, 0.420977383852005, -0.5007612705230713, 0.5211700797080994, 8.530291557312012, 0.6111631989479065, 1.7123706340789795, 16.69964599609375, -1.7988505363464355, -17.62635612487793, -0.98095703125, 0.31689453125, -0.32861328125, 0, 
141, 1051128781, 0.5483859777450562, 0.42251521348953247, -0.4998122453689575, 0.5205274820327759, 8.562884330749512, 0.6412357091903687, 1.4479374885559082, 12.067336082458496, -5.106905460357666, -22.907222747802734, -0.9833984375, 0.31494140625, -0.32568359375, 0, 
142, 1051137114, 0.5489084124565125, 0.42398595809936523, -0.49881693720817566, 0.5197352766990662, 8.346654891967773, 0.26925402879714966, 1.3387047052383423, 9.546996116638184, -3.468259334564209, -25.505430221557617, -0.98193359375, 0.3134765625, -0.3271484375, 0, 
143, 1051145447, 0.5494174361228943, 0.4256066381931305, -0.4977768063545227, 0.5188694596290588, 8.193705558776855, 0.10375988483428955, 1.3587089776992798, 10.55914306640625, -4.827479839324951, -27.23308753967285, -0.98193359375, 0.30810546875, -0.32568359375, 0, 
144, 1051153780, 0.5497676134109497, 0.42736339569091797, -0.49701857566833496, 0.517780065536499, 8.234187126159668, -0.2718810439109802, 1.5330619812011719, 8.988733291625977, -10.217973709106445, -27.089441299438477, -0.9833984375, 0.30615234375, -0.32275390625, 0, 
145, 1051162113, 0.5497517585754395, 0.4296066164970398, -0.4962652325630188, 0.5166620016098022, 8.441487312316895, -0.2155112773180008, 1.4332834482192993, 14.574667930603027, -16.495878219604492, -27.9782657623291, -0.986328125, 0.296875, -0.32080078125, 0, 
146, 1051170446, 0.5495035648345947, 0.43191301822662354, -0.4956134855747223, 0.5156276226043701, 8.441422462463379, -0.32596930861473083, 1.4045724868774414, 16.2835750579834, -18.697551727294922, -25.54424285888672, -0.9892578125, 0.29443359375, -0.3203125, 0, 
147, 1051178779, 0.5490816235542297, 0.43456852436065674, -0.4947252571582794, 0.5146982073783875, 8.602431297302246, 0.23485025763511658, 1.0302207469940186, 22.336030960083008, -20.05345344543457, -27.283132553100586, -0.9951171875, 0.2919921875, -0.31787109375, 0, 
148, 1051187112, 0.548427164554596, 0.4369203448295593, -0.49405765533447266, 0.5140456557273865, 8.526988983154297, 0.394832581281662, 1.0100116729736328, 21.764543533325195, -19.391754150390625, -20.18243980407715, -0.99365234375, 0.28515625, -0.3154296875, 0, 
149, 1051195445, 0.5474424362182617, 0.4392383396625519, -0.49330636858940125, 0.5138413906097412, 8.770215034484863, 1.004257082939148, 0.9059507846832275, 27.120344161987305, -18.175703048706055, -14.719313621520996, -0.9990234375, 0.27978515625, -0.31494140625, 0, 
150, 1051203778, 0.5468837022781372, 0.44090476632118225, -0.4928992986679077, 0.5133994817733765, 8.82676887512207, 0.7801745533943176, 1.2204155921936035, 15.605046272277832, -14.605896949768066, -13.039739608764648, -0.99560546875, 0.27587890625, -0.31103515625, 0, 
151, 1051212111, 0.546564519405365, 0.44217514991760254, -0.4927304983139038, 0.5128085613250732, 8.642358779907227, 0.9858097434043884, 1.0143097639083862, 8.476855278015137, -12.984870910644531, -11.703288078308105, -0.9990234375, 0.27392578125, -0.30859375, 0, 
152, 1051220444, 0.5460445284843445, 0.4438669681549072, -0.4923555254936218, 0.5122609734535217, 8.769946098327637, 1.233513593673706, 1.1054037809371948, 14.617207527160645, -15.400452613830566, -14.088567733764648, -1.00341796875, 0.271484375, -0.3056640625, 0, 
153, 1051228777, 0.5453319549560547, 0.44554346799850464, -0.49203598499298096, 0.5118715763092041, 8.81775951385498, 1.4741708040237427, 0.9997106194496155, 16.353212356567383, -16.15053939819336, -11.082683563232422, -1, 0.26904296875, -0.306640625, 0, 
154, 1051237110, 0.5445811152458191, 0.4468078911304474, -0.4917956590652466, 0.5117995738983154, 8.899947166442871, 1.3884313106536865, 0.9327510595321655, 15.090811729431152, -12.055049896240234, -5.17893123626709, -1.0048828125, 0.26806640625, -0.30029296875, 0, 
155, 1051245443, 0.5440678596496582, 0.44771498441696167, -0.4915910065174103, 0.5117492079734802, 8.799633979797363, 1.286895513534546, 0.856457531452179, 10.845067977905273, -8.171979904174805, -4.034895896911621, -1.001953125, 0.2685546875, -0.3046875, 0, 
156, 1051253776, 0.5437965989112854, 0.44850054383277893, -0.4914022982120514, 0.5115309357643127, 8.823465347290039, 1.1783653497695923, 0.9931095838546753, 7.203978061676025, -6.729717254638672, -6.090668201446533, -1.0087890625, 0.26513671875, -0.30029296875, 0, 
157, 1051262109, 0.5436975359916687, 0.4489743113517761, -0.49134135246276855, 0.511279284954071, 8.820497512817383, 1.2253957986831665, 0.7496495842933655, 2.6833600997924805, -4.636790752410889, -4.639711380004883, -1.0068359375, 0.26611328125, -0.29931640625, 0, 
158, 1051270442, 0.5438545346260071, 0.44915521144866943, -0.49116796255111694, 0.5111197233200073, 9.035648345947266, 1.4900128841400146, 0.7127606868743896, 0.3262101113796234, 0.6629092693328857, -4.48008394241333, -1.00927734375, 0.267578125, -0.29736328125, 0, 
159, 1051278775, 0.5444169044494629, 0.44892340898513794, -0.4909256398677826, 0.5109573602676392, 8.791598320007324, 1.3805220127105713, 0.6046015024185181, -4.800415992736816, 6.697803020477295, -4.976257801055908, -1.00830078125, 0.26220703125, -0.29736328125, 0, 
160, 1051287108, 0.5449127554893494, 0.44875696301460266, -0.4908047914505005, 0.5106910467147827, 8.554242134094238, 1.160208821296692, 1.0182188749313354, -5.453501224517822, 4.341216564178467, -4.987168312072754, -1.0068359375, 0.26416015625, -0.294921875, 0, 
161, 1051295441, 0.5454463958740234, 0.4485640823841095, -0.49073296785354614, 0.5103595852851868, 9.041032791137695, 1.1795339584350586, 0.8732282519340515, -6.671958923339844, 3.909783124923706, -5.251188278198242, -1.0078125, 0.2626953125, -0.296875, 0, 
162, 1051303774, 0.5463160276412964, 0.4480134844779968, -0.49053651094436646, 0.5101022720336914, 9.035857200622559, 1.0586774349212646, 0.7600637078285217, -10.052116394042969, 10.182275772094727, -5.413172721862793, -1.0068359375, 0.26171875, -0.2958984375, 0, 
163, 1051312107, 0.5472723841667175, 0.44740548729896545, -0.49035096168518066, 0.5097890496253967, 8.672953605651855, 0.8856695890426636, 0.7309833765029907, -11.471015930175781, 10.641179084777832, -5.98134708404541, -1.0087890625, 0.26416015625, -0.3017578125, 0, 
164, 1051320440, 0.5480766892433167, 0.4469306170940399, -0.4903152585029602, 0.5093756914138794, 8.43471622467041, 0.6042652726173401, 0.6835014224052429, -11.260287284851074, 7.043274879455566, -5.649514675140381, -1.0068359375, 0.2626953125, -0.30078125, 0, 
165, 1051328773, 0.5487333536148071, 0.44661861658096313, -0.4902178645133972, 0.5090361833572388, 8.42611026763916, 0.5314410328865051, 0.5211827754974365, -8.194186210632324, 5.7230401039123535, -5.5335845947265625, -1.0078125, 0.2646484375, -0.30419921875, 0, 
166, 1051337106, 0.5492815375328064, 0.44634851813316345, -0.49008846282958984, 0.5088059306144714, 8.346785545349121, 0.4006369113922119, 0.4850098788738251, -6.251885414123535, 5.711309909820557, -4.428919792175293, -1.00634765625, 0.26123046875, -0.30322265625, 0, 
167, 1051345439, 0.5497409701347351, 0.44606301188468933, -0.48998600244522095, 0.5086588859558105, 8.218953132629395, 0.31501254439353943, 0.3582635819911957, -5.451925754547119, 5.426656723022461, -2.907715082168579, -1.01123046875, 0.26171875, -0.29833984375, 0, 
168, 1051353772, 0.5502137541770935, 0.4456515610218048, -0.4898641109466553, 0.5086256861686707, 8.251368522644043, 0.3506217300891876, 0.15829288959503174, -5.584377765655518, 7.345754146575928, -1.4133296012878418, -1.0087890625, 0.2626953125, -0.3046875, 0, 
169, 1051362105, 0.5508152842521667, 0.44494131207466125, -0.4897657334804535, 0.5086911916732788, 8.129316329956055, 0.30709004402160645, 0.09238966554403305, -8.130996704101562, 10.626245498657227, 0.5911765694618225, -1.00830078125, 0.26416015625, -0.3046875, 0, 
170, 1051370438, 0.5514047741889954, 0.4441133737564087, -0.48982179164886475, 0.5087223052978516, 8.06963062286377, 0.29015442728996277, 0.05546969175338745, -10.26156234741211, 10.093443870544434, 2.1535680294036865, -1.0087890625, 0.2646484375, -0.3037109375, 0, 
171, 1051378771, 0.5518603324890137, 0.44330400228500366, -0.49010950326919556, 0.5086571574211121, 8.052376747131348, 0.2547125220298767, -0.1050371453166008, -11.572781562805176, 6.611111164093018, 3.6492860317230225, -1.00830078125, 0.265625, -0.3017578125, 0, 
172, 1051387104, 0.5522436499595642, 0.44245362281799316, -0.49057283997535706, 0.5085346102714539, 8.08290958404541, 0.2629562020301819, -0.3761321008205414, -13.057577133178711, 4.836366176605225, 5.067073345184326, -1.01025390625, 0.265625, -0.302734375, 0, 
173, 1051395437, 0.5525832772254944, 0.4415978193283081, -0.4911791682243347, 0.5083242058753967, 8.083758354187012, 0.19815896451473236, -0.5376492738723755, -14.424890518188477, 2.854105234146118, 5.610811233520508, -1.0078125, 0.2666015625, -0.30078125, 0, 
174, 1051403770, 0.5527682900428772, 0.4408738315105438, -0.4920331537723541, 0.5079255104064941, 8.07409954071045, 0.2702639102935791, -0.7971482276916504, -15.489484786987305, -2.0325543880462646, 5.877546787261963, -1.00830078125, 0.26806640625, -0.2998046875, 0, 
175, 1051412103, 0.552911639213562, 0.44014081358909607, -0.49295270442962646, 0.5075134634971619, 7.948365211486816, 0.2735465466976166, -0.9963843822479248, -15.85248851776123, -2.935635566711426, 6.52351188659668, -1.0078125, 0.2705078125, -0.30322265625, 0, 
176, 1051420436, 0.5530460476875305, 0.4394378662109375, -0.4938746690750122, 0.5070796012878418, 7.789528846740723, 0.1618374139070511, -1.0827852487564087, -15.735892295837402, -3.2471299171447754, 6.233174800872803, -1.01220703125, 0.275390625, -0.30029296875, 0, 
177, 1051428769, 0.5529565811157227, 0.43891942501068115, -0.4950418770313263, 0.5064878463745117, 7.82327938079834, 0.16468378901481628, -0.9460815191268921, -15.760764122009277, -8.984848976135254, 6.82045841217041, -1.01171875, 0.2783203125, -0.29736328125, 0, 
178, 1051437102, 0.5526517629623413, 0.4386153221130371, -0.49636873602867126, 0.5057849287986755, 7.998795986175537, 0.1639229953289032, -0.9685057997703552, -14.700923919677734, -13.713750839233398, 6.980624198913574, -1.01025390625, 0.27880859375, -0.298828125, 0, 
179, 1051445435, 0.5520960688591003, 0.4386122226715088, -0.4975775182247162, 0.5052065253257751, 8.554588317871094, 0.37140464782714844, -0.7867702841758728, -9.227747917175293, -15.985528945922852, 6.903575420379639, -1.01123046875, 0.28173828125, -0.2919921875, 0, 
180, 1051453768, 0.5514418482780457, 0.4384828805923462, -0.49886035919189453, 0.5047680735588074, 8.908475875854492, 0.5154739618301392, -0.7584702968597412, -9.149805068969727, -15.38259506225586, 9.964555740356445, -1.01611328125, 0.28515625, -0.2939453125, 0, 
181, 1051462101, 0.550881564617157, 0.43816107511520386, -0.5000012516975403, 0.5045304298400879, 9.719348907470703, 0.6006079912185669, -0.4119909107685089, -8.811619758605957, -11.232089042663574, 11.294548988342285, -1.0146484375, 0.2841796875, -0.2890625, 0, 
182, 1051470434, 0.5500903725624084, 0.4380974769592285, -0.5011645555496216, 0.5042941570281982, 10.417699813842773, 0.8111262917518616, -0.03737177327275276, -5.610837936401367, -14.655072212219238, 11.275184631347656, -1.0146484375, 0.283203125, -0.28271484375, 0, 
183, 1051478767, 0.5488311052322388, 0.4384612739086151, -0.5027710795402527, 0.5037505626678467, 10.53966999053955, 0.611720621585846, 0.05755417421460152, -4.7502522468566895, -26.16691780090332, 11.914365768432617, -1.01611328125, 0.2861328125, -0.27783203125, 0, 
184, 1051487100, 0.5472919344902039, 0.439238578081131, -0.504534900188446, 0.5029844045639038, 10.792097091674805, 0.379231333732605, -0.33797651529312134, -2.570993661880493, -33.37593460083008, 10.269372940063477, -1.0205078125, 0.29296875, -0.2724609375, 0, 
185, 1051495433, 0.5458319783210754, 0.4402011036872864, -0.5059823989868164, 0.5022749304771423, 11.120113372802734, 0.19171170890331268, -0.7258712649345398, 0.9268776178359985, -31.504682540893555, 6.9467668533325195, -1.0234375, 0.2890625, -0.267578125, 0, 
186, 1051503766, 0.5444840788841248, 0.4413154125213623, -0.5070580840110779, 0.5016748309135437, 11.171552658081055, -0.14282892644405365, -1.0531803369522095, 4.718183517456055, -28.197040557861328, 3.6953811645507812, -1.02099609375, 0.29150390625, -0.26220703125, 0, 
187, 1051512099, 0.5431277751922607, 0.4425951838493347, -0.5079295635223389, 0.5011356472969055, 11.058672904968262, -0.26876363158226013, -1.5201257467269897, 7.8413166999816895, -27.621938705444336, 1.8055487871170044, -1.02294921875, 0.291015625, -0.25927734375, 0, 
188, 1051520432, 0.5415980219841003, 0.4440062940120697, -0.5086339712142944, 0.5008282661437988, 11.020559310913086, -0.4174797236919403, -2.188479423522949, 12.645194053649902, -26.953073501586914, 2.808833599090576, -1.02783203125, 0.29052734375, -0.255859375, 0, 
189, 1051528765, 0.5401732921600342, 0.44513654708862305, -0.5092244148254395, 0.500763475894928, 11.312668800354004, -0.3263334631919861, -2.082672595977783, 12.396272659301758, -22.082416534423828, 5.150949001312256, -1.02734375, 0.29345703125, -0.25537109375, 0, 
190, 1051537098, 0.5387935042381287, 0.4460928738117218, -0.5098567605018616, 0.5007556676864624, 12.694318771362305, -0.6151682138442993, -1.3056538105010986, 10.940896034240723, -20.397512435913086, 6.746972560882568, -1.029296875, 0.29052734375, -0.251953125, 0, 
191, 1051545431, 0.5368122458457947, 0.44700685143470764, -0.509827733039856, 0.5020962953567505, 14.811620712280273, -0.030761947855353355, -0.312456339597702, 28.324302673339844, -11.284889221191406, 17.113067626953125, -1.0302734375, 0.29345703125, -0.24951171875, 0, 
192, 1051553764, 0.5339201092720032, 0.4487656354904175, -0.5096097588539124, 0.5038294792175293, 16.87563133239746, -3.26196551322937, 3.959156036376953, 44.216854095458984, -19.558778762817383, 19.22117042541504, -1.02978515625, 0.294921875, -0.24462890625, 0, 
193, 1051562097, 0.5315488576889038, 0.4507158398628235, -0.5111567974090576, 0.5030282735824585, 17.03805923461914, -2.8352725505828857, 2.1902551651000977, 12.417882919311523, -45.97209930419922, 6.548419952392578, -1.03515625, 0.29443359375, -0.23974609375, 0, 
194, 1051570430, 0.5297611951828003, 0.4524793028831482, -0.5116073489189148, 0.502872884273529, 15.17939567565918, -1.8173177242279053, -0.22926472127437592, 19.56195640563965, -28.423015594482422, 1.7504398822784424, -1.03564453125, 0.2958984375, -0.23779296875, 0, 
195, 1051578763, 0.528904914855957, 0.4541094899177551, -0.5106331706047058, 0.503294825553894, 14.189634323120117, -2.1394803524017334, -0.016031604260206223, 26.709304809570312, -7.113975524902344, -8.413822174072266, -1.0361328125, 0.29248046875, -0.23388671875, 0, 
196, 1051587096, 0.5283054113388062, 0.455798476934433, -0.5093732476234436, 0.5036742091178894, 13.71285629272461, -1.8833190202713013, 1.0610325336456299, 27.212369918823242, -3.771033763885498, -12.696015357971191, -1.03515625, 0.28515625, -0.23486328125, 0, 
197, 1051595429, 0.5273119807243347, 0.4578166604042053, -0.5086358189582825, 0.5036301016807556, 13.324283599853516, -0.3614967167377472, 0.7325496077537537, 25.48738670349121, -15.395769119262695, -12.076366424560547, -1.03857421875, 0.28076171875, -0.23291015625, 0, 
198, 1051603762, 0.5257912278175354, 0.459892213344574, -0.507637619972229, 0.5043356418609619, 12.487455368041992, 0.7848047614097595, -0.46342721581459045, 36.272403717041016, -12.733979225158691, -5.036174774169922, -1.037109375, 0.2841796875, -0.23046875, 0, 
199, 1051612095, 0.5246063470840454, 0.4610339105129242, -0.5061346888542175, 0.5060350298881531, 11.906530380249023, 1.8150615692138672, 0.14994379878044128, 37.83479690551758, 5.886862754821777, 3.153231620788574, -1.0390625, 0.27880859375, -0.2294921875, 0, 
200, 1051620428, 0.5239624977111816, 0.46098363399505615, -0.505054235458374, 0.5078238248825073, 11.832581520080566, 2.8450183868408203, 1.7410264015197754, 23.489015579223633, 15.599979400634766, 11.001323699951172, -1.0380859375, 0.279296875, -0.23388671875, 0, 
201, 1051628761, 0.5235609412193298, 0.4602848291397095, -0.5048790574073792, 0.5090445280075073, 12.041243553161621, 3.0123274326324463, 2.947218179702759, 7.011220932006836, 11.552730560302734, 15.46487045288086, -1.041015625, 0.28076171875, -0.23583984375, 0, 
202, 1051637094, 0.5232498049736023, 0.45965874195098877, -0.5052144527435303, 0.5095974206924438, 12.111747741699219, 3.0566294193267822, 3.607703685760498, -1.2474901676177979, 3.9045445919036865, 12.750524520874023, -1.037109375, 0.28271484375, -0.23291015625, 0, 
203, 1051645427, 0.5229288339614868, 0.45927560329437256, -0.505937933921814, 0.5095546245574951, 11.795618057250977, 2.53387713432312, 3.4497714042663574, -6.296337604522705, -4.560307502746582, 9.298006057739258, -1.03564453125, 0.2822265625, -0.23388671875, 0, 
204, 1051653760, 0.5227726101875305, 0.4592224657535553, -0.5068579912185669, 0.5088478326797485, 11.40703296661377, 1.9653185606002808, 2.5847878456115723, -10.959335327148438, -11.202746391296387, 2.3212268352508545, -1.03662109375, 0.2841796875, -0.23193359375, 0, 
205, 1051662093, 0.5232474207878113, 0.4591069519519806, -0.5076286792755127, 0.5076946020126343, 11.351000785827637, 0.829611599445343, 2.1667497158050537, -17.460693359375, -8.244790077209473, -5.818813800811768, -1.03662109375, 0.28369140625, -0.22900390625, 0, 
206, 1051670426, 0.5246216654777527, 0.45882856845855713, -0.5078781843185425, 0.5062763690948486, 11.357378005981445, -0.3024190366268158, 2.121821880340576, -22.524559020996094, 1.3760873079299927, -16.147659301757812, -1.03857421875, 0.28271484375, -0.2294921875, 0, 
207, 1051678759, 0.526462972164154, 0.4586789608001709, -0.5076114535331726, 0.5047657489776611, 11.17327880859375, -1.3070565462112427, 2.2799346446990967, -21.58951759338379, 6.756850242614746, -24.23470115661621, -1.03662109375, 0.28173828125, -0.2265625, 0, 
208, 1051687092, 0.5283344984054565, 0.4587661921977997, -0.5072100162506104, 0.5031319260597229, 10.526337623596191, -1.932748794555664, 1.9953101873397827, -19.996976852416992, 5.643552303314209, -27.82257080078125, -1.03759765625, 0.2763671875, -0.22412109375, 0, 
209, 1051695425, 0.5300495624542236, 0.4589848518371582, -0.5066938400268555, 0.5016466379165649, 9.893716812133789, -2.206667423248291, 1.6641240119934082, -16.22032928466797, 5.2905354499816895, -27.316864013671875, -1.0380859375, 0.27490234375, -0.224609375, 0, 
210, 1051703758, 0.5315243601799011, 0.45920926332473755, -0.5060408711433411, 0.5005385279655457, 9.452343940734863, -2.296391248703003, 1.5685092210769653, -11.095146179199219, 7.075129985809326, -23.80265998840332, -1.0361328125, 0.2734375, -0.22802734375, 0, 
211, 1051712091, 0.5328019857406616, 0.45933932065963745, -0.5052461624145508, 0.4998630881309509, 9.32750415802002, -1.9576064348220825, 1.525143027305603, -6.548089504241943, 10.001388549804688, -19.53295135498047, -1.0361328125, 0.26904296875, -0.22705078125, 0, 
212, 1051720424, 0.5336613655090332, 0.4595032334327698, -0.504302978515625, 0.49974820017814636, 9.345966339111328, -1.4576926231384277, 1.8635808229446411, 1.2544575929641724, 11.606966018676758, -13.715338706970215, -1.03515625, 0.26416015625, -0.228515625, 0, 
213, 1051728757, 0.5338739156723022, 0.4596923589706421, -0.503696084022522, 0.49995937943458557, 9.331729888916016, -0.9275422692298889, 1.9105559587478638, 5.479831695556641, 6.424203395843506, -4.935286521911621, -1.037109375, 0.26220703125, -0.224609375, 0, 
214, 1051737090, 0.5336467027664185, 0.4597163200378418, -0.5033531785011292, 0.5005250573158264, 9.513739585876465, -0.4738217294216156, 1.6557012796401978, 7.684975624084473, 4.930727481842041, 3.5089833736419678, -1.0341796875, 0.263671875, -0.22998046875, 0, 
215, 1051745423, 0.5333371758460999, 0.4593356251716614, -0.5031760334968567, 0.5013818144798279, 9.640609741210938, -0.17483527958393097, 1.3978843688964844, 6.112185001373291, 7.655135154724121, 10.0557279586792, -1.037109375, 0.25927734375, -0.22607421875, 0, 
216, 1051753756, 0.5329859256744385, 0.4586849510669708, -0.5032435059547424, 0.5022823810577393, 9.393424034118652, -0.2874728739261627, 1.4509934186935425, 3.010018825531006, 7.824804782867432, 14.080289840698242, -1.03515625, 0.26806640625, -0.23193359375, 0, 
217, 1051762089, 0.5326831936836243, 0.4578336775302887, -0.5036506652832031, 0.5029718279838562, 9.274746894836426, -0.43508997559547424, 1.2646838426589966, -2.5703375339508057, 5.6112470626831055, 15.727591514587402, -1.0322265625, 0.26904296875, -0.2314453125, 0, 
218, 1051770422, 0.5325350761413574, 0.4569048583507538, -0.504118025302887, 0.5035048723220825, 9.02131175994873, -1.043440818786621, 1.4242243766784668, -5.614718914031982, 5.903199195861816, 14.429591178894043, -1.03369140625, 0.27001953125, -0.22900390625, 0, 
219, 1051778755, 0.5334218740463257, 0.45524248480796814, -0.5053882598876953, 0.5027979612350464, 8.874201774597168, -1.4039806127548218, 1.0838838815689087, -31.643789291381836, 4.375479221343994, 8.311827659606934, -1.03369140625, 0.27001953125, -0.22705078125, 0, 
220, 1051787088, 0.5340867638587952, 0.4535529911518097, -0.5058665871620178, 0.5031378269195557, 8.777188301086426, -0.48063719272613525, 0.2577407956123352, -17.700408935546875, 15.492573738098145, 12.759866714477539, -1.0283203125, 0.27490234375, -0.22900390625, 0, 
221, 1051795421, 0.5348753333091736, 0.4514768123626709, -0.5057472586631775, 0.5042861700057983, 8.558801651000977, -0.7399414777755737, 0.6322200894355774, -11.55378532409668, 28.34978675842285, 16.796987533569336, -1.033203125, 0.28076171875, -0.2314453125, 0, 
222, 1051803754, 0.5356486439704895, 0.44924575090408325, -0.505483090877533, 0.5057204961776733, 8.260965347290039, -0.9614133834838867, 1.2521940469741821, -9.603954315185547, 32.270931243896484, 19.188005447387695, -1.02734375, 0.27978515625, -0.23486328125, 0, 
223, 1051812087, 0.5363076329231262, 0.44733482599258423, -0.5053691267967224, 0.5068286061286926, 8.0668363571167, -0.9995933771133423, 1.5272467136383057, -9.852895736694336, 26.016834259033203, 16.279909133911133, -1.02197265625, 0.28173828125, -0.23974609375, 0, 
224, 1051820420, 0.5368984937667847, 0.445566862821579, -0.5056725144386292, 0.5074579119682312, 8.028426170349121, -1.1143443584442139, 1.4318565130233765, -14.613956451416016, 18.631179809570312, 14.800366401672363, -1.0224609375, 0.28662109375, -0.2421875, 0, 
225, 1051828753, 0.5377007722854614, 0.4438142776489258, -0.5062558054924011, 0.507562518119812, 7.873127460479736, -1.116563320159912, 1.1803756952285767, -21.39951515197754, 14.605451583862305, 11.057415962219238, -1.02099609375, 0.2890625, -0.2421875, 0, 
226, 1051837086, 0.5384382009506226, 0.44219958782196045, -0.5066307187080383, 0.5078155398368835, 7.760838985443115, -0.7263689637184143, 0.7483539581298828, -17.49441909790039, 15.746514320373535, 10.376179695129395, -1.01806640625, 0.28857421875, -0.24072265625, 0, 
227, 1051845419, 0.5390855669975281, 0.44074544310569763, -0.5067873001098633, 0.5082365274429321, 7.586850166320801, -0.9429042935371399, 0.9565190672874451, -13.064676284790039, 16.525711059570312, 9.800613403320312, -1.0185546875, 0.2890625, -0.24267578125, 0, 
228, 1051853752, 0.5400773286819458, 0.4393864572048187, -0.5069904327392578, 0.5081577897071838, 7.604250431060791, -0.9721664190292358, 1.0836260318756104, -18.252561569213867, 14.995002746582031, 3.309424877166748, -1.0185546875, 0.2919921875, -0.24169921875, 0, 
229, 1051862085, 0.5409735441207886, 0.43820539116859436, -0.5070622563362122, 0.5081527233123779, 7.404395580291748, -0.7356351613998413, 0.8110573887825012, -14.92372989654541, 14.40036678314209, 2.489973783493042, -1.013671875, 0.2939453125, -0.24267578125, 0, 
230, 1051870418, 0.5416679382324219, 0.43741315603256226, -0.5071849822998047, 0.5079730153083801, 7.282154560089111, -0.9278157949447632, 0.7689806222915649, -12.386918067932129, 8.949935913085938, 0.19660210609436035, -1.01806640625, 0.296875, -0.244140625, 0, 
231, 1051878751, 0.5423071980476379, 0.43705374002456665, -0.5069310069084167, 0.5078541040420532, 7.161903381347656, -0.764316737651825, 0.5134994983673096, -5.77766227722168, 8.607305526733398, -4.250797748565674, -1.01416015625, 0.2958984375, -0.24658203125, 0, 
232, 1051887084, 0.5429857969284058, 0.4367992877960205, -0.5066486597061157, 0.50762939453125, 7.202120304107666, -0.8774248361587524, 0.6262574195861816, -5.7690815925598145, 7.8285040855407715, -6.216305732727051, -1.0146484375, 0.2958984375, -0.248046875, 0, 
233, 1051895417, 0.5435653328895569, 0.4368188977241516, -0.5065675377845764, 0.5070730447769165, 7.189140796661377, -0.8914284110069275, 0.6016117334365845, -6.84514856338501, 1.6257997751235962, -8.701566696166992, -1.013671875, 0.29443359375, -0.24560546875, 0, 
234, 1051903750, 0.5442215800285339, 0.4369661211967468, -0.5065513849258423, 0.5062574744224548, 7.286672115325928, -0.859977662563324, 0.370298832654953, -8.607894897460938, -0.6658933162689209, -11.674867630004883, -1.0107421875, 0.29296875, -0.24560546875, 0, 
235, 1051912083, 0.5450158715248108, 0.43697434663772583, -0.5063686966896057, 0.5055781602859497, 7.406227111816406, -0.9074819087982178, 0.08296962082386017, -8.373037338256836, 3.2231035232543945, -11.646023750305176, -1.0107421875, 0.28955078125, -0.24609375, 0, 
236, 1051920416, 0.5458639860153198, 0.4368267357349396, -0.5060611367225647, 0.5050983428955078, 7.472672462463379, -0.7436600923538208, 0.02267211303114891, -7.600461483001709, 6.920953750610352, -10.193032264709473, -1.0126953125, 0.28955078125, -0.24560546875, 0, 
237, 1051928749, 0.5465907454490662, 0.4367835521697998, -0.5055456757545471, 0.5048659443855286, 7.572253704071045, -0.700790286064148, 0.02647501789033413, -2.927861213684082, 8.29146957397461, -9.465383529663086, -1.01171875, 0.2890625, -0.24609375, 0, 
238, 1051937082, 0.5471392869949341, 0.4370485544204712, -0.5048983097076416, 0.5046902894973755, 7.405352592468262, -0.8515511751174927, 0.12398318201303482, 1.7735683917999268, 6.353803634643555, -10.740588188171387, -1.01318359375, 0.28564453125, -0.244140625, 0, 
239, 1051945415, 0.5475588440895081, 0.43743446469306946, -0.5045552849769592, 0.5042439103126526, 7.450494766235352, -1.0688493251800537, 0.11794229596853256, -0.5365413427352905, 0.5943270921707153, -10.890890121459961, -1.013671875, 0.2841796875, -0.24267578125, 0, 
240, 1051953748, 0.5478269457817078, 0.4382058382034302, -0.5042714476585388, 0.5035662055015564, 7.545624732971191, -0.851047694683075, -0.16620220243930817, 1.2622441053390503, -4.858445167541504, -13.903345108032227, -1.01171875, 0.27978515625, -0.2421875, 0, 
241, 1051962081, 0.5480341911315918, 0.4392598271369934, -0.5038604736328125, 0.5028333067893982, 7.585006237030029, -0.7641196846961975, -0.4185408055782318, 4.254423141479492, -6.719627857208252, -16.61973762512207, -1.01318359375, 0.27978515625, -0.23974609375, 0, 
242, 1051970414, 0.5483404397964478, 0.4404394328594208, -0.5033878087997437, 0.5019403696060181, 7.570559978485107, -0.6951248645782471, -0.5791990756988525, 3.922450542449951, -7.297370910644531, -19.757959365844727, -1.0126953125, 0.2763671875, -0.23583984375, 0, 
243, 1051978747, 0.5486014485359192, 0.4419281780719757, -0.5027886629104614, 0.5009462833404541, 7.602428913116455, -0.5339350700378418, -0.8542454838752747, 6.699305057525635, -9.509943008422852, -23.10959815979004, -1.01416015625, 0.27294921875, -0.236328125, 0, 
244, 1051987080, 0.5488798022270203, 0.44360047578811646, -0.5020098090171814, 0.49994316697120667, 7.535867691040039, -0.4673977196216583, -1.1703497171401978, 9.156403541564941, -9.243401527404785, -25.66539192199707, -1.01171875, 0.26806640625, -0.23486328125, 0, 
245, 1051995413, 0.54924076795578, 0.4452933669090271, -0.5009804368019104, 0.4990736246109009, 7.647093772888184, -0.5645097494125366, -1.2848198413848877, 11.44962215423584, -6.22005033493042, -26.8881893157959, -1.01611328125, 0.26318359375, -0.2333984375, 0, 
246, 1052003746, 0.5493659377098083, 0.4471951723098755, -0.4999704957008362, 0.4982476830482483, 7.654084205627441, -0.5153140425682068, -1.310341715812683, 14.639009475708008, -9.043074607849121, -26.26945686340332, -1.015625, 0.25830078125, -0.23095703125, 0, 
247, 1052012079, 0.5491999387741089, 0.44926324486732483, -0.49906808137893677, 0.4974743127822876, 8.002429962158203, -0.5888977646827698, -1.2488597631454468, 17.309524536132812, -12.78816032409668, -24.351999282836914, -1.0185546875, 0.2548828125, -0.2314453125, 0, 
248, 1052020412, 0.5488749742507935, 0.45140331983566284, -0.49820399284362793, 0.4967610836029053, 8.192190170288086, -1.019534707069397, -0.9863868355751038, 18.9880313873291, -14.171512603759766, -23.075363159179688, -1.0166015625, 0.2490234375, -0.2294921875, 0, 
249, 1052028745, 0.5481215715408325, 0.45391523838043213, -0.4978707432746887, 0.49563705921173096, 8.518835067749023, -1.2170569896697998, -0.5077147483825684, 18.011672973632812, -26.32080078125, -22.494489669799805, -1.0185546875, 0.24951171875, -0.2255859375, 0, 
250, 1052037078, 0.5470544099807739, 0.4563945531845093, -0.49798107147216797, 0.4944268763065338, 9.8070707321167, -1.6687910556793213, -0.14297255873680115, 16.111759185791016, -32.00957489013672, -18.021804809570312, -1.01904296875, 0.2431640625, -0.21875, 0, 
251, 1052045411, 0.5457578897476196, 0.45877447724342346, -0.4986284375190735, 0.49300268292427063, 10.50593376159668, -2.021392345428467, 0.06449040025472641, 11.687664031982422, -38.40520477294922, -14.01078987121582, -1.0224609375, 0.240234375, -0.216796875, 0, 
252, 1052053744, 0.5439087748527527, 0.4614866077899933, -0.49989137053489685, 0.49123281240463257, 11.052319526672363, -2.3118503093719482, 0.1572648286819458, 11.122138023376465, -51.12714767456055, -11.266716957092285, -1.0244140625, 0.23681640625, -0.2109375, 0, 
253, 1052062077, 0.5415798425674438, 0.46429306268692017, -0.5015470385551453, 0.48947063088417053, 11.789412498474121, -2.1100189685821533, -0.07903900742530823, 12.271561622619629, -58.07434844970703, -6.111203670501709, -1.02587890625, 0.234375, -0.2001953125, 0, 
254, 1052070410, 0.5386481881141663, 0.4675036072731018, -0.5038381218910217, 0.48729172348976135, 11.85776424407959, -1.6011621952056885, -0.343478798866272, 11.980091094970703, -72.21923065185547, -3.906381607055664, -1.0283203125, 0.23388671875, -0.18701171875, 0, 
255, 1052078743, 0.5352583527565002, 0.47098955512046814, -0.5063636302947998, 0.4850473403930664, 11.991669654846191, -0.8882331252098083, -1.383793592453003, 14.942007064819336, -79.5196304321289, -1.707275152206421, -1.03076171875, 0.23193359375, -0.17724609375, 0, 
256, 1052087076, 0.5318522453308105, 0.4744628667831421, -0.50862056016922, 0.48304349184036255, 11.677485466003418, -0.29978156089782715, -2.7530314922332764, 18.419769287109375, -75.89141082763672, -1.496903896331787, -1.03125, 0.23291015625, -0.166015625, 0, 
257, 1052095409, 0.5287659168243408, 0.47769397497177124, -0.5101548433303833, 0.4816271662712097, 11.444003105163574, -0.3777029812335968, -3.7030251026153564, 23.470813751220703, -63.04901885986328, -2.324321985244751, -1.03857421875, 0.228515625, -0.158203125, 0, 
258, 1052103742, 0.5265980958938599, 0.48028671741485596, -0.5110318064689636, 0.4804926812648773, 11.191793441772461, -0.16539739072322845, -3.9473531246185303, 19.127765655517578, -45.61949157714844, -6.2219672203063965, -1.037109375, 0.228515625, -0.146484375, 0, 
259, 1052112075, 0.5253322124481201, 0.4820212423801422, -0.511196494102478, 0.4799661636352539, 12.296475410461426, -0.052734773606061935, -3.172818422317505, 15.933053970336914, -24.56491470336914, -6.428409576416016, -1.03564453125, 0.22705078125, -0.1435546875, 0, 
260, 1052120408, 0.5248859524726868, 0.4819212257862091, -0.5114930272102356, 0.4802387058734894, 14.79931354522705, 0.7116132974624634, -1.0543559789657593, 1.996232509613037, -2.2175779342651367, 7.6817216873168945, -1.0390625, 0.2275390625, -0.1396484375, 0, 
261, 1052128741, 0.5236609578132629, 0.4801643490791321, -0.5134968161582947, 0.48119643330574036, 17.731674194335938, 1.8187980651855469, 0.9607150554656982, -11.259509086608887, -4.667881011962891, 40.760990142822266, -1.037109375, 0.23193359375, -0.14013671875, 0, 
262, 1052137074, 0.5206019282341003, 0.4779870808124542, -0.5170283913612366, 0.4828988015651703, 17.314603805541992, 1.6683977842330933, 1.037649393081665, -7.026031494140625, -20.78519630432129, 71.29267883300781, -1.0322265625, 0.23974609375, -0.13720703125, 0, 
263, 1052145407, 0.5167808532714844, 0.47663918137550354, -0.5204992294311523, 0.4846038818359375, 15.307689666748047, 0.4118245244026184, -0.14279933273792267, 4.340444564819336, -31.393991470336914, 70.10057067871094, -1.03125, 0.25, -0.13232421875, 0, 
264, 1052153740, 0.5135133862495422, 0.4763637185096741, -0.5235350728034973, 0.48507753014564514, 14.795882225036621, 0.1327630579471588, -1.0328227281570435, 2.4228711128234863, -39.42258834838867, 47.109893798828125, -1.0322265625, 0.25732421875, -0.1279296875, 0, 
265, 1052162073, 0.5126811265945435, 0.47447535395622253, -0.5258476734161377, 0.48530706763267517, 14.93454647064209, 1.248661994934082, -1.210893988609314, -21.858173370361328, -7.761049270629883, 36.03781509399414, -1.03076171875, 0.26416015625, -0.1220703125, 0, 
266, 1052170406, 0.5151338577270508, 0.4688950777053833, -0.5270802974700928, 0.486794114112854, 14.105993270874023, 1.5968056917190552, -0.8903895020484924, -53.01338577270508, 56.5883674621582, 42.61286926269531, -1.02880859375, 0.26904296875, -0.12109375, 0, 
267, 1052178739, 0.519639253616333, 0.4609699845314026, -0.5274693965911865, 0.48914769291877747, 12.271688461303711, -0.2890024185180664, -0.017665423452854156, -70.93807220458984, 98.58873748779297, 46.58757400512695, -1.021484375, 0.27880859375, -0.134765625, 0, 
268, 1052187072, 0.5247735381126404, 0.4533362090587616, -0.527036190032959, 0.49126291275024414, 10.737997055053711, -1.9538861513137817, 0.8406158685684204, -69.03556060791016, 105.69773864746094, 33.3115119934082, -1.017578125, 0.28466796875, -0.1474609375, 0, 
269, 1052195405, 0.5294524431228638, 0.4472007751464844, -0.5259539484977722, 0.49302276968955994, 10.667106628417969, -2.2905781269073486, 2.282787799835205, -53.580711364746094, 94.6018295288086, 18.936912536621094, -1.0087890625, 0.28857421875, -0.15869140625, 0, 
270, 1052203738, 0.5330455303192139, 0.4424712359905243, -0.5244886875152588, 0.4949756860733032, 10.899036407470703, -2.154442071914673, 4.349765300750732, -32.66279602050781, 81.33139038085938, 15.163962364196777, -1.00390625, 0.29638671875, -0.16796875, 0, 
271, 1052212071, 0.5339548587799072, 0.44063466787338257, -0.5243947505950928, 0.4957328140735626, 10.674344062805176, -1.525922417640686, 6.520219802856445, -13.097375869750977, 24.815731048583984, 12.157576560974121, -0.99853515625, 0.2958984375, -0.1728515625, 0, 
272, 1052220404, 0.531379759311676, 0.4419887661933899, -0.5256668329238892, 0.4959471821784973, 11.440253257751465, -0.2913064658641815, 4.234742641448975, 18.231271743774414, -35.2484130859375, 17.177600860595703, -0.998046875, 0.29931640625, -0.17138671875, 0, 
273, 1052228737, 0.527445912361145, 0.44431036710739136, -0.5265282392501831, 0.49715691804885864, 12.280294418334961, 0.7980657815933228, 1.6355239152908325, 43.544132232666016, -42.7497673034668, 24.245681762695312, -1, 0.30029296875, -0.16357421875, 0, 
274, 1052237070, 0.5239096879959106, 0.44555121660232544, -0.5262373685836792, 0.5000846982002258, 12.830735206604004, 0.3957658112049103, 1.5550944805145264, 53.60600662231445, -13.50381088256836, 34.75142288208008, -0.9990234375, 0.3017578125, -0.1650390625, 0, 
275, 1052245403, 0.5220962166786194, 0.44511866569519043, -0.5258612632751465, 0.5027549862861633, 12.66098690032959, -0.3293874263763428, 2.532879114151001, 29.705869674682617, 9.383522033691406, 32.65688705444336, -0.99462890625, 0.3037109375, -0.1630859375, 0, 
276, 1052253736, 0.5213490724563599, 0.4442620873451233, -0.5256309509277344, 0.5045257806777954, 11.75874137878418, -0.22903193533420563, 2.6872687339782715, 12.632221221923828, 13.595751762390137, 22.769319534301758, -0.99365234375, 0.30810546875, -0.16650390625, 0, 
277, 1052262069, 0.5206912755966187, 0.44345080852508545, -0.525527834892273, 0.5060240030288696, 11.280967712402344, -0.2382296621799469, 2.1375672817230225, 9.546534538269043, 11.228031158447266, 20.661836624145508, -0.990234375, 0.31005859375, -0.16748046875, 0, 
278, 1052270402, 0.5201511383056641, 0.4431016743183136, -0.5254476070404053, 0.5069673657417297, 10.599088668823242, -0.23689286410808563, 1.9805492162704468, 7.9796929359436035, 5.4312052726745605, 12.653164863586426, -0.98828125, 0.3076171875, -0.16943359375, 0, 
279, 1052278735, 0.5198926329612732, 0.44293591380119324, -0.5252563953399658, 0.5075752139091492, 10.5313081741333, -0.4303142726421356, 2.2836813926696777, 5.915133953094482, 4.821713447570801, 6.303983211517334, -0.98681640625, 0.30712890625, -0.16943359375, 0, 
280, 1052287068, 0.5198378562927246, 0.44315552711486816, -0.5250905752182007, 0.5076111555099487, 10.401548385620117, -0.8029736280441284, 2.1694905757904053, 3.129714012145996, 0.05400761589407921, -1.8497064113616943, -0.9873046875, 0.31103515625, -0.1708984375, 0, 
281, 1052295401, 0.5200511813163757, 0.4438785910606384, -0.5248391628265381, 0.5070204734802246, 9.918002128601074, -0.810492992401123, 1.847976803779602, 1.1579045057296753, -4.848288536071777, -12.3438081741333, -0.9853515625, 0.31005859375, -0.16796875, 0, 
282, 1052303734, 0.5204982757568359, 0.44486862421035767, -0.5241368412971497, 0.5064201354980469, 9.805109024047852, -1.1074130535125732, 1.372226357460022, 4.723791122436523, -1.7435358762741089, -18.73538589477539, -0.9833984375, 0.3056640625, -0.1669921875, 0, 
283, 1052312067, 0.5214219689369202, 0.4458252191543579, -0.5229798555374146, 0.5058243274688721, 9.483540534973145, -0.8713541626930237, 1.255630373954773, 4.757781982421875, 5.093534469604492, -24.548540115356445, -0.9853515625, 0.302734375, -0.16796875, 0, 
284, 1052320400, 0.5228914618492126, 0.4464336037635803, -0.5216392278671265, 0.5051550269126892, 9.134708404541016, -0.5287278294563293, 1.1733871698379517, -0.32729893922805786, 12.416062355041504, -27.507556915283203, -0.9833984375, 0.3017578125, -0.169921875, 0, 
285, 1052328733, 0.5243675112724304, 0.44728410243988037, -0.5200340747833252, 0.5045272707939148, 8.630780220031738, 0.37419936060905457, 1.3508691787719727, 3.501046895980835, 12.829965591430664, -30.600666046142578, -0.98095703125, 0.294921875, -0.16845703125, 0, 
286, 1052337066, 0.5257282257080078, 0.4482974410057068, -0.5185137987136841, 0.5037760734558105, 8.270328521728516, 0.9131360054016113, 1.3088592290878296, 3.920531988143921, 9.611916542053223, -31.348731994628906, -0.9794921875, 0.29150390625, -0.17236328125, 0, 
287, 1052345399, 0.5270893573760986, 0.44924765825271606, -0.5170589685440063, 0.503001868724823, 8.163973808288574, 1.1603748798370361, 1.3165829181671143, 2.8362538814544678, 9.329928398132324, -30.64971351623535, -0.9833984375, 0.28369140625, -0.1708984375, 0, 
288, 1052353732, 0.5284422039985657, 0.4501396417617798, -0.5157834887504578, 0.5020934343338013, 7.909005165100098, 1.1903674602508545, 1.3027852773666382, 0.2778122127056122, 7.650465965270996, -30.051374435424805, -0.9833984375, 0.27880859375, -0.17431640625, 0, 
289, 1052362065, 0.529630184173584, 0.4511667490005493, -0.5146806836128235, 0.5010504722595215, 7.866611480712891, 1.097955584526062, 1.2513996362686157, 0.12527932226657867, 3.3529062271118164, -29.770769119262695, -0.97998046875, 0.275390625, -0.1748046875, 0, 
290, 1052370398, 0.5305314660072327, 0.4523908495903015, -0.5138176083564758, 0.49987804889678955, 7.702830791473389, 0.8907178044319153, 0.9678294658660889, 0.7761375904083252, -2.476757526397705, -28.657649993896484, -0.97998046875, 0.2724609375, -0.17431640625, 0, 
291, 1052378731, 0.5312995314598083, 0.45374104380607605, -0.5128738880157471, 0.4988067150115967, 7.664866924285889, 0.831295371055603, 0.8597128391265869, 3.7904741764068604, -3.1711597442626953, -28.384267807006836, -0.98193359375, 0.26416015625, -0.17578125, 0, 
292, 1052387064, 0.5319633483886719, 0.45472726225852966, -0.512211799621582, 0.49788016080856323, 7.361880302429199, 0.3923245966434479, 0.8862594366073608, 0.8718577027320862, -2.463411808013916, -22.296649932861328, -0.97998046875, 0.26513671875, -0.17333984375, 0, 
293, 1052395397, 0.5325992107391357, 0.4555217921733856, -0.511586606502533, 0.4971161484718323, 7.512173652648926, 0.4454520642757416, 0.790712833404541, 0.5325073003768921, -0.7034695148468018, -19.325485229492188, -0.9814453125, 0.26171875, -0.1748046875, 0, 
294, 1052403730, 0.5331820249557495, 0.45603907108306885, -0.5110490322113037, 0.49656984210014343, 7.249030590057373, 0.3875141143798828, 0.7400748133659363, -0.22628901898860931, 1.6449209451675415, -14.878199577331543, -0.98193359375, 0.2568359375, -0.1748046875, 0, 
295, 1052412063, 0.5335457921028137, 0.4566977918148041, -0.5104668140411377, 0.49617239832878113, 7.160740852355957, 0.6811877489089966, 0.6513965725898743, 3.530052423477173, 0.29594695568084717, -13.555659294128418, -0.97998046875, 0.2548828125, -0.17138671875, 0, 
296, 1052420396, 0.5338523387908936, 0.45699092745780945, -0.5100536346435547, 0.49599793553352356, 6.794099807739258, 0.6184443235397339, 0.5426901578903198, 1.6210222244262695, 2.6519954204559326, -7.9093546867370605, -0.97607421875, 0.2548828125, -0.17041015625, 0, 
297, 1052428729, 0.5342129468917847, 0.4570847153663635, -0.5095288753509521, 0.49606263637542725, 6.717745780944824, 0.9004632830619812, 0.5286797285079956, 2.2546677589416504, 6.610906600952148, -5.818030834197998, -0.97412109375, 0.251953125, -0.17041015625, 0, 
298, 1052437062, 0.5346183776855469, 0.4569680094718933, -0.5089555382728577, 0.49632173776626587, 6.707884311676025, 0.8993736505508423, 0.5779896974563599, 2.121704339981079, 10.040192604064941, -3.5322933197021484, -0.97509765625, 0.2548828125, -0.173828125, 0, 
299, 1052445395, 0.5348334312438965, 0.4568195044994354, -0.5086663961410522, 0.49652302265167236, 6.583499431610107, 0.9055301547050476, 0.6251981258392334, 0.7383303642272949, 6.369876384735107, -0.6417262554168701, -0.97412109375, 0.251953125, -0.17578125, 0, 
300, 1052453728, 0.5347761511802673, 0.4568477272987366, -0.5086517333984375, 0.496573805809021, 6.715246200561523, 0.779645562171936, 0.4218961298465729, 0.8240099549293518, 0.39709746837615967, 0.5935330390930176, -0.9716796875, 0.2529296875, -0.17529296875, 0, 
301, 1052462061, 0.5344059467315674, 0.45705071091651917, -0.5089046359062195, 0.49652644991874695, 6.898210525512695, 0.5122247934341431, 0.20910292863845825, 1.560316801071167, -5.670902252197266, 2.4693918228149414, -0.9697265625, 0.25, -0.1748046875, 0, 
302, 1052470394, 0.5338506102561951, 0.4572790265083313, -0.5093083381652832, 0.4964997470378876, 7.23127555847168, 0.3973201513290405, -0.15971864759922028, 2.023294448852539, -8.01944637298584, 4.655362606048584, -0.974609375, 0.2529296875, -0.1728515625, 0, 
303, 1052478727, 0.5332237482070923, 0.4571073651313782, -0.5098966956138611, 0.49672752618789673, 7.663707733154297, 0.08499307930469513, -0.3991166353225708, 0.060552049428224564, -5.643136501312256, 10.975290298461914, -0.966796875, 0.24755859375, -0.16845703125, 0, 
304, 1052487060, 0.5323848128318787, 0.45693719387054443, -0.5103425979614258, 0.49732568860054016, 7.787954330444336, 0.0039046353194862604, -0.7481846809387207, 4.974515914916992, -3.6670751571655273, 14.235729217529297, -0.970703125, 0.25341796875, -0.17041015625, 0, 
305, 1052495393, 0.5307084918022156, 0.4571101665496826, -0.5100694894790649, 0.4992348849773407, 8.323486328125, 0.7512233853340149, -1.3197369575500488, 26.86572265625, 1.5103193521499634, 22.632862091064453, -0.96728515625, 0.25439453125, -0.1708984375, 0, 
306, 1052503726, 0.5290958285331726, 0.45707178115844727, -0.5094770193099976, 0.5015811324119568, 8.238712310791016, -0.5864248275756836, -0.5321514010429382, 30.182640075683594, 8.587786674499512, 24.85797119140625, -0.96630859375, 0.25634765625, -0.17041015625, 0, 
307, 1052512059, 0.5282095074653625, 0.45652884244918823, -0.5093088150024414, 0.5031781196594238, 8.30836009979248, -0.3173275887966156, -0.890134334564209, 13.768875122070312, 9.259974479675293, 20.60198974609375, -0.9638671875, 0.25927734375, -0.17236328125, 0, 
308, 1052520392, 0.5274283289909363, 0.45575150847435, -0.5092971920967102, 0.5047118067741394, 8.405428886413574, 0.11149514466524124, -1.2499744892120361, 9.881118774414062, 10.186748504638672, 22.037565231323242, -0.96435546875, 0.26123046875, -0.17138671875, 0, 
309, 1052528725, 0.526677131652832, 0.4549025297164917, -0.5093480944633484, 0.5062086582183838, 8.429680824279785, 0.012355867773294449, -1.1348241567611694, 8.479277610778809, 10.104628562927246, 22.456640243530273, -0.9599609375, 0.26220703125, -0.17236328125, 0, 
310, 1052537058, 0.5260213613510132, 0.45407190918922424, -0.5096009969711304, 0.5073801279067993, 8.286524772644043, -0.2378745973110199, -0.9042047262191772, 4.332752704620361, 7.254441261291504, 20.569982528686523, -0.9599609375, 0.265625, -0.17578125, 0, 
311, 1052545391, 0.52560955286026, 0.45315778255462646, -0.5100961327552795, 0.5081263780593872, 8.17702579498291, -0.0939142182469368, -1.1143726110458374, -2.4668819904327393, 5.031905174255371, 17.891176223754883, -0.95458984375, 0.26318359375, -0.17626953125, 0, 
312, 1052553724, 0.5255250334739685, 0.4521084725856781, -0.5107187628746033, 0.5085225105285645, 8.311850547790527, 0.1568736881017685, -1.31277596950531, -8.827717781066895, 5.279825210571289, 14.814956665039062, -0.95703125, 0.26953125, -0.1748046875, 0, 
313, 1052562057, 0.5255328416824341, 0.45111557841300964, -0.5115155577659607, 0.5085955858230591, 8.341841697692871, 0.39908382296562195, -1.2511696815490723, -12.482625961303711, 2.156719207763672, 12.522418022155762, -0.95263671875, 0.27294921875, -0.1767578125, 0, 
314, 1052570390, 0.525469958782196, 0.4501996338367462, -0.512684166431427, 0.5082951784133911, 8.57291030883789, 0.5870807766914368, -1.1641414165496826, -16.714702606201172, -3.7717230319976807, 12.083070755004883, -0.94921875, 0.2724609375, -0.1728515625, 0, 
315, 1052578723, 0.5253779292106628, 0.4495159983634949, -0.5138491988182068, 0.5078186988830566, 9.120758056640625, 0.8206127882003784, -0.8705448508262634, -16.07329559326172, -6.776273250579834, 9.355076789855957, -0.95263671875, 0.27490234375, -0.1748046875, 0, 
316, 1052587056, 0.5253403186798096, 0.4488399028778076, -0.5148836374282837, 0.5074078440666199, 9.82153034210205, 1.0985671281814575, -0.6620441675186157, -14.975341796875, -4.980330467224121, 8.589287757873535, -0.95166015625, 0.27685546875, -0.16796875, 0, 
317, 1052595389, 0.5254523754119873, 0.44817647337913513, -0.51563960313797, 0.507110595703125, 10.576752662658691, 1.2337580919265747, -0.34121614694595337, -13.064400672912598, -1.4110499620437622, 6.556066513061523, -0.9453125, 0.2763671875, -0.16845703125, 0, 
318, 1052603722, 0.525448203086853, 0.4478211998939514, -0.5163797736167908, 0.5066753029823303, 11.188178062438965, 1.1963300704956055, -0.12156087160110474, -10.988213539123535, -5.004727840423584, 4.092386722564697, -0.94873046875, 0.27880859375, -0.169921875, 0, 
319, 1052612055, 0.5251132249832153, 0.4481743276119232, -0.5172396898269653, 0.5058327317237854, 11.460371971130371, 1.0622990131378174, -0.10800473392009735, -7.560118675231934, -15.77737045288086, -0.8447062969207764, -0.94775390625, 0.27978515625, -0.16748046875, 0, 
320, 1052620388, 0.5249274969100952, 0.44871291518211365, -0.5180723667144775, 0.5046945214271545, 11.489862442016602, 0.6122100353240967, -0.5410112738609314, -9.05419921875, -17.51653289794922, -5.4963555335998535, -0.94677734375, 0.279296875, -0.1611328125, 0, 
321, 1052628721, 0.5249851942062378, 0.4491152763366699, -0.5187522172927856, 0.5035769939422607, 11.352876663208008, -0.10284204035997391, -1.0987483263015747, -10.331018447875977, -13.721012115478516, -7.016330242156982, -0.94580078125, 0.2783203125, -0.15966796875, 0, 
322, 1052637054, 0.5250288844108582, 0.44964662194252014, -0.5192373394966125, 0.5025560855865479, 11.374626159667969, -0.5179299712181091, -2.0481467247009277, -7.27682638168335, -12.593137741088867, -8.33469295501709, -0.9462890625, 0.27490234375, -0.15576171875, 0, 
323, 1052645387, 0.5242034196853638, 0.45063987374305725, -0.5189637541770935, 0.5028107166290283, 11.294684410095215, -1.2581534385681152, -3.050750732421875, 15.783689498901367, -8.747058868408203, -1.1174981594085693, -0.947265625, 0.27685546875, -0.15234375, 0, 
324, 1052653720, 0.5238208174705505, 0.45140212774276733, -0.518646240234375, 0.502853512763977, 10.583183288574219, -2.260497570037842, -3.2758877277374268, 10.166125297546387, -4.859917640686035, -4.319687843322754, -0.939453125, 0.2763671875, -0.15087890625, 0, 
325, 1052662053, 0.5236193537712097, 0.4514204263687134, -0.5182813405990601, 0.5034229755401611, 10.596909523010254, -1.670261263847351, -3.4476253986358643, 7.767478942871094, 5.061923503875732, 3.221719980239868, -0.94580078125, 0.2724609375, -0.1513671875, 0, 
326, 1052670386, 0.5233790874481201, 0.4504311680793762, -0.5182289481163025, 0.5046113729476929, 11.894641876220703, -1.451454758644104, -1.200844645500183, 3.0003890991210938, 13.482199668884277, 17.075777053833008, -0.9423828125, 0.275390625, -0.15576171875, 0, 
327, 1052678719, 0.5219863653182983, 0.450025737285614, -0.5193896293640137, 0.5052220225334167, 14.01343822479248, -1.1064114570617676, 2.04585337638855, 1.8058431148529053, -11.220399856567383, 24.25847625732422, -0.935546875, 0.27294921875, -0.15625, 0, 
328, 1052687052, 0.5190837979316711, 0.45111382007598877, -0.5222770571708679, 0.5042642951011658, 16.342628479003906, -1.7420822381973267, 2.762160301208496, -1.3256686925888062, -54.34747314453125, 23.519407272338867, -0.93798828125, 0.27978515625, -0.150390625, 0, 
329, 1052695385, 0.5163900852203369, 0.45236918330192566, -0.5252950191497803, 0.5027683973312378, 16.479206085205078, -2.3420004844665527, 1.2047362327575684, -6.200509548187256, -58.41157913208008, 17.829036712646484, -0.939453125, 0.283203125, -0.14111328125, 0, 
330, 1052703718, 0.5156549215316772, 0.4530515670776367, -0.5261030793190002, 0.5020630955696106, 14.702862739562988, -1.4001888036727905, 0.7290095090866089, -1.4598325490951538, -19.560779571533203, 0.30074962973594666, -0.93798828125, 0.28466796875, -0.13671875, 0, 
331, 1052712051, 0.516321063041687, 0.45368465781211853, -0.5256059169769287, 0.5013269186019897, 14.800678253173828, -1.2329951524734497, 1.6774375438690186, -1.754908561706543, -0.14951033890247345, -17.37521743774414, -0.93798828125, 0.28173828125, -0.13623046875, 0, 
332, 1052720384, 0.5179734230041504, 0.45445042848587036, -0.5246949791908264, 0.49988114833831787, 15.069028854370117, -1.8300564289093018, 3.58707594871521, -9.237706184387207, 4.702970504760742, -32.74639892578125, -0.93603515625, 0.275390625, -0.13623046875, 0, 
333, 1052728717, 0.5198701024055481, 0.4560520052909851, -0.5232023596763611, 0.4980144798755646, 13.52823257446289, -1.5280437469482422, 2.8944153785705566, -3.854489326477051, 2.1046361923217773, -47.096702575683594, -0.9345703125, 0.271484375, -0.13818359375, 0, 
334, 1052737050, 0.5215075016021729, 0.4580236077308655, -0.5207862854003906, 0.4970248341560364, 11.36645793914795, -0.965882420539856, 1.522241473197937, 13.053108215332031, 9.933517456054688, -47.50067901611328, -0.93408203125, 0.2666015625, -0.134765625, 0, 
335, 1052745383, 0.5229915976524353, 0.4597523510456085, -0.517939031124115, 0.4968445301055908, 10.29004192352295, 0.05888478830456734, 1.879746675491333, 21.019075393676758, 18.55951499938965, -41.62886047363281, -0.93701171875, 0.2607421875, -0.13720703125, 0, 
336, 1052753716, 0.5241347551345825, 0.46104300022125244, -0.5155620574951172, 0.4969160854816437, 10.596412658691406, 0.7036682367324829, 2.7771875858306885, 18.604246139526367, 17.4559326171875, -31.39238929748535, -0.93701171875, 0.25634765625, -0.146484375, 0, 
337, 1052762049, 0.5246574282646179, 0.46225765347480774, -0.5139859914779663, 0.4968687891960144, 11.240070343017578, 0.8286354541778564, 3.4961347579956055, 15.674439430236816, 6.927272796630859, -22.394479751586914, -0.93505859375, 0.24853515625, -0.146484375, 0, 
338, 1052770382, 0.5246951580047607, 0.4632987380027771, -0.5130830407142639, 0.49679210782051086, 11.69644546508789, 0.7324682474136353, 3.239351987838745, 12.697990417480469, -0.23772574961185455, -13.78455924987793, -0.9365234375, 0.24609375, -0.1455078125, 0, 
339, 1052778715, 0.5244032144546509, 0.4639376997947693, -0.5127689838409424, 0.4968282878398895, 11.477398872375488, 0.6082514524459839, 2.484065532684326, 8.67045783996582, -3.465580701828003, -4.130859375, -0.9326171875, 0.2431640625, -0.142578125, 0, 
340, 1052787048, 0.5239560008049011, 0.46440914273262024, -0.5126851797103882, 0.49694645404815674, 11.228233337402344, 0.6850703954696655, 1.9525326490402222, 7.45841646194458, -4.439151763916016, 0.17316503822803497, -0.935546875, 0.2470703125, -0.1455078125, 0, 
341, 1052795381, 0.5234890580177307, 0.4647812843322754, -0.5127800703048706, 0.49699270725250244, 11.2992582321167, 0.608514666557312, 1.9849672317504883, 5.140265464782715, -5.761000633239746, 1.6292192935943604, -0.93115234375, 0.2431640625, -0.142578125, 0, 
342, 1052803714, 0.5231159329414368, 0.465093195438385, -0.5129805207252502, 0.4968867301940918, 11.483612060546875, 0.20678529143333435, 2.0083022117614746, 2.3107497692108154, -6.311910629272461, 0.9969956874847412, -0.931640625, 0.24267578125, -0.1435546875, 0, 
343, 1052812047, 0.5231700539588928, 0.4651035666465759, -0.5132455825805664, 0.4965462386608124, 11.314715385437012, 0.04172850772738457, 1.621827483177185, -4.6850996017456055, -3.3115105628967285, -1.073979139328003, -0.93408203125, 0.2421875, -0.14404296875, 0, 
344, 1052820380, 0.523644745349884, 0.4649028182029724, -0.5132789015769958, 0.49619942903518677, 11.2193603515625, -0.11882955580949783, 1.1771632432937622, -7.358714580535889, 2.8339719772338867, -3.97904372215271, -0.9296875, 0.24072265625, -0.14111328125, 0, 
345, 1052828713, 0.5242222547531128, 0.46476036310195923, -0.5130281448364258, 0.4959823489189148, 10.913715362548828, -0.2550402283668518, 1.1682260036468506, -4.73942756652832, 5.928733825683594, -5.978951930999756, -0.9296875, 0.2421875, -0.14404296875, 0, 
346, 1052837046, 0.5245266556739807, 0.4647030830383301, -0.5130958557128906, 0.49564406275749207, 10.569687843322754, -0.5880707502365112, 1.2315441370010376, -5.41082763671875, 0.4558181166648865, -3.5493388175964355, -0.92724609375, 0.24169921875, -0.14404296875, 0, 
347, 1052845379, 0.5247763991355896, 0.464619904756546, -0.5130268931388855, 0.495528906583786, 10.394131660461426, -0.7856072783470154, 0.9679506421089172, -2.738494873046875, 2.554187536239624, -2.2658095359802246, -0.9267578125, 0.240234375, -0.1416015625, 0, 
348, 1052853712, 0.5251768231391907, 0.46416693925857544, -0.5129896402359009, 0.49556803703308105, 9.897842407226562, -1.129772424697876, 1.0397825241088867, -5.498608112335205, 6.996387958526611, 0.6403174996376038, -0.9296875, 0.23974609375, -0.14208984375, 0, 
349, 1052862045, 0.5257312059402466, 0.4634851813316345, -0.5128309726715088, 0.49578267335891724, 9.625995635986328, -1.2671260833740234, 0.9769346714019775, -6.067052841186523, 11.535039901733398, 1.6909496784210205, -0.92626953125, 0.24072265625, -0.14306640625, 0, 
350, 1052870378, 0.5263684988021851, 0.46260905265808105, -0.5125572085380554, 0.49620723724365234, 9.303360939025879, -1.619113802909851, 1.0640746355056763, -5.737653732299805, 15.717179298400879, 3.285794496536255, -0.923828125, 0.23681640625, -0.14697265625, 0, 
351, 1052878711, 0.5269996523857117, 0.4615181088447571, -0.5123275518417358, 0.4967902898788452, 9.058180809020996, -1.8944395780563354, 1.1830335855484009, -6.435322284698486, 17.727245330810547, 6.264026641845703, -0.92236328125, 0.2431640625, -0.14794921875, 0, 
352, 1052887044, 0.5274790525436401, 0.4604441523551941, -0.5120394825935364, 0.49757418036460876, 8.775343894958496, -1.9768973588943481, 1.2217830419540405, -3.536302328109741, 18.339759826660156, 8.27005672454834, -0.92431640625, 0.2421875, -0.1513671875, 0, 
353, 1052895377, 0.5277969837188721, 0.4596366882324219, -0.5115229487419128, 0.49851399660110474, 8.540030479431152, -1.9124836921691895, 1.0568674802780151, 2.0807347297668457, 17.924039840698242, 7.178225040435791, -0.92138671875, 0.2392578125, -0.15283203125, 0, 
354, 1052903710, 0.5280329585075378, 0.45893919467926025, -0.5108852386474609, 0.49955958127975464, 8.263604164123535, -1.986048936843872, 1.109784483909607, 4.972147464752197, 18.241504669189453, 6.970340251922607, -0.9208984375, 0.24609375, -0.15478515625, 0, 
355, 1052912043, 0.5287890434265137, 0.45820391178131104, -0.5105443596839905, 0.49978330731391907, 7.95244836807251, -3.1314752101898193, 2.152529239654541, -6.399704456329346, 14.711409568786621, -0.4317152202129364, -0.91455078125, 0.24462890625, -0.158203125, 0, 
356, 1052920376, 0.5307628512382507, 0.4567386507987976, -0.511412501335144, 0.49814191460609436, 8.094204902648926, -1.0548937320709229, 0.4519865810871124, -40.78147888183594, 7.833639621734619, -9.62270736694336, -0.91650390625, 0.2431640625, -0.158203125, 0, 
357, 1052928709, 0.531869649887085, 0.45589396357536316, -0.5110809803009033, 0.49807554483413696, 7.607038974761963, -0.26620545983314514, 0.51255202293396, -11.513077735900879, 16.034772872924805, -4.085151672363281, -0.91943359375, 0.244140625, -0.15771484375, 0, 
358, 1052937042, 0.5328217148780823, 0.4552457630634308, -0.510890781879425, 0.4978456497192383, 7.567874431610107, -0.9316505789756775, 1.2817314863204956, -11.221457481384277, 11.639341354370117, -4.721280574798584, -0.916015625, 0.2412109375, -0.16162109375, 0, 
359, 1052945375, 0.5337527394294739, 0.454574853181839, -0.5108718872070312, 0.4974807798862457, 7.595641613006592, -0.4055175185203552, 1.0391252040863037, -13.378277778625488, 9.450911521911621, -4.330868244171143, -0.9130859375, 0.2421875, -0.1591796875, 0, 
360, 1052953708, 0.5345446467399597, 0.45423755049705505, -0.5106362104415894, 0.49718067049980164, 7.255125999450684, -0.16295771300792694, 0.7612021565437317, -8.12131404876709, 8.282286643981934, -6.606180191040039, -0.91259765625, 0.240234375, -0.16259765625, 0, 
361, 1052962041, 0.5352461934089661, 0.4538435935974121, -0.51032555103302, 0.4971047639846802, 7.252181529998779, -0.38845565915107727, 0.8919389843940735, -5.886932373046875, 9.89283275604248, -4.407044887542725, -0.9140625, 0.2392578125, -0.16162109375, 0, 
362, 1052970374, 0.5357874631881714, 0.4536241292953491, -0.5102068185806274, 0.49684372544288635, 7.126955032348633, -0.5121555924415588, 0.8622065186500549, -6.2136430740356445, 5.0996413230896, -4.706552505493164, -0.91259765625, 0.23876953125, -0.1630859375, 0, 
363, 1052978707, 0.5360022187232971, 0.4536992311477661, -0.5101354122161865, 0.4966168999671936, 7.091366291046143, -0.5251516699790955, 0.6594958901405334, -2.089750289916992, 0.5672272443771362, -3.987893581390381, -0.91259765625, 0.23779296875, -0.1650390625, 0, 
364, 1052987040, 0.5360491871833801, 0.4539909064769745, -0.5102960467338562, 0.49613410234451294, 7.097821235656738, -0.6997848153114319, 0.7412658929824829, -2.826441526412964, -5.300827980041504, -4.807369709014893, -0.90966796875, 0.23828125, -0.16552734375, 0, 
365, 1052995373, 0.5358806848526001, 0.454478919506073, -0.5106891393661499, 0.49546438455581665, 7.091684818267822, -0.6068716645240784, 0.5287385582923889, -2.9326250553131104, -11.130127906799316, -4.635331153869629, -0.9091796875, 0.23828125, -0.16064453125, 0, 
366, 1053003706, 0.5354694128036499, 0.4550899863243103, -0.5111286044120789, 0.49489447474479675, 7.0767388343811035, -0.46042436361312866, 0.14959201216697693, -0.12104007601737976, -13.294852256774902, -2.8274917602539062, -0.9072265625, 0.23779296875, -0.1591796875, 0, 
367, 1053012039, 0.5350601673126221, 0.45570018887519836, -0.5113234519958496, 0.49457433819770813, 7.091365337371826, -0.4690234661102295, -0.12286222726106644, 3.2774696350097656, -10.004319190979004, -2.5186097621917725, -0.90869140625, 0.2392578125, -0.16064453125, 0, 
368, 1053020372, 0.5348076224327087, 0.456260085105896, -0.5111579298973083, 0.49450233578681946, 7.06613826751709, -0.41276484727859497, -0.2556309401988983, 6.121391773223877, -4.261837482452393, -3.6709423065185547, -0.91162109375, 0.236328125, -0.15869140625, 0, 
369, 1053028705, 0.5346923470497131, 0.45685866475105286, -0.5106366872787476, 0.4946129322052002, 7.0900559425354, -0.319481760263443, -0.3084952235221863, 9.247252464294434, 0.10893736034631729, -5.759400367736816, -0.908203125, 0.236328125, -0.15576171875, 0, 
370, 1053037038, 0.5346835851669312, 0.457613468170166, -0.5098280310630798, 0.4947587847709656, 7.24430513381958, -0.3497413396835327, -0.39498767256736755, 11.931472778320312, 2.22513484954834, -9.135357856750488, -0.91064453125, 0.234375, -0.15771484375, 0, 
371, 1053045371, 0.5347087383270264, 0.4586199223995209, -0.5088689923286438, 0.4947870373725891, 7.358147621154785, -0.4650692939758301, -0.4233916401863098, 13.764634132385254, 1.0199335813522339, -12.932415008544922, -0.908203125, 0.23291015625, -0.1572265625, 0, 
372, 1053053704, 0.5347372889518738, 0.45997175574302673, -0.5076947212219238, 0.49470752477645874, 7.5917649269104, -0.5003293752670288, -0.6411318778991699, 16.993133544921875, -0.3071020245552063, -17.53104591369629, -0.9111328125, 0.2275390625, -0.15625, 0, 
373, 1053062037, 0.5347358584403992, 0.46160954236984253, -0.5063096880912781, 0.49460309743881226, 7.727950572967529, -0.6985796093940735, -0.74565589427948, 20.544578552246094, -1.1643600463867188, -20.831857681274414, -0.908203125, 0.22802734375, -0.15869140625, 0, 
374, 1053070370, 0.5347758531570435, 0.46350300312042236, -0.5047358870506287, 0.4943973124027252, 7.8083624839782715, -0.8652454614639282, -0.793350100517273, 22.74258041381836, -1.776297688484192, -24.846420288085938, -0.90576171875, 0.22412109375, -0.158203125, 0, 
375, 1053078703, 0.5348663330078125, 0.46552494168281555, -0.5031789541244507, 0.4939866065979004, 7.862116813659668, -0.8844600915908813, -0.9190783500671387, 21.82563018798828, -3.8245294094085693, -27.470260620117188, -0.908203125, 0.21533203125, -0.16259765625, 0, 
376, 1053087036, 0.5349690914154053, 0.4677458703517914, -0.5015555620193481, 0.4934280216693878, 7.849264621734619, -0.8887134194374084, -0.9866273403167725, 22.64021873474121, -5.449678421020508, -30.456527709960938, -0.90673828125, 0.21337890625, -0.1591796875, 0, 
377, 1053095369, 0.5349472761154175, 0.47032681107521057, -0.4999622702598572, 0.4926146864891052, 7.812483310699463, -0.9441096782684326, -1.1183135509490967, 24.129085540771484, -10.710674285888672, -33.763343811035156, -0.9072265625, 0.2060546875, -0.158203125, 0, 
378, 1053103702, 0.5348392128944397, 0.4731156826019287, -0.49835893511772156, 0.49168506264686584, 7.801340103149414, -0.6986379027366638, -1.4611948728561401, 25.482646942138672, -13.290750503540039, -35.54305648803711, -0.908203125, 0.1982421875, -0.154296875, 0, 
379, 1053112035, 0.5345662236213684, 0.4758734107017517, -0.49676212668418884, 0.4909360408782959, 8.016780853271484, -0.6010589003562927, -1.629092812538147, 27.523681640625, -13.182902336120605, -32.83128356933594, -0.9091796875, 0.19580078125, -0.15478515625, 0, 
380, 1053120368, 0.53458172082901, 0.47798722982406616, -0.4953324794769287, 0.4903098940849304, 8.361916542053223, -0.9108555912971497, -1.3871623277664185, 20.609174728393555, -7.186338424682617, -28.395694732666016, -0.91015625, 0.19140625, -0.15673828125, 0, 
381, 1053128701, 0.5348374247550964, 0.47971194982528687, -0.49521738290786743, 0.4884594678878784, 11.628698348999023, -2.005561113357544, -0.8135901093482971, -1.0307435989379883, -20.740968704223633, -27.70989227294922, -0.91064453125, 0.18603515625, -0.15185546875, 0, 
382, 1053137034, 0.5363414287567139, 0.4797106385231018, -0.49533650279045105, 0.4866875112056732, 10.218822479248047, -1.0502386093139648, -1.3621063232421875, -23.000627517700195, -1.747045874595642, -22.232736587524414, -0.9091796875, 0.181640625, -0.146484375, 0, 
383, 1053145367, 0.5377771258354187, 0.4789494574069977, -0.49498072266578674, 0.48621463775634766, 9.742203712463379, -0.7901914119720459, -0.5708003044128418, -16.12566566467285, 14.84114933013916, -10.13667106628418, -0.908203125, 0.1787109375, -0.1533203125, 0, 
384, 1053153700, 0.5384830832481384, 0.47841039299964905, -0.494948148727417, 0.48599737882614136, 9.972195625305176, -0.7726083993911743, 0.19817101955413818, -10.097325325012207, 7.791057586669922, -2.769526958465576, -0.90673828125, 0.1826171875, -0.15380859375, 0, 
385, 1053162033, 0.5380266904830933, 0.4787648022174835, -0.49554508924484253, 0.4855453670024872, 10.255877494812012, -0.19462703168392181, 0.392270565032959, -1.6399130821228027, -12.407036781311035, 1.339522361755371, -0.9091796875, 0.1787109375, -0.15185546875, 0, 
386, 1053170366, 0.5367011427879333, 0.47977137565612793, -0.49702686071395874, 0.48450297117233276, 10.248167991638184, 0.3591846823692322, -0.06576468795537949, -1.0249673128128052, -33.00821304321289, 4.135575771331787, -0.90771484375, 0.18017578125, -0.1484375, 0, 
387, 1053178699, 0.5347747206687927, 0.4812302589416504, -0.4992070496082306, 0.4829423427581787, 10.269171714782715, 1.1105096340179443, -1.5457122325897217, -1.913323163986206, -48.80904006958008, 5.849355697631836, -0.90966796875, 0.17919921875, -0.14794921875, 0, 
388, 1053187032, 0.5323137640953064, 0.48317644000053406, -0.5010883808135986, 0.48176777362823486, 10.073567390441895, 1.6422467231750488, -3.2720043659210205, 9.838592529296875, -50.85680389404297, 6.896277904510498, -0.91015625, 0.1787109375, -0.13818359375, 0, 
389, 1053195365, 0.5301259756088257, 0.4850493371486664, -0.501856803894043, 0.48149821162223816, 10.07502555847168, 1.9822404384613037, -3.7315425872802734, 21.09754180908203, -34.4363899230957, 4.844030380249023, -0.91064453125, 0.1796875, -0.13330078125, 0, 
390, 1053203698, 0.5291955471038818, 0.4859194755554199, -0.5015884637832642, 0.4819240868091583, 11.022966384887695, 1.678916573524475, -2.7229440212249756, 17.065500259399414, -6.808239459991455, 1.56955087184906, -0.91455078125, 0.1806640625, -0.12890625, 0, 
391, 1053212031, 0.5296620726585388, 0.4849150776863098, -0.5010323524475098, 0.4830005168914795, 13.355518341064453, 2.6330411434173584, -0.6020079851150513, 0.48235470056533813, 21.576019287109375, 8.076005935668945, -0.908203125, 0.1787109375, -0.1298828125, 0, 
392, 1053220364, 0.5282260179519653, 0.4837729036808014, -0.5017540454864502, 0.48496541380882263, 17.805896759033203, 4.621697425842285, 1.611595869064331, 9.800005912780762, 6.120823383331299, 36.63563919067383, -0.908203125, 0.18017578125, -0.1357421875, 0, 
393, 1053228697, 0.5210471749305725, 0.48437371850013733, -0.5061157941818237, 0.4875923991203308, 19.431737899780273, 3.3981101512908936, 2.9287211894989014, 40.958805084228516, -67.28510284423828, 91.95281982421875, -0.90771484375, 0.1884765625, -0.13037109375, 0, 
394, 1053237030, 0.5116742253303528, 0.48785728216171265, -0.510715663433075, 0.48924607038497925, 16.63458824157715, -0.30648383498191833, 1.9414952993392944, 67.86046600341797, -109.95364379882812, 81.19799041748047, -0.9091796875, 0.19970703125, -0.11572265625, 0, 
395, 1053245363, 0.5033634901046753, 0.4928240478038788, -0.5151247978210449, 0.4882660210132599, 14.062505722045898, -1.154918909072876, -0.1682310253381729, 53.955013275146484, -128.92282104492188, 43.83747863769531, -0.9091796875, 0.20458984375, -0.10107421875, 0, 
396, 1053253696, 0.4984147548675537, 0.49516481161117554, -0.5186694264411926, 0.4872208833694458, 15.501453399658203, 0.17000095546245575, -1.4819896221160889, 18.337718963623047, -81.8128662109375, 33.54336166381836, -0.9140625, 0.2060546875, -0.09130859375, 0, 
397, 1053262029, 0.49895191192626953, 0.4919133186340332, -0.5203810930252075, 0.48813876509666443, 15.237764358520508, 0.494387149810791, -1.3549656867980957, -31.06451988220215, 20.59748077392578, 37.659271240234375, -0.91259765625, 0.21240234375, -0.087890625, 0, 
398, 1053270362, 0.5036848783493042, 0.48480603098869324, -0.5207817554473877, 0.48995769023895264, 12.295377731323242, -1.9089915752410889, -0.3117203414440155, -70.65503692626953, 91.7120361328125, 34.38925552368164, -0.9091796875, 0.21728515625, -0.095703125, 0, 
399, 1053278695, 0.5104008913040161, 0.47687387466430664, -0.5202144980430603, 0.49139273166656494, 10.919431686401367, -2.7974560260772705, 0.16833534836769104, -85.81890869140625, 115.50108337402344, 17.835765838623047, -0.90869140625, 0.22314453125, -0.109375, 0, 
400, 1053287028, 0.5173051953315735, 0.46903103590011597, -0.5183711051940918, 0.4936641752719879, 11.399537086486816, -2.5682501792907715, 1.408074140548706, -71.81636810302734, 130.8050994873047, 13.415939331054688, -0.9013671875, 0.22900390625, -0.12060546875, 0, 
401, 1053295361, 0.5235162973403931, 0.46174174547195435, -0.5155584216117859, 0.4969229996204376, 11.241021156311035, -2.9711754322052, 4.840389728546143, -49.792484283447266, 135.25054931640625, 14.958927154541016, -0.89599609375, 0.2294921875, -0.13623046875, 0, 
402, 1053303694, 0.524733304977417, 0.45946773886680603, -0.5154210925102234, 0.49788838624954224, 10.6182861328125, -2.212634563446045, 8.140385627746582, -16.511011123657227, 31.8649845123291, 13.991704940795898, -0.89013671875, 0.23291015625, -0.14599609375, 0, 
403, 1053312027, 0.5211613178253174, 0.46162328124046326, -0.5170941948890686, 0.497911661863327, 11.815306663513184, -0.8691754937171936, 4.154755115509033, 26.632858276367188, -51.540130615234375, 20.03911781311035, -0.89111328125, 0.2333984375, -0.14404296875, 0, 
404, 1053320360, 0.5170090198516846, 0.46381664276123047, -0.5182946920394897, 0.49895280599594116, 12.549796104431152, -0.10893076658248901, 1.3659021854400635, 41.06694412231445, -45.971458435058594, 28.020587921142578, -0.89306640625, 0.23583984375, -0.13720703125, 0, 
405, 1053328693, 0.513952910900116, 0.4640658497810364, -0.517849326133728, 0.5023295283317566, 12.499695777893066, -0.05817362666130066, 1.2862876653671265, 48.186981201171875, 1.6755224466323853, 40.48027420043945, -0.89306640625, 0.23828125, -0.1357421875, 0, 
406, 1053337026, 0.5129024982452393, 0.46250101923942566, -0.5175007581710815, 0.5051973462104797, 12.0447416305542, -0.41968363523483276, 2.5352272987365723, 18.279953002929688, 24.65639877319336, 36.54652404785156, -0.892578125, 0.2412109375, -0.13916015625, 0, 
407, 1053345359, 0.5121936798095703, 0.46086713671684265, -0.5175964832305908, 0.5073071718215942, 11.093949317932129, 0.030684413388371468, 2.315265655517578, 7.133163928985596, 19.513614654541016, 32.162681579589844, -0.892578125, 0.24169921875, -0.1416015625, 0, 
408, 1053353692, 0.5110791921615601, 0.45992788672447205, -0.5178617238998413, 0.5090098977088928, 11.114262580871582, 0.16463233530521393, 2.1235241889953613, 10.525793075561523, 8.100969314575195, 28.238279342651367, -0.89111328125, 0.25, -0.14501953125, 0, 
409, 1053362025, 0.5097594857215881, 0.4593645930290222, -0.5183801054954529, 0.5103124976158142, 10.890796661376953, -0.017984628677368164, 2.131931781768799, 9.834578514099121, -0.3964829742908478, 25.803422927856445, -0.8876953125, 0.251953125, -0.142578125, 0, 
410, 1053370358, 0.5084965825080872, 0.45933130383491516, -0.5187584161758423, 0.5112173557281494, 10.599944114685059, -0.05224936082959175, 1.9426029920578003, 11.347558975219727, -5.149846076965332, 17.9360294342041, -0.8857421875, 0.251953125, -0.146484375, 0, 
411, 1053378691, 0.5076513886451721, 0.4596457779407501, -0.5187199711799622, 0.5118132829666138, 10.461344718933105, -0.31127578020095825, 1.6787844896316528, 11.857970237731934, -3.7439558506011963, 7.7447590827941895, -0.89208984375, 0.255859375, -0.146484375, 0, 
412, 1053387024, 0.5075393915176392, 0.4598849415779114, -0.5180436372756958, 0.5123941898345947, 10.181358337402344, -0.40808427333831787, 1.6279006004333496, 11.090132713317871, 6.463125705718994, -1.0334832668304443, -0.8857421875, 0.251953125, -0.146484375, 0, 
413, 1053395357, 0.5083539485931396, 0.45982760190963745, -0.5169323086738586, 0.5127606391906738, 9.869162559509277, -0.19615960121154785, 1.5118626356124878, 4.690121650695801, 16.74300765991211, -9.679224967956543, -0.88720703125, 0.25244140625, -0.1484375, 0, 
414, 1053403690, 0.5093337893486023, 0.459933876991272, -0.5157538652420044, 0.5128794312477112, 9.331780433654785, 0.06916399300098419, 1.701141595840454, 3.5075759887695312, 15.755821228027344, -14.180866241455078, -0.88818359375, 0.24853515625, -0.1484375, 0, 
415, 1053412023, 0.5102968215942383, 0.4601667523384094, -0.5148183703422546, 0.5126531720161438, 8.886730194091797, 0.3965792953968048, 1.6585761308670044, 0.33284425735473633, 10.77187728881836, -15.823325157165527, -0.88818359375, 0.24658203125, -0.15283203125, 0, 
416, 1053420356, 0.5113436579704285, 0.46074187755584717, -0.5137288570404053, 0.5121862292289734, 8.775370597839355, 0.9310353398323059, 1.4884241819381714, 1.5936031341552734, 8.5961275100708, -21.51581382751465, -0.890625, 0.23974609375, -0.15380859375, 0, 
417, 1053428689, 0.512599527835846, 0.46129196882247925, -0.5126066207885742, 0.5115596055984497, 8.242073059082031, 0.9579019546508789, 1.4301674365997314, -0.8127914071083069, 9.380029678344727, -24.125988006591797, -0.89013671875, 0.2421875, -0.1552734375, 0, 
418, 1053437022, 0.5139487981796265, 0.46191760897636414, -0.5115991234779358, 0.5106490850448608, 8.052545547485352, 1.0493874549865723, 1.3934470415115356, -3.6758244037628174, 6.983174800872803, -26.60460090637207, -0.8857421875, 0.2373046875, -0.15478515625, 0, 
419, 1053445355, 0.515227198600769, 0.4627354145050049, -0.5107348561286926, 0.5094841718673706, 7.995913028717041, 1.2646949291229248, 1.211297631263733, -4.6670966148376465, 2.4226856231689453, -28.33218002319336, -0.88720703125, 0.234375, -0.154296875, 0, 
420, 1053453688, 0.5162413716316223, 0.46395736932754517, -0.5098515748977661, 0.5082297325134277, 8.026494026184082, 1.28497314453125, 1.136938214302063, -0.6130003333091736, -2.6177256107330322, -30.085552215576172, -0.88720703125, 0.228515625, -0.1572265625, 0, 
421, 1053462021, 0.5170239806175232, 0.4650838077068329, -0.5094494819641113, 0.5068056583404541, 7.802272796630859, 1.0028866529464722, 0.9437249898910522, -4.371916770935059, -8.154808044433594, -25.920286178588867, -0.89306640625, 0.2255859375, -0.158203125, 0, 
422, 1053470354, 0.5176075100898743, 0.46627065539360046, -0.5090457797050476, 0.5055234432220459, 7.8822479248046875, 0.8273841142654419, 0.7524369955062866, -1.660008430480957, -8.969752311706543, -23.967254638671875, -0.89208984375, 0.220703125, -0.154296875, 0, 
423, 1053478687, 0.518062949180603, 0.46749651432037354, -0.5085203051567078, 0.5044525861740112, 8.033554077148438, 0.8832597732543945, 0.793836772441864, 1.76145339012146, -7.996767520904541, -22.617172241210938, -0.89111328125, 0.21923828125, -0.15087890625, 0, 
424, 1053487020, 0.5186200141906738, 0.4682534337043762, -0.5079882144927979, 0.5037137269973755, 7.8202900886535645, 0.9509390592575073, 0.7432913780212402, 0.1359603852033615, -1.772979497909546, -17.725759506225586, -0.8916015625, 0.216796875, -0.1513671875, 0, 
425, 1053495353, 0.5191458463668823, 0.46860840916633606, -0.5075522661209106, 0.5032813549041748, 7.457202434539795, 1.0930944681167603, 0.5652428269386292, -1.0558571815490723, 2.0025463104248047, -11.891088485717773, -0.892578125, 0.2177734375, -0.154296875, 0, 
426, 1053503686, 0.519355833530426, 0.4688684344291687, -0.5069392323493958, 0.5034400820732117, 7.3768768310546875, 1.3711334466934204, 0.3440093398094177, 5.655738353729248, 5.605739116668701, -5.9674248695373535, -0.892578125, 0.21337890625, -0.150390625, 0, 
427, 1053512019, 0.5196427702903748, 0.4689534902572632, -0.5063374638557434, 0.5036704540252686, 7.180096626281738, 0.7784532904624939, 0.7070345878601074, 4.328254699707031, 7.657337188720703, -4.692732810974121, -0.8935546875, 0.21240234375, -0.1552734375, 0, 
428, 1053520352, 0.5201830267906189, 0.4686892032623291, -0.5062798261642456, 0.5034167766571045, 6.811042785644531, 0.6883938908576965, 0.42817720770835876, -6.939357757568359, 4.910082817077637, -3.9659037590026855, -0.89501953125, 0.2119140625, -0.154296875, 0, 
429, 1053528685, 0.5206259489059448, 0.4684092104434967, -0.5063593983650208, 0.5031393766403198, 6.8630218505859375, 0.7155188918113708, -0.0561135932803154, -7.540497303009033, 3.128048896789551, -2.466548204421997, -0.8935546875, 0.2080078125, -0.1552734375, 0, 
430, 1053537018, 0.5209363102912903, 0.4680982530117035, -0.5063915252685547, 0.503075122833252, 6.869376182556152, 0.43386876583099365, -0.21490420401096344, -5.096540927886963, 4.207688331604004, -0.11431632936000824, -0.89306640625, 0.2099609375, -0.15673828125, 0, 
431, 1053545351, 0.5210908055305481, 0.4678346514701843, -0.5063008666038513, 0.5032514929771423, 6.988201141357422, 0.1601131707429886, -0.223067969083786, -1.229124665260315, 5.147680282592773, 1.568270206451416, -0.89404296875, 0.21044921875, -0.15771484375, 0, 
432, 1053553684, 0.5211144685745239, 0.46759772300720215, -0.5061388611793518, 0.503609836101532, 7.05447244644165, -0.0021345417480915785, -0.2133319228887558, 1.5650168657302856, 5.810857772827148, 3.132812976837158, -0.89208984375, 0.2109375, -0.158203125, 0, 
433, 1053562017, 0.5208758115768433, 0.4673997759819031, -0.5060713291168213, 0.5041080117225647, 7.17399263381958, -0.022236209362745285, -0.2858451008796692, 3.8504855632781982, 3.860116481781006, 6.289856910705566, -0.89501953125, 0.208984375, -0.15966796875, 0, 
434, 1053570350, 0.5204148888587952, 0.4671269655227661, -0.5061043500900269, 0.504803478717804, 7.3302836418151855, 0.005109075456857681, -0.44673529267311096, 5.41879415512085, 3.456923246383667, 10.410368919372559, -0.89404296875, 0.2109375, -0.16015625, 0, 
435, 1053578683, 0.5198270082473755, 0.4666559398174286, -0.506252110004425, 0.5056957006454468, 7.544086933135986, -0.08987299352884293, -0.6234520077705383, 5.3878912925720215, 4.313630104064941, 14.81551742553711, -0.892578125, 0.21044921875, -0.15771484375, 0, 
436, 1053587016, 0.5191773772239685, 0.46614640951156616, -0.5063116550445557, 0.5067724585533142, 7.8309831619262695, -0.14265874028205872, -0.7560459971427917, 7.407883167266846, 6.047996997833252, 16.266490936279297, -0.89306640625, 0.2138671875, -0.158203125, 0, 
437, 1053595349, 0.5186494588851929, 0.46537071466445923, -0.5063086748123169, 0.5080273747444153, 8.033157348632812, -0.12824244797229767, -0.989881157875061, 6.402216911315918, 10.258440971374512, 18.142866134643555, -0.892578125, 0.21337890625, -0.1611328125, 0, 
438, 1053603682, 0.5182242393493652, 0.46447035670280457, -0.5062346458435059, 0.5093573331832886, 8.14997673034668, -0.10206735134124756, -1.130673885345459, 5.877509117126465, 12.912179946899414, 18.375646591186523, -0.888671875, 0.21435546875, -0.162109375, 0, 
439, 1053612015, 0.5179395079612732, 0.46357521414756775, -0.5061295032501221, 0.5105656385421753, 8.287237167358398, -0.018413152545690536, -1.0601119995117188, 4.386734485626221, 13.217477798461914, 16.28593635559082, -0.8916015625, 0.21630859375, -0.16552734375, 0, 
440, 1053620348, 0.5177381634712219, 0.46263179183006287, -0.506188690662384, 0.5115658640861511, 8.133740425109863, 0.02714112028479576, -1.0042754411697388, 0.9099846482276917, 11.723755836486816, 15.605031967163086, -0.88720703125, 0.220703125, -0.16455078125, 0, 
441, 1053628681, 0.5175158977508545, 0.46170711517333984, -0.5066784620285034, 0.5121411085128784, 7.876301288604736, 0.0893668606877327, -1.061631679534912, -4.811583995819092, 5.592164516448975, 15.334001541137695, -0.88916015625, 0.2216796875, -0.1630859375, 0, 
442, 1053637014, 0.5173075795173645, 0.46081170439720154, -0.507556676864624, 0.5122881531715393, 7.916908264160156, 0.12225430458784103, -1.2827092409133911, -10.408269882202148, 0.08830509334802628, 14.450209617614746, -0.88525390625, 0.22509765625, -0.16845703125, 0, 
443, 1053645347, 0.5170788168907166, 0.46012961864471436, -0.508543074131012, 0.5121539831161499, 8.055864334106445, 0.1594775915145874, -1.5093791484832764, -11.489575386047363, -4.194972515106201, 11.792501449584961, -0.8876953125, 0.2265625, -0.16650390625, 0, 
444, 1053653680, 0.5168532133102417, 0.4596560001373291, -0.5095804929733276, 0.511775553226471, 8.245152473449707, 0.3931792080402374, -1.423983097076416, -12.091072082519531, -7.461631774902344, 8.899141311645508, -0.8896484375, 0.2265625, -0.16455078125, 0, 
445, 1053662013, 0.516600489616394, 0.45920464396476746, -0.5107910633087158, 0.5112287998199463, 8.717612266540527, 0.602161705493927, -1.0301669836044312, -14.162500381469727, -10.193419456481934, 8.828756332397461, -0.88427734375, 0.2275390625, -0.1630859375, 0, 
446, 1053670346, 0.5162362456321716, 0.4590664207935333, -0.5119929313659668, 0.5105181336402893, 9.663501739501953, 0.9235345125198364, -0.5710203051567078, -12.322549819946289, -14.056198120117188, 6.199145317077637, -0.888671875, 0.22900390625, -0.16162109375, 0, 
447, 1053678679, 0.5160106420516968, 0.45894044637680054, -0.5130393505096436, 0.5098084211349487, 10.023012161254883, 0.86453777551651, -0.48157167434692383, -12.013051986694336, -12.149833679199219, 4.160738468170166, -0.8876953125, 0.23046875, -0.16015625, 0, 
448, 1053687012, 0.5154867172241211, 0.4593595862388611, -0.514046847820282, 0.5089454650878906, 11.096292495727539, 1.062605619430542, -0.3714439570903778, -7.071836948394775, -18.673065185546875, 1.0795762538909912, -0.890625, 0.228515625, -0.1591796875, 0, 
449, 1053695345, 0.5150105357170105, 0.4599551260471344, -0.5149180889129639, 0.5080080032348633, 11.484302520751953, 0.6289845705032349, -0.4963518977165222, -5.696223258972168, -19.16926383972168, -1.895889401435852, -0.888671875, 0.22900390625, -0.1572265625, 0, 
450, 1053703678, 0.5148566365242004, 0.4603424370288849, -0.5155802965164185, 0.5071409940719604, 11.4842529296875, -0.07203824818134308, -0.5963814854621887, -7.248908042907715, -13.411746978759766, -3.489377498626709, -0.89111328125, 0.22900390625, -0.15234375, 0, 
