PacketCounter,SampleTimeFine,Quat_W,Quat_X,Quat_Y,Quat_Z,Acc_X,Acc_Y,Acc_Z,Gyr_X,Gyr_Y,Gyr_Z,Mag_X,Mag_Y,Mag_Z,Status,
0, 3629225653, -0.14476804435253143, -0.7042304277420044, 0.13830041885375977, -0.6811938881874084, 0, 0, 0, 0, 0, 0, -1.13720703125, 0.4453125, 0.0234375, 0, 
1, 3629233986, -0.14476536214351654, -0.7042014002799988, 0.13833993673324585, -0.6812164783477783, 9.962860107421875, 0.014162889681756496, -0.31553325057029724, -0.4269509017467499, 0.8483179211616516, 0.48249533772468567, -1.13623046875, 0.4404296875, 0.02490234375, 0, 
2, 3629242319, -0.14476916193962097, -0.704179584980011, 0.13839296996593475, -0.6812276244163513, 9.946521759033203, 0.0026751633267849684, -0.2944038510322571, -0.6211580038070679, 0.6668921709060669, 0.6411498785018921, -1.13818359375, 0.44189453125, 0.0283203125, 0, 
3, 3629250652, -0.14477667212486267, -0.7041561603546143, 0.13846057653427124, -0.6812363862991333, 9.936128616333008, -0.00226029846817255, -0.284325510263443, -0.8046584129333496, 0.6266523003578186, 0.62091463804245, -1.1376953125, 0.44140625, 0.02880859375, 0, 
4, 3629258985, -0.1447923183441162, -0.7041376829147339, 0.1385168433189392, -0.6812407374382019, 9.93636417388916, -0.005765191279351711, -0.2803056240081787, -0.7734858393669128, 0.5857462286949158, 0.5416897535324097, -1.1337890625, 0.4404296875, 0.02490234375, 0, 
5, 3629267318, -0.14480823278427124, -0.704117476940155, 0.13857604563236237, -0.6812461018562317, 9.914219856262207, -0.01841823384165764, -0.323723167181015, -0.806938111782074, 0.5963762402534485, 0.44837722182273865, -1.13818359375, 0.4443359375, 0.0263671875, 0, 
6, 3629275651, -0.14482980966567993, -0.7041015625, 0.1386106163263321, -0.6812509298324585, 9.918161392211914, -0.011107825674116611, -0.3163485527038574, -0.6210554838180542, 0.6204536557197571, 0.27138280868530273, -1.13525390625, 0.44189453125, 0.02734375, 0, 
7, 3629283984, -0.14484666287899017, -0.7040790915489197, 0.1386345773935318, -0.6812658309936523, 9.933568000793457, -0.01927691139280796, -0.28325971961021423, -0.47212156653404236, 0.7835777997970581, 0.12147550284862518, -1.134765625, 0.4423828125, 0.0283203125, 0, 
8, 3629292317, -0.14486415684223175, -0.7040557861328125, 0.13864359259605408, -0.6812843084335327, 9.934375762939453, -0.036121856421232224, -0.2694762051105499, -0.3321525752544403, 0.8649670481681824, 0.10437800735235214, -1.13623046875, 0.443359375, 0.02490234375, 0, 
9, 3629300650, -0.14487016201019287, -0.7040243744850159, 0.13865262269973755, -0.6813136339187622, 9.924978256225586, -0.04054931178689003, -0.28205806016921997, -0.21760575473308563, 1.014349341392517, 0.12333255261182785, -1.138671875, 0.4404296875, 0.02490234375, 0, 
10, 3629308983, -0.14487452805042267, -0.7039986252784729, 0.13865447044372559, -0.6813389658927917, 9.937959671020508, -0.053038328886032104, -0.2671658396720886, -0.12768694758415222, 0.9439998269081116, 0.17690470814704895, -1.1396484375, 0.44189453125, 0.0244140625, 0, 
11, 3629317316, -0.14486269652843475, -0.7039728760719299, 0.13865771889686584, -0.6813672780990601, 9.947623252868652, -0.06535552442073822, -0.2929089069366455, 0.018237333744764328, 0.9288233518600464, 0.22261330485343933, -1.1357421875, 0.44482421875, 0.0263671875, 0, 
12, 3629325649, -0.14485536515712738, -0.7039505243301392, 0.13865432143211365, -0.6813926696777344, 9.951857566833496, -0.03858243674039841, -0.3064492642879486, 0.04003504291176796, 0.9000329375267029, 0.22758246958255768, -1.13525390625, 0.44189453125, 0.02490234375, 0, 
13, 3629333982, -0.14485114812850952, -0.703933596611023, 0.1386449635028839, -0.6814129948616028, 9.968530654907227, -0.06398933380842209, -0.3082374632358551, 0.06521383672952652, 0.8105624318122864, -0.003393885912373662, -1.13427734375, 0.44287109375, 0.0263671875, 0, 
14, 3629342315, -0.14484331011772156, -0.7039108276367188, 0.13863030076026917, -0.6814413070678711, 9.940263748168945, -0.06631410866975784, -0.299654096364975, 0.15616998076438904, 0.9534385800361633, 0.13150349259376526, -1.1337890625, 0.44140625, 0.02685546875, 0, 
15, 3629350648, -0.14483365416526794, -0.7038856148719788, 0.13861419260501862, -0.6814725995063782, 9.926020622253418, -0.05622837319970131, -0.3392449915409088, 0.18478108942508698, 0.9959582686424255, 0.018391020596027374, -1.13671875, 0.44580078125, 0.0234375, 0, 
16, 3629358981, -0.14481472969055176, -0.7038649916648865, 0.13859307765960693, -0.681502103805542, 9.914239883422852, -0.0518149808049202, -0.3073575794696808, 0.33116644620895386, 0.9368405938148499, 0.17153853178024292, -1.13525390625, 0.44384765625, 0.025390625, 0, 
17, 3629367314, -0.14478090405464172, -0.7038381695747375, 0.13857313990592957, -0.6815410256385803, 9.914870262145996, -0.033561140298843384, -0.2816002666950226, 0.46692192554473877, 1.0460599660873413, 0.22617371380329132, -1.13671875, 0.44580078125, 0.02392578125, 0, 
18, 3629375647, -0.14474979043006897, -0.7038018703460693, 0.13853086531162262, -0.6815937757492065, 9.915399551391602, -0.013826445676386356, -0.3222784996032715, 0.6592590808868408, 1.3286101818084717, 0.15609313547611237, -1.13427734375, 0.44287109375, 0.02197265625, 0, 
19, 3629383980, -0.14469410479068756, -0.7037658095359802, 0.13849472999572754, -0.6816500425338745, 9.939440727233887, 0.02218811959028244, -0.2575094997882843, 0.8449879288673401, 1.2917770147323608, 0.3276572823524475, -1.1376953125, 0.4423828125, 0.0234375, 0, 
20, 3629392313, -0.14463478326797485, -0.703728973865509, 0.1384665071964264, -0.6817064881324768, 9.953238487243652, 0.008397437632083893, -0.25386154651641846, 0.8065409064292908, 1.2876274585723877, 0.5640766024589539, -1.1376953125, 0.4423828125, 0.02294921875, 0, 
21, 3629400646, -0.14455720782279968, -0.7036842703819275, 0.1384344846010208, -0.6817757487297058, 9.944866180419922, 0.016617150977253914, -0.2715877890586853, 1.024633526802063, 1.4488563537597656, 0.6145495176315308, -1.13720703125, 0.43994140625, 0.0244140625, 0, 
22, 3629408979, -0.1444898396730423, -0.7036333680152893, 0.13840577006340027, -0.6818483471870422, 9.932477951049805, 0.005596487317234278, -0.30634281039237976, 0.893219530582428, 1.5610594749450684, 0.695144772529602, -1.134765625, 0.44189453125, 0.02294921875, 0, 
23, 3629417312, -0.14443135261535645, -0.7035773396492004, 0.13838164508342743, -0.6819233298301697, 9.928850173950195, 0.02015536092221737, -0.2732391357421875, 0.7545697689056396, 1.6308071613311768, 0.5443025231361389, -1.13671875, 0.44384765625, 0.02587890625, 0, 
24, 3629425645, -0.14439262449741364, -0.7035278677940369, 0.13836480677127838, -0.6819860339164734, 9.919862747192383, 0.013969502411782742, -0.30426764488220215, 0.4885147213935852, 1.482398271560669, 0.5191493630409241, -1.138671875, 0.44140625, 0.025390625, 0, 
25, 3629433978, -0.14435967803001404, -0.703480064868927, 0.13835927844047546, -0.6820434331893921, 9.912408828735352, 0.002811213955283165, -0.26958340406417847, 0.3161565065383911, 1.394029140472412, 0.4341101050376892, -1.13671875, 0.44287109375, 0.02392578125, 0, 
26, 3629442311, -0.1443471610546112, -0.7034415602684021, 0.13834810256958008, -0.6820880770683289, 9.915205001831055, -0.0017523078713566065, -0.23770321905612946, 0.16777324676513672, 1.2438784837722778, 0.27107545733451843, -1.138671875, 0.4443359375, 0.02490234375, 0, 
27, 3629450644, -0.1443198323249817, -0.7034136056900024, 0.13833707571029663, -0.6821247935295105, 9.941829681396484, -0.006916799116879702, -0.22438468039035797, 0.31485018134117126, 1.0313315391540527, 0.25096824765205383, -1.1337890625, 0.44189453125, 0.02490234375, 0, 
28, 3629458977, -0.14430008828639984, -0.7033862471580505, 0.13832329213619232, -0.6821600198745728, 9.935477256774902, -0.03459114953875542, -0.26192280650138855, 0.26672104001045227, 1.0390926599502563, 0.27307337522506714, -1.13720703125, 0.44384765625, 0.0263671875, 0, 
29, 3629467310, -0.1442626416683197, -0.703342854976654, 0.13830265402793884, -0.682217001914978, 9.951333999633789, -0.02820342220366001, -0.2986811697483063, 0.509262204170227, 1.3702077865600586, 0.3212793469429016, -1.13427734375, 0.43896484375, 0.0263671875, 0, 
30, 3629475643, -0.14422592520713806, -0.7032923102378845, 0.13826723396778107, -0.6822839975357056, 9.944923400878906, 0.010044803842902184, -0.250000536441803, 0.6495769619941711, 1.5752241611480713, 0.3310127556324005, -1.13427734375, 0.44384765625, 0.0263671875, 0, 
31, 3629483976, -0.14418968558311462, -0.7032333612442017, 0.13823217153549194, -0.6823595762252808, 9.933313369750977, 0.03997639939188957, -0.28486397862434387, 0.6381530165672302, 1.7277824878692627, 0.2369060516357422, -1.134765625, 0.44384765625, 0.025390625, 0, 
32, 3629492309, -0.1441648304462433, -0.7031645178794861, 0.13819026947021484, -0.682444155216217, 9.922381401062012, 0.052190277725458145, -0.2593466639518738, 0.5912021398544312, 1.9517278671264648, 0.22566139698028564, -1.1396484375, 0.43994140625, 0.0263671875, 0, 
33, 3629500642, -0.14414331316947937, -0.7031062841415405, 0.13816487789154053, -0.6825138926506042, 9.909313201904297, 0.060089804232120514, -0.24400509893894196, 0.3959960639476776, 1.675426959991455, 0.18116948008537292, -1.1376953125, 0.44091796875, 0.02294921875, 0, 
34, 3629508975, -0.14412720501422882, -0.7030702829360962, 0.13813062012195587, -0.6825613975524902, 9.888948440551758, 0.06579185277223587, -0.25821763277053833, 0.4296019375324249, 1.286551594734192, 0.08158133178949356, -1.13623046875, 0.44287109375, 0.025390625, 0, 
35, 3629517308, -0.14410343766212463, -0.7030473947525024, 0.13810792565345764, -0.6825945377349854, 9.891459465026855, 0.07981857657432556, -0.26169392466545105, 0.39310163259506226, 0.9777977466583252, 0.08770313113927841, -1.1357421875, 0.44287109375, 0.0205078125, 0, 
36, 3629525641, -0.14408883452415466, -0.7030208706855774, 0.13807222247123718, -0.6826322674751282, 9.883991241455078, 0.046150144189596176, -0.257159024477005, 0.42867982387542725, 1.1086864471435547, 0.016393110156059265, -1.134765625, 0.44189453125, 0.025390625, 0, 
37, 3629533974, -0.1440720409154892, -0.7030024528503418, 0.13803410530090332, -0.6826621890068054, 9.889256477355957, 0.05445459485054016, -0.28323110938072205, 0.47294119000434875, 0.949570894241333, -0.14112164080142975, -1.1357421875, 0.44384765625, 0.0234375, 0, 
38, 3629542307, -0.14406466484069824, -0.7029932737350464, 0.1379922479391098, -0.6826817393302917, 9.867862701416016, 0.015578431077301502, -0.2513866126537323, 0.41748636960983276, 0.7949889302253723, -0.1800808608531952, -1.1357421875, 0.44189453125, 0.0234375, 0, 
39, 3629550640, -0.1440548598766327, -0.7029945850372314, 0.13796192407608032, -0.6826885938644409, 9.868090629577637, 0.03738075867295265, -0.2652917802333832, 0.3272218406200409, 0.539948046207428, -0.21427583694458008, -1.13330078125, 0.44287109375, 0.02490234375, 0, 
40, 3629558973, -0.1440606266260147, -0.7029953002929688, 0.1379355639219284, -0.6826918721199036, 9.889485359191895, 0.052108459174633026, -0.25780990719795227, 0.13378314673900604, 0.5404090285301208, -0.20454245805740356, -1.1357421875, 0.4423828125, 0.02490234375, 0, 
41, 3629567306, -0.1440754234790802, -0.7029983997344971, 0.13791131973266602, -0.6826905012130737, 9.92072868347168, 0.05807393044233322, -0.29172155261039734, 0.019441204145550728, 0.4783714711666107, -0.4061265289783478, -1.13525390625, 0.4404296875, 0.02392578125, 0, 
42, 3629575639, -0.14409084618091583, -0.7030089497566223, 0.13788191974163055, -0.6826823949813843, 9.948781967163086, 0.054182786494493484, -0.28682899475097656, 0.0668659582734108, 0.3629921078681946, -0.3655407428741455, -1.13232421875, 0.44384765625, 0.02587890625, 0, 
43, 3629583972, -0.1440994143486023, -0.703014075756073, 0.13784752786159515, -0.6826823949813843, 9.961814880371094, 0.08480410277843475, -0.29161426424980164, 0.18086211383342743, 0.4793703854084015, -0.44680190086364746, -1.13671875, 0.4423828125, 0.025390625, 0, 
44, 3629592305, -0.14412067830562592, -0.7030187845230103, 0.13781610131263733, -0.6826794147491455, 9.942344665527344, 0.050563447177410126, -0.26669374108314514, 0.027612144127488136, 0.4821879267692566, -0.4191897511482239, -1.13330078125, 0.4404296875, 0.0234375, 0, 
45, 3629600638, -0.14413738250732422, -0.703032374382019, 0.13779349625110626, -0.6826663017272949, 9.910178184509277, 0.04406866431236267, -0.27011996507644653, -0.01530450489372015, 0.26574766635894775, -0.45046475529670715, -1.134765625, 0.443359375, 0.02734375, 0, 
46, 3629608971, -0.14416053891181946, -0.7030583620071411, 0.13776804506778717, -0.6826397180557251, 9.951421737670898, -0.003540657227858901, -0.29710763692855835, -0.04903845489025116, 0.04490175098180771, -0.4657564163208008, -1.13330078125, 0.443359375, 0.02294921875, 0, 
47, 3629617304, -0.14419589936733246, -0.7030742168426514, 0.13774943351745605, -0.6826196908950806, 9.97830867767334, -0.027366777881979942, -0.3119426369667053, -0.24232345819473267, 0.20496509969234467, -0.6055076718330383, -1.13623046875, 0.4423828125, 0.02490234375, 0, 
48, 3629625637, -0.1442452073097229, -0.7030612826347351, 0.13773074746131897, -0.6826264262199402, 10.006649017333984, -0.09385941177606583, -0.25979140400886536, -0.3802817463874817, 0.7685551047325134, -0.5068416595458984, -1.138671875, 0.44189453125, 0.02587890625, 0, 
49, 3629633970, -0.1442854106426239, -0.7030380368232727, 0.13769903779029846, -0.682648241519928, 9.974390029907227, -0.1308826208114624, -0.2254076451063156, -0.16468672454357147, 1.0132478475570679, -0.6199029088020325, -1.13525390625, 0.44287109375, 0.0244140625, 0, 
50, 3629642303, -0.14433714747428894, -0.7030255198478699, 0.13765506446361542, -0.6826590895652771, 9.971013069152832, -0.10122703015804291, -0.22402703762054443, -0.15715613961219788, 0.8589734435081482, -0.765724778175354, -1.13671875, 0.43994140625, 0.025390625, 0, 
51, 3629650636, -0.1443673074245453, -0.703006386756897, 0.13760465383529663, -0.6826826333999634, 9.977664947509766, -0.10990343242883682, -0.24765288829803467, 0.12089917808771133, 1.009021520614624, -0.7118579745292664, -1.13623046875, 0.4423828125, 0.02587890625, 0, 
52, 3629658969, -0.14439666271209717, -0.7029642462730408, 0.13755041360855103, -0.6827307939529419, 9.96124267578125, -0.07103488594293594, -0.2722086012363434, 0.16603146493434906, 1.476737380027771, -0.5243106484413147, -1.13330078125, 0.4384765625, 0.02685546875, 0, 
53, 3629667302, -0.14441043138504028, -0.70290207862854, 0.13750027120113373, -0.6828020811080933, 9.909402847290039, -0.058722008019685745, -0.2446744292974472, 0.28134676814079285, 1.8426882028579712, -0.37910348176956177, -1.1357421875, 0.4375, 0.0234375, 0, 
54, 3629675635, -0.14441749453544617, -0.7028550505638123, 0.13744811713695526, -0.682859480381012, 9.904619216918945, -0.00018577049195300788, -0.2188841551542282, 0.370637983083725, 1.5644662380218506, -0.2682194709777832, -1.13623046875, 0.44189453125, 0.0263671875, 0, 
55, 3629683968, -0.14440259337425232, -0.70281583070755, 0.13740919530391693, -0.6829107999801636, 9.876143455505371, 0.03646541014313698, -0.21208177506923676, 0.4605695903301239, 1.3581438064575195, -0.08448856323957443, -1.13623046875, 0.43994140625, 0.02490234375, 0, 
56, 3629692301, -0.14438141882419586, -0.7027796506881714, 0.13735371828079224, -0.682963490486145, 9.835623741149902, 0.0930727943778038, -0.2436329871416092, 0.6880239844322205, 1.3702846765518188, -0.06484243273735046, -1.13623046875, 0.44189453125, 0.025390625, 0, 
57, 3629700634, -0.14432498812675476, -0.7027339339256287, 0.13729064166545868, -0.6830352544784546, 9.83641529083252, 0.1186431497335434, -0.263411283493042, 1.1146289110183716, 1.5853161811828613, 0.1250486969947815, -1.1357421875, 0.43994140625, 0.0234375, 0, 
58, 3629708967, -0.14425791800022125, -0.7026841640472412, 0.13722802698612213, -0.6831132173538208, 9.866004943847656, 0.10501789301633835, -0.2688652575016022, 1.2173420190811157, 1.6700736284255981, 0.37225162982940674, -1.1318359375, 0.44189453125, 0.0244140625, 0, 
59, 3629717300, -0.14417923986911774, -0.7026068568229675, 0.13719668984413147, -0.6832156181335449, 9.901751518249512, 0.100645512342453, -0.2534596621990204, 1.0271053314208984, 2.0742921829223633, 0.761844277381897, -1.13525390625, 0.43994140625, 0.02587890625, 0, 
60, 3629725633, -0.1441127359867096, -0.7025151252746582, 0.13715864717960358, -0.6833315491676331, 9.942314147949219, 0.05809589475393295, -0.23007076978683472, 0.9716248512268066, 2.383174180984497, 0.7600512504577637, -1.1376953125, 0.43896484375, 0.0263671875, 0, 
61, 3629733966, -0.1440643072128296, -0.7024258375167847, 0.13709105551242828, -0.683447003364563, 9.9628267288208, 0.025078028440475464, -0.2271331548690796, 1.0761563777923584, 2.4407033920288086, 0.1754831075668335, -1.13134765625, 0.44091796875, 0.02294921875, 0, 
62, 3629742299, -0.14403162896633148, -0.70238196849823, 0.13701067864894867, -0.683515191078186, 9.956128120422363, -0.01614484377205372, -0.2029675990343094, 1.0458036661148071, 1.6210739612579346, -0.15180276334285736, -1.1328125, 0.44287109375, 0.0234375, 0, 
63, 3629750632, -0.14400161802768707, -0.7023935914039612, 0.13694049417972565, -0.6835237145423889, 9.963051795959473, -0.03482719138264656, -0.17030203342437744, 0.920703649520874, 0.49911895394325256, -0.4238002896308899, -1.13623046875, 0.44091796875, 0.02294921875, 0, 
64, 3629758965, -0.1440000683069229, -0.702433168888092, 0.13688640296459198, -0.6834942698478699, 9.960354804992676, -0.03653665632009506, -0.21650904417037964, 0.48039495944976807, -0.10019007325172424, -0.5420868396759033, -1.1396484375, 0.4453125, 0.025390625, 0, 
65, 3629767298, -0.14402279257774353, -0.7024473547935486, 0.136851966381073, -0.6834815740585327, 9.921708106994629, -0.062058065086603165, -0.26149362325668335, 0.04126453027129173, 0.29935359954833984, -0.621337354183197, -1.13525390625, 0.43994140625, 0.0205078125, 0, 
66, 3629775631, -0.14407695829868317, -0.7024384140968323, 0.13683679699897766, -0.6834824085235596, 9.921035766601562, -0.059676170349121094, -0.2511577606201172, -0.463271826505661, 0.6746789216995239, -0.5368871092796326, -1.1357421875, 0.44482421875, 0.01953125, 0, 
67, 3629783964, -0.14412787556648254, -0.7024074196815491, 0.1368371695280075, -0.6835034489631653, 9.917945861816406, -0.03239522501826286, -0.26623597741127014, -0.5840429663658142, 1.0340721607208252, -0.39844220876693726, -1.13671875, 0.44189453125, 0.02392578125, 0, 
68, 3629792297, -0.14419057965278625, -0.7023656368255615, 0.13684549927711487, -0.6835315823554993, 9.906880378723145, 0.010807945393025875, -0.2505497932434082, -0.7812085151672363, 1.2189429998397827, -0.275020033121109, -1.13671875, 0.439453125, 0.02294921875, 0, 
69, 3629800630, -0.14424610137939453, -0.70232093334198, 0.13686931133270264, -0.6835609674453735, 9.906330108642578, 0.04589979350566864, -0.25266700983047485, -0.8603821396827698, 1.2038049697875977, -0.17366451025009155, -1.13720703125, 0.44482421875, 0.02197265625, 0, 
70, 3629808963, -0.14430224895477295, -0.7022995948791504, 0.1368824541568756, -0.68356853723526, 9.888655662536621, 0.07509727776050568, -0.24904753267765045, -0.7606530785560608, 0.8051577806472778, -0.24588385224342346, -1.13818359375, 0.4404296875, 0.02001953125, 0, 
71, 3629817296, -0.1443542093038559, -0.7022836208343506, 0.13690689206123352, -0.6835690140724182, 9.878326416015625, 0.08662092685699463, -0.21741782128810883, -0.8284539580345154, 0.6482450366020203, -0.24378345906734467, -1.1376953125, 0.4423828125, 0.02099609375, 0, 
72, 3629825629, -0.14442646503448486, -0.7022885084152222, 0.13693867623806, -0.6835423707962036, 9.870923042297363, 0.06864583492279053, -0.23594367504119873, -1.103269100189209, 0.22222912311553955, -0.3354824483394623, -1.1357421875, 0.439453125, 0.0244140625, 0, 
73, 3629833962, -0.1444893777370453, -0.7023050785064697, 0.13698676228523254, -0.6835024356842041, 9.872261047363281, 0.036272067576646805, -0.27330297231674194, -1.1692001819610596, -0.07455023378133774, -0.2602790296077728, -1.13671875, 0.4384765625, 0.02197265625, 0, 
74, 3629842295, -0.14456117153167725, -0.70230633020401, 0.13704098761081696, -0.683475136756897, 9.863662719726562, 0.024598531424999237, -0.24341116845607758, -1.3189921379089355, 0.20360752940177917, -0.10874523222446442, -1.1357421875, 0.4404296875, 0.02392578125, 0, 
75, 3629850628, -0.14460740983486176, -0.7022994160652161, 0.13713327050209045, -0.6834538578987122, 9.833134651184082, 0.04775238037109375, -0.21006469428539276, -1.435024619102478, 0.20686054229736328, 0.404756098985672, -1.134765625, 0.439453125, 0.0224609375, 0, 
76, 3629858961, -0.14465299248695374, -0.7023038864135742, 0.13724647462368011, -0.6834168434143066, 9.837284088134766, 0.040178149938583374, -0.22829210758209229, -1.6306918859481812, -0.08597418665885925, 0.6818253993988037, -1.134765625, 0.4423828125, 0.02197265625, 0, 
77, 3629867294, -0.14467455446720123, -0.7022954225540161, 0.13738064467906952, -0.6833941340446472, 9.845321655273438, 0.03176090493798256, -0.22725434601306915, -1.5964199304580688, 0.07745744287967682, 1.0408600568771362, -1.13330078125, 0.44140625, 0.02294921875, 0, 
78, 3629875627, -0.14469952881336212, -0.7022783160209656, 0.13751396536827087, -0.6833796501159668, 9.851519584655762, 0.034206680953502655, -0.225075364112854, -1.6211634874343872, 0.2545030415058136, 1.1559704542160034, -1.134765625, 0.44091796875, 0.0234375, 0, 
79, 3629883960, -0.14471451938152313, -0.7022761106491089, 0.13766543567180634, -0.6833481192588806, 9.865684509277344, -0.009904311038553715, -0.19101306796073914, -1.7002090215682983, -0.11220315098762512, 1.2405742406845093, -1.13525390625, 0.439453125, 0.0224609375, 0, 
80, 3629892293, -0.1447165310382843, -0.7022855877876282, 0.13781538605690002, -0.6833077669143677, 9.903581619262695, -0.07925456762313843, -0.20143510401248932, -1.5520049333572388, -0.3213946223258972, 1.4309136867523193, -1.1328125, 0.4443359375, 0.0234375, 0, 
81, 3629900626, -0.14469631016254425, -0.7023016810417175, 0.13797542452812195, -0.6832633018493652, 9.9489107131958, -0.1512228399515152, -0.21565169095993042, -1.4282625913619995, -0.4948798716068268, 1.5924113988876343, -1.1357421875, 0.4404296875, 0.02392578125, 0, 
82, 3629908959, -0.14467859268188477, -0.7023081183433533, 0.13812634348869324, -0.6832300424575806, 9.957281112670898, -0.20782671868801117, -0.20155231654644012, -1.3632537126541138, -0.2635064721107483, 1.6455097198486328, -1.13720703125, 0.4423828125, 0.025390625, 0, 
83, 3629917292, -0.14464199542999268, -0.702300488948822, 0.13826380670070648, -0.6832178235054016, 9.999346733093262, -0.20667776465415955, -0.19317667186260223, -1.0435365438461304, 0.05496814474463463, 1.638670563697815, -1.13671875, 0.4462890625, 0.025390625, 0, 
84, 3629925625, -0.14459776878356934, -0.7022722363471985, 0.1383882462978363, -0.683230996131897, 9.996244430541992, -0.20333261787891388, -0.20491011440753937, -0.8402365446090698, 0.5127456784248352, 1.7968130111694336, -1.13525390625, 0.44287109375, 0.025390625, 0, 
85, 3629933958, -0.14453157782554626, -0.7022238373756409, 0.13848716020584106, -0.6832746863365173, 10.000894546508789, -0.17244210839271545, -0.1937033236026764, -0.37006163597106934, 0.9973927140235901, 1.7324186563491821, -1.13525390625, 0.4423828125, 0.02490234375, 0, 
86, 3629942291, -0.14445185661315918, -0.7021691799163818, 0.1385432630777359, -0.6833363175392151, 10.008796691894531, -0.13171659409999847, -0.1750791072845459, 0.18549828231334686, 1.2967718839645386, 1.6161301136016846, -1.13330078125, 0.44287109375, 0.02587890625, 0, 
87, 3629950624, -0.14433050155639648, -0.7021181583404541, 0.13858702778816223, -0.6834054589271545, 9.963693618774414, -0.08732753247022629, -0.17972853779792786, 0.7221676707267761, 1.2737445831298828, 1.7741442918777466, -1.1337890625, 0.44140625, 0.0244140625, 0, 
88, 3629958957, -0.14417922496795654, -0.702078104019165, 0.13859805464744568, -0.6834762692451477, 9.975042343139648, -0.02174520306289196, -0.15952737629413605, 1.3477442264556885, 1.2015894651412964, 1.844199299812317, -1.13525390625, 0.44482421875, 0.025390625, 0, 
89, 3629967290, -0.14402377605438232, -0.7020496129989624, 0.13859355449676514, -0.6835392117500305, 9.95192813873291, -0.024227900430560112, -0.2221314013004303, 1.538672685623169, 1.0314851999282837, 1.5717151165008545, -1.13818359375, 0.44287109375, 0.02197265625, 0, 
90, 3629975623, -0.14387458562850952, -0.7020508646965027, 0.1385638564825058, -0.6835753917694092, 9.92499828338623, -0.01699942909181118, -0.19303295016288757, 1.7254773378372192, 0.5633081793785095, 1.2847843170166016, -1.13037109375, 0.44384765625, 0.02490234375, 0, 
91, 3629983956, -0.1437232941389084, -0.7020621299743652, 0.1385248750448227, -0.6836035847663879, 9.917281150817871, -0.0019185412675142288, -0.21739675104618073, 1.834773302078247, 0.3994283676147461, 1.0561261177062988, -1.1337890625, 0.44384765625, 0.0205078125, 0, 
92, 3629992289, -0.14359734952449799, -0.7020793557167053, 0.13846051692962646, -0.6836254596710205, 9.905635833740234, -0.0008445156854577363, -0.1678217053413391, 1.8294713497161865, 0.38787636160850525, 0.6722968220710754, -1.1337890625, 0.4423828125, 0.02490234375, 0, 
93, 3630000622, -0.14347520470619202, -0.7021062970161438, 0.13842031359672546, -0.6836314797401428, 9.898201942443848, 0.024058299139142036, -0.16313761472702026, 1.5555012226104736, 0.0942859947681427, 0.6963229179382324, -1.13330078125, 0.4453125, 0.0224609375, 0, 
94, 3630008955, -0.14338789880275726, -0.7021313905715942, 0.13838320970535278, -0.6836315393447876, 9.88519287109375, 0.015164026990532875, -0.1979692280292511, 1.1740283966064453, 0.12461325526237488, 0.5141032934188843, -1.130859375, 0.44091796875, 0.021484375, 0, 
95, 3630017288, -0.1433124542236328, -0.7021300196647644, 0.13835161924362183, -0.6836550831794739, 9.870450973510742, 0.019634144380688667, -0.209786057472229, 1.000389575958252, 0.6020369529724121, 0.429038405418396, -1.13232421875, 0.4423828125, 0.02490234375, 0, 
96, 3630025621, -0.14327046275138855, -0.702116847038269, 0.13830597698688507, -0.6836866736412048, 9.843134880065918, 0.027803100645542145, -0.18711836636066437, 0.8036977648735046, 0.8907350301742554, 0.14164671301841736, -1.1357421875, 0.4443359375, 0.025390625, 0, 
97, 3630033954, -0.1432293802499771, -0.7021157145500183, 0.13826072216033936, -0.683705747127533, 9.852319717407227, 0.028633184731006622, -0.18433591723442078, 0.7876889705657959, 0.6495257616043091, -0.03451517969369888, -1.13623046875, 0.443359375, 0.0234375, 0, 
98, 3630042287, -0.1431979537010193, -0.702117383480072, 0.13820292055606842, -0.6837222576141357, 9.864514350891113, 0.024069316685199738, -0.16964398324489594, 0.8148400187492371, 0.6496538519859314, -0.13453875482082367, -1.134765625, 0.43994140625, 0.0244140625, 0, 
99, 3630050620, -0.14315710961818695, -0.7021125555038452, 0.1381601095199585, -0.6837443113327026, 9.88348388671875, 0.0545976497232914, -0.20950676500797272, 0.7613062858581543, 0.7082080841064453, 0.00046105627552606165, -1.13427734375, 0.44384765625, 0.0234375, 0, 
100, 3630058953, -0.14313016831874847, -0.702106237411499, 0.13812017440795898, -0.6837645769119263, 9.887947082519531, 0.01019995380192995, -0.18190394341945648, 0.5956846475601196, 0.7351542115211487, 0.019492432475090027, -1.1337890625, 0.44580078125, 0.025390625, 0, 
101, 3630067286, -0.14309169352054596, -0.7021118998527527, 0.13808296620845795, -0.6837743520736694, 9.880786895751953, 0.007303052581846714, -0.2151503562927246, 0.6836951375007629, 0.4841090440750122, -0.013152909465134144, -1.134765625, 0.44140625, 0.02392578125, 0, 
102, 3630075619, -0.14307083189487457, -0.7021138668060303, 0.1380382925271988, -0.683785617351532, 9.907795906066895, 0.018554475158452988, -0.2460506409406662, 0.5806106925010681, 0.5906771421432495, -0.11667283624410629, -1.13330078125, 0.44482421875, 0.02392578125, 0, 
103, 3630083952, -0.14305222034454346, -0.7021054625511169, 0.13801175355911255, -0.6838034987449646, 9.925492286682129, 0.0165445264428854, -0.22430600225925446, 0.37898820638656616, 0.7111536264419556, -0.053239185363054276, -1.13330078125, 0.44384765625, 0.02685546875, 0, 
104, 3630092285, -0.14304427802562714, -0.7021127343177795, 0.13798564672470093, -0.6838029623031616, 9.929055213928223, 0.003118951339274645, -0.2284618616104126, 0.2697947323322296, 0.4136699140071869, -0.09314616024494171, -1.1357421875, 0.44677734375, 0.0205078125, 0, 
105, 3630100618, -0.14303137362003326, -0.7021048069000244, 0.13797709345817566, -0.6838155388832092, 9.96117877960205, 0.010156787000596523, -0.24081481993198395, 0.14374707639217377, 0.6323385834693909, 0.05617201700806618, -1.13330078125, 0.44140625, 0.0234375, 0, 
106, 3630108951, -0.14302125573158264, -0.7020840644836426, 0.13797533512115479, -0.6838393211364746, 9.930486679077148, -0.011745023541152477, -0.25579288601875305, 0.052842166274785995, 0.8614323139190674, 0.26374971866607666, -1.134765625, 0.4423828125, 0.01904296875, 0, 
107, 3630117284, -0.14302611351013184, -0.7020580172538757, 0.1379963457584381, -0.6838607788085938, 9.927180290222168, -0.04280976578593254, -0.20411352813243866, -0.32270094752311707, 0.8630972504615784, 0.22599439322948456, -1.13525390625, 0.44580078125, 0.025390625, 0, 
108, 3630125617, -0.14304699003696442, -0.7020443677902222, 0.138019397854805, -0.6838656663894653, 9.942480087280273, -0.03534935042262077, -0.2120746374130249, -0.5007967352867126, 0.6213757395744324, 0.16131846606731415, -1.1357421875, 0.44482421875, 0.02392578125, 0, 
109, 3630133950, -0.14307086169719696, -0.7020308971405029, 0.1380489021539688, -0.6838684678077698, 9.960240364074707, -0.043510742485523224, -0.18226158618927002, -0.5966067314147949, 0.5841710567474365, 0.06809543818235397, -1.1357421875, 0.443359375, 0.02001953125, 0, 
110, 3630142283, -0.14310041069984436, -0.7020233273506165, 0.13805897533893585, -0.6838681101799011, 9.95130729675293, -0.05614981800317764, -0.14970184862613678, -0.46081286668777466, 0.5564180016517639, -0.06614876538515091, -1.1298828125, 0.44189453125, 0.0224609375, 0, 
111, 3630150616, -0.1431325525045395, -0.702016294002533, 0.13806825876235962, -0.6838667988777161, 9.942130088806152, -0.039383552968502045, -0.14934420585632324, -0.4815603494644165, 0.5381549596786499, -0.22559736669063568, -1.13330078125, 0.4453125, 0.0234375, 0, 
112, 3630158949, -0.14316648244857788, -0.7020168304443359, 0.1380700170993805, -0.6838588118553162, 9.910377502441406, -0.03331128880381584, -0.1818893849849701, -0.42397961020469666, 0.4325731694698334, -0.2183997929096222, -1.130859375, 0.4423828125, 0.02197265625, 0, 
113, 3630167282, -0.14320552349090576, -0.7020263671875, 0.1380683332681656, -0.6838411092758179, 9.90544319152832, 0.0043131643906235695, -0.16008777916431427, -0.44239625334739685, 0.25767919421195984, -0.4602237641811371, -1.134765625, 0.44287109375, 0.0224609375, 0, 
114, 3630175615, -0.14323996007442474, -0.7020345330238342, 0.13806362450122833, -0.6838265061378479, 9.882225036621094, -0.007317358162254095, -0.17007315158843994, -0.3661426901817322, 0.3098810315132141, -0.31304436922073364, -1.1318359375, 0.44580078125, 0.01904296875, 0, 
115, 3630183948, -0.14325864613056183, -0.7020413875579834, 0.13807152211666107, -0.6838139295578003, 9.859020233154297, -0.013204650953412056, -0.15343531966209412, -0.3330747187137604, 0.27686429023742676, -0.16017861664295197, -1.134765625, 0.44580078125, 0.02392578125, 0, 
116, 3630192281, -0.1432807594537735, -0.7020339369773865, 0.13807539641857147, -0.683816134929657, 9.854650497436523, 0.007696459069848061, -0.1632278710603714, -0.32623568177223206, 0.577242374420166, -0.05308550223708153, -1.13330078125, 0.4453125, 0.02099609375, 0, 
117, 3630200614, -0.1432880461215973, -0.7020347118377686, 0.13807058334350586, -0.6838148236274719, 9.875435829162598, -0.014677745290100574, -0.19650284945964813, -0.09358160197734833, 0.447070837020874, -0.1407374143600464, -1.13330078125, 0.4423828125, 0.02197265625, 0, 
118, 3630208947, -0.14328107237815857, -0.7020272612571716, 0.13805663585662842, -0.683826744556427, 9.887460708618164, -0.00748902652412653, -0.19805507361888885, 0.14090389013290405, 0.6500380039215088, 0.06746789813041687, -1.1337890625, 0.443359375, 0.0205078125, 0, 
119, 3630217280, -0.14326068758964539, -0.7020066380500793, 0.13806676864624023, -0.683850109577179, 9.92112922668457, -0.003447670256718993, -0.19526545703411102, 0.03747362643480301, 0.8041844964027405, 0.3527592718601227, -1.13427734375, 0.4443359375, 0.0234375, 0, 
120, 3630225613, -0.14325517416000366, -0.7019725441932678, 0.1380770206451416, -0.68388432264328, 9.948138236999512, -0.034398023039102554, -0.21809732913970947, -0.11181893944740295, 1.0720325708389282, 0.3822668194770813, -1.1337890625, 0.44140625, 0.0234375, 0, 
121, 3630233946, -0.1432504951953888, -0.7019433975219727, 0.13809801638126373, -0.6839108467102051, 9.952329635620117, -0.01744578406214714, -0.1900438815355301, -0.22516191005706787, 0.9211390614509583, 0.33175554871559143, -1.1298828125, 0.4443359375, 0.02392578125, 0, 
122, 3630242279, -0.14325197041034698, -0.7019283175468445, 0.13812503218650818, -0.683920681476593, 9.95224380493164, -0.029984718188643456, -0.17098870873451233, -0.3457793593406677, 0.6378456354141235, 0.394510418176651, -1.1337890625, 0.4453125, 0.02294921875, 0, 
123, 3630250612, -0.14326462149620056, -0.701908528804779, 0.13816124200820923, -0.6839309930801392, 9.952737808227539, -0.04142211377620697, -0.16535942256450653, -0.5496430397033691, 0.6819790005683899, 0.2672589421272278, -1.13427734375, 0.44677734375, 0.021484375, 0, 
124, 3630258945, -0.14329299330711365, -0.7018850445747375, 0.1382128894329071, -0.68393874168396, 9.941200256347656, -0.044870197772979736, -0.16104647517204285, -0.8580897450447083, 0.7002933025360107, 0.3900536000728607, -1.12939453125, 0.4443359375, 0.01904296875, 0, 
125, 3630267278, -0.14330777525901794, -0.7018711566925049, 0.13826490938663483, -0.6839393377304077, 9.943260192871094, -0.029312605038285255, -0.1571982055902481, -0.7242552638053894, 0.503089189529419, 0.36935725808143616, -1.1357421875, 0.4443359375, 0.02294921875, 0, 
126, 3630275611, -0.143324613571167, -0.7018564939498901, 0.1383098065853119, -0.6839418411254883, 9.927580833435059, 0.008976818062365055, -0.20339824259281158, -0.6759981513023376, 0.557417094707489, 0.4068053364753723, -1.130859375, 0.44287109375, 0.02294921875, 0, 
127, 3630283944, -0.14333994686603546, -0.7018305659294128, 0.13836213946342468, -0.6839545965194702, 9.901294708251953, -0.013203770853579044, -0.212167426943779, -0.7331690192222595, 0.735256552696228, 0.41392597556114197, -1.13427734375, 0.4443359375, 0.0205078125, 0, 
128, 3630292277, -0.14336255192756653, -0.7018162608146667, 0.13840584456920624, -0.683955729007721, 9.893397331237793, 0.014448742382228374, -0.18131741881370544, -0.7218987345695496, 0.5543432235717773, 0.3374675512313843, -1.13134765625, 0.4423828125, 0.0205078125, 0, 
129, 3630300610, -0.14337578415870667, -0.701816976070404, 0.1384538859128952, -0.6839423179626465, 9.907975196838379, 0.017374254763126373, -0.12774977087974548, -0.6706703305244446, 0.23600955307483673, 0.28897979855537415, -1.13427734375, 0.44384765625, 0.02197265625, 0, 
130, 3630308943, -0.14339198172092438, -0.7018206715583801, 0.1385139524936676, -0.6839230060577393, 9.90191650390625, -0.01932690292596817, -0.1709383726119995, -0.8162616491317749, 0.14287619292736053, 0.4819062352180481, -1.13671875, 0.44287109375, 0.0234375, 0, 
131, 3630317276, -0.14341214299201965, -0.7018207311630249, 0.13856640458106995, -0.6839082837104797, 9.89492130279541, -0.03444809094071388, -0.20639528334140778, -0.7833729386329651, 0.2343190312385559, 0.26597821712493896, -1.1337890625, 0.4453125, 0.0244140625, 0, 
132, 3630325609, -0.1434353142976761, -0.7018222212791443, 0.1386050581932068, -0.6838939785957336, 9.887438774108887, -0.02946946583688259, -0.19791898131370544, -0.6776630282402039, 0.2677968442440033, 0.2237403392791748, -1.1328125, 0.44384765625, 0.02392578125, 0, 
133, 3630333942, -0.14345818758010864, -0.7018247842788696, 0.13865332305431366, -0.6838767528533936, 9.887138366699219, -0.048195648938417435, -0.18738284707069397, -0.7695925235748291, 0.20035456120967865, 0.19090288877487183, -1.13427734375, 0.44287109375, 0.01904296875, 0, 
134, 3630342275, -0.1434841752052307, -0.7018419504165649, 0.1386970579624176, -0.683844804763794, 9.89982795715332, -0.04900418967008591, -0.19895616173744202, -0.7564523220062256, -0.05354655534029007, 0.1806059628725052, -1.13134765625, 0.44580078125, 0.0224609375, 0, 
135, 3630350608, -0.14349086582660675, -0.7018603682518005, 0.13874945044517517, -0.6838138699531555, 9.944690704345703, -0.04281691834330559, -0.20648111402988434, -0.6491031050682068, -0.12132183462381363, 0.32517269253730774, -1.13427734375, 0.44580078125, 0.02197265625, 0, 
136, 3630358941, -0.14350421726703644, -0.7018735408782959, 0.13880223035812378, -0.6837868094444275, 9.926865577697754, -0.03255258873105049, -0.22142340242862701, -0.7163404822349548, -0.012845538556575775, 0.4046792984008789, -1.13623046875, 0.44580078125, 0.0205078125, 0, 
137, 3630367274, -0.14351969957351685, -0.7018945813179016, 0.13885554671287537, -0.6837510466575623, 9.953831672668457, -0.024956081062555313, -0.16947968304157257, -0.7458866238594055, -0.17655892670154572, 0.2368164211511612, -1.1318359375, 0.44287109375, 0.0234375, 0, 
138, 3630375607, -0.1435490846633911, -0.701908528804779, 0.1389072984457016, -0.6837201118469238, 9.96628475189209, -0.014463048428297043, -0.1880124807357788, -0.8677206039428711, -0.024064570665359497, 0.2352411299943924, -1.13427734375, 0.4443359375, 0.0234375, 0, 
139, 3630383940, -0.14357995986938477, -0.7019038796424866, 0.13894745707511902, -0.6837102770805359, 9.953960418701172, -0.028303800150752068, -0.18393535912036896, -0.7716159820556641, 0.3709709644317627, 0.06539314240217209, -1.13232421875, 0.44189453125, 0.02197265625, 0, 
140, 3630392273, -0.1436227411031723, -0.7018970251083374, 0.13897296786308289, -0.6837031841278076, 9.935348510742188, -0.019284063950181007, -0.16613908112049103, -0.7454127073287964, 0.47806409001350403, -0.05823396518826485, -1.13427734375, 0.44189453125, 0.02587890625, 0, 
141, 3630400606, -0.14365439116954803, -0.701897144317627, 0.13900001347064972, -0.6836909055709839, 9.905735969543457, -0.03871118649840355, -0.18070226907730103, -0.6502814292907715, 0.32927098870277405, -0.08205520361661911, -1.1318359375, 0.443359375, 0.02294921875, 0, 
142, 3630408939, -0.1436898559331894, -0.7019049525260925, 0.13901519775390625, -0.6836723685264587, 9.902860641479492, -0.04449746757745743, -0.17651809751987457, -0.5706467628479004, 0.23752081394195557, -0.13899566233158112, -1.13232421875, 0.4453125, 0.02490234375, 0, 
143, 3630417272, -0.14371877908706665, -0.7019080519676208, 0.13903988897800446, -0.6836580038070679, 9.906415939331055, -0.05770913511514664, -0.1641148328781128, -0.6022546291351318, 0.28009164333343506, -0.08971386402845383, -1.1337890625, 0.44287109375, 0.0224609375, 0, 
144, 3630425605, -0.14373569190502167, -0.7019217014312744, 0.13906292617321014, -0.6836357712745667, 9.917559623718262, -0.046486325562000275, -0.15910068154335022, -0.45986518263816833, 0.09605337679386139, 0.09336388111114502, -1.13134765625, 0.4423828125, 0.025390625, 0, 
145, 3630433938, -0.14375251531600952, -0.7019283771514893, 0.13909101486206055, -0.6836196780204773, 9.91882610321045, -0.0529310368001461, -0.18166790902614594, -0.5115033984184265, 0.19943243265151978, 0.047514405101537704, -1.13427734375, 0.44287109375, 0.0224609375, 0, 
146, 3630442271, -0.1437733769416809, -0.7019271850585938, 0.13911569118499756, -0.6836115121841431, 9.937638282775879, -0.06760814040899277, -0.18291950225830078, -0.5177277326583862, 0.3749411702156067, 0.12648306787014008, -1.13525390625, 0.44189453125, 0.025390625, 0, 
147, 3630450604, -0.14378289878368378, -0.7019282579421997, 0.13913089036941528, -0.6836053133010864, 9.906708717346191, -0.0633026584982872, -0.19109535217285156, -0.3119301497936249, 0.3595854341983795, 0.02111893519759178, -1.130859375, 0.44482421875, 0.02392578125, 0, 
148, 3630458937, -0.14378267526626587, -0.7019384503364563, 0.1391368806362152, -0.6835936307907104, 9.933682441711426, -0.06114250048995018, -0.18244756758213043, -0.1219109520316124, 0.23016953468322754, 0.1174156591296196, -1.13037109375, 0.443359375, 0.0224609375, 0, 
149, 3630467270, -0.143768310546875, -0.7019419074058533, 0.13914020359516144, -0.6835924386978149, 9.931588172912598, -0.047895513474941254, -0.22660212218761444, 0.04354419559240341, 0.3625694513320923, 0.1361396461725235, -1.13232421875, 0.44384765625, 0.0234375, 0, 
150, 3630475603, -0.1437557190656662, -0.7019308805465698, 0.13912197947502136, -0.6836100220680237, 9.92190170288086, -0.05618558079004288, -0.22390544414520264, 0.23956993222236633, 0.7365372776985168, 0.09833304584026337, -1.1337890625, 0.44140625, 0.02197265625, 0, 
151, 3630483936, -0.1437285840511322, -0.7019224762916565, 0.1391051709651947, -0.6836279034614563, 9.901686668395996, -0.029819859191775322, -0.19708219170570374, 0.3700488209724426, 0.6741665601730347, 0.1228458508849144, -1.13232421875, 0.44384765625, 0.0244140625, 0, 
152, 3630492269, -0.14370369911193848, -0.7019226551055908, 0.13909099996089935, -0.6836357712745667, 9.90561294555664, -0.042659107595682144, -0.16075992584228516, 0.3226113021373749, 0.5067520141601562, 0.2121114730834961, -1.1337890625, 0.4443359375, 0.02294921875, 0, 
153, 3630500602, -0.14366847276687622, -0.7019232511520386, 0.1390986442565918, -0.6836410164833069, 9.908238410949707, -0.06436105072498322, -0.2193702906370163, 0.21111251413822174, 0.40314242243766785, 0.39243564009666443, -1.13525390625, 0.44287109375, 0.0244140625, 0, 
154, 3630508935, -0.14364664256572723, -0.7019068598747253, 0.13911187648773193, -0.6836596727371216, 9.932344436645508, -0.06860291957855225, -0.1723906695842743, 0.02379562519490719, 0.7191452383995056, 0.5000923275947571, -1.13037109375, 0.4453125, 0.021484375, 0, 
155, 3630517268, -0.14360666275024414, -0.7018840312957764, 0.13914349675178528, -0.6836852431297302, 9.919611930847168, -0.06295932084321976, -0.16749095916748047, 0.023027198389172554, 0.7624845504760742, 0.7543904781341553, -1.1328125, 0.43994140625, 0.02294921875, 0, 
156, 3630525601, -0.14357857406139374, -0.7018661499023438, 0.1391724944114685, -0.6837035417556763, 9.914191246032715, -0.04265240207314491, -0.17264817655086517, -0.06678912043571472, 0.6861797571182251, 0.7139712572097778, -1.13232421875, 0.44482421875, 0.02685546875, 0, 
157, 3630533934, -0.14355771243572235, -0.7018563151359558, 0.13920867443084717, -0.6837106347084045, 9.90036392211914, -0.024755990132689476, -0.17208309471607208, -0.2124316543340683, 0.4905126094818115, 0.5561618804931641, -1.13330078125, 0.4443359375, 0.02392578125, 0, 
158, 3630542267, -0.14355191588401794, -0.7018567323684692, 0.1392366588115692, -0.683705747127533, 9.898432731628418, -0.02657996490597725, -0.1700230836868286, -0.2811802327632904, 0.3333180248737335, 0.4130551517009735, -1.13525390625, 0.44384765625, 0.02001953125, 0, 
159, 3630550600, -0.14353835582733154, -0.7018601894378662, 0.13924862444400787, -0.6837025880813599, 9.912458419799805, 0.00462064566090703, -0.17212605476379395, -0.04655386880040169, 0.32799026370048523, 0.2094988226890564, -1.13525390625, 0.443359375, 0.025390625, 0, 
160, 3630558933, -0.1435164213180542, -0.7018830180168152, 0.13922931253910065, -0.6836877465248108, 9.908110618591309, 0.0012016776017844677, -0.19998633861541748, 0.343435674905777, 0.09023895859718323, 0.04595194011926651, -1.1318359375, 0.4453125, 0.02294921875, 0, 
161, 3630567266, -0.1434709131717682, -0.7019043564796448, 0.1392105519771576, -0.6836791634559631, 9.909026145935059, -0.005915401037782431, -0.21128782629966736, 0.5730928778648376, 0.10793839395046234, 0.16861853003501892, -1.1328125, 0.44189453125, 0.02392578125, 0, 
162, 3630575599, -0.14343580603599548, -0.7019220590591431, 0.1391695886850357, -0.6836766600608826, 9.942001342773438, -0.024119386449456215, -0.17518742382526398, 0.6878446340560913, 0.27481508255004883, -0.0050331964157521725, -1.1328125, 0.443359375, 0.02490234375, 0, 
163, 3630583932, -0.14339745044708252, -0.7019338607788086, 0.1391369104385376, -0.6836793422698975, 9.920442581176758, -0.04193711653351784, -0.20191045105457306, 0.6389726996421814, 0.3469191789627075, 0.006967071443796158, -1.13037109375, 0.44091796875, 0.025390625, 0, 
164, 3630592265, -0.14337119460105896, -0.7019355893135071, 0.13910193741321564, -0.6836901903152466, 9.926193237304688, -0.03008485771715641, -0.1915459781885147, 0.5404347777366638, 0.5578524470329285, 0.02653634548187256, -1.13232421875, 0.44384765625, 0.0244140625, 0, 
165, 3630600598, -0.14334267377853394, -0.7019208669662476, 0.13908423483371735, -0.683714747428894, 9.927666664123535, -0.04204441234469414, -0.21497869491577148, 0.39363953471183777, 0.7966794967651367, 0.1524815410375595, -1.1328125, 0.4453125, 0.0234375, 0, 
166, 3630608931, -0.1433282494544983, -0.7018954157829285, 0.1390656679868698, -0.6837477087974548, 9.917009353637695, -0.03461260721087456, -0.20355559885501862, 0.25980520248413086, 1.0184988975524902, 0.1690283566713333, -1.1328125, 0.4453125, 0.02294921875, 0, 
167, 3630617264, -0.14330734312534332, -0.7018605470657349, 0.13905419409275055, -0.6837902665138245, 9.89808177947998, -0.032352108508348465, -0.20015794038772583, 0.254067599773407, 1.159991979598999, 0.2161072939634323, -1.134765625, 0.44677734375, 0.0224609375, 0, 
168, 3630625597, -0.14328321814537048, -0.7018349766731262, 0.13904541730880737, -0.6838234066963196, 9.923203468322754, -0.04027050733566284, -0.1856377273797989, 0.2625715136528015, 0.9842014312744141, 0.3561403751373291, -1.13134765625, 0.4443359375, 0.02490234375, 0, 
169, 3630633930, -0.1432606428861618, -0.7018021941184998, 0.1390378773212433, -0.6838632822036743, 9.916535377502441, -0.027967439964413643, -0.1988203525543213, 0.23344813287258148, 1.1051772832870483, 0.25990763306617737, -1.1328125, 0.443359375, 0.025390625, 0, 
170, 3630642263, -0.14325208961963654, -0.7017654180526733, 0.13901740312576294, -0.6839070320129395, 9.919283866882324, 0.0037051725666970015, -0.2281685322523117, 0.22041048109531403, 1.2434686422348022, 0.13893160223960876, -1.13525390625, 0.44189453125, 0.0244140625, 0, 
171, 3630650596, -0.14323677122592926, -0.7017458081245422, 0.13899631798267365, -0.6839346289634705, 9.912224769592285, -0.0019529095152392983, -0.17901422083377838, 0.2943843901157379, 0.902030885219574, 0.011910618282854557, -1.13330078125, 0.44482421875, 0.021484375, 0, 
172, 3630658929, -0.14322322607040405, -0.701748251914978, 0.13896243274211884, -0.6839419007301331, 9.947896003723145, 0.008783994242548943, -0.23689503967761993, 0.4018617272377014, 0.5394870042800903, -0.09096895158290863, -1.13232421875, 0.4462890625, 0.0244140625, 0, 
173, 3630667262, -0.14320802688598633, -0.7017353177070618, 0.13892902433872223, -0.6839650869369507, 9.924849510192871, 0.005929946433752775, -0.23437723517417908, 0.4175375998020172, 0.8220632076263428, -0.12926222383975983, -1.130859375, 0.4443359375, 0.0244140625, 0, 
174, 3630675595, -0.14319151639938354, -0.7017286419868469, 0.13888108730316162, -0.68398517370224, 9.935062408447266, -0.023039307445287704, -0.19389212131500244, 0.5693788528442383, 0.7711166143417358, -0.15620841085910797, -1.1337890625, 0.4453125, 0.0224609375, 0, 
175, 3630683928, -0.1431744545698166, -0.7017216086387634, 0.13884958624839783, -0.684002161026001, 9.924483299255371, -0.0210651233792305, -0.20909905433654785, 0.4147968888282776, 0.698679506778717, -0.11765898764133453, -1.1328125, 0.443359375, 0.0224609375, 0, 
176, 3630692261, -0.14316287636756897, -0.7017077803611755, 0.13881725072860718, -0.6840254068374634, 9.922037124633789, -0.01998504251241684, -0.19859153032302856, 0.36712881922721863, 0.8480873107910156, -0.031031643971800804, -1.1318359375, 0.4462890625, 0.02392578125, 0, 
177, 3630700594, -0.14314621686935425, -0.7016730308532715, 0.13879473507404327, -0.6840690970420837, 9.914441108703613, -0.032545436173677444, -0.1808381825685501, 0.3218172490596771, 1.2010769844055176, 0.07102827727794647, -1.1318359375, 0.4423828125, 0.02099609375, 0, 
178, 3630708927, -0.14313861727714539, -0.7016390562057495, 0.13878393173217773, -0.6841077208518982, 9.90298080444336, -0.018153827637434006, -0.2265447974205017, 0.11575072258710861, 1.1507450342178345, 0.2077314555644989, -1.13330078125, 0.4453125, 0.02294921875, 0, 
179, 3630717260, -0.14312686026096344, -0.7016052007675171, 0.13878366351127625, -0.684144914150238, 9.915206909179688, -0.0347413569688797, -0.2123822122812271, 0.053405676037073135, 1.0945475101470947, 0.22663475573062897, -1.1328125, 0.4443359375, 0.02294921875, 0, 
180, 3630725593, -0.14312240481376648, -0.7015732526779175, 0.13879826664924622, -0.6841755509376526, 9.924333572387695, -0.010507525876164436, -0.21609453856945038, -0.16473795473575592, 1.0097386837005615, 0.4022459387779236, -1.1357421875, 0.443359375, 0.02001953125, 0, 
181, 3630733926, -0.14310309290885925, -0.7015215754508972, 0.1388344168663025, -0.6842253804206848, 9.932937622070312, -0.01994938775897026, -0.19672466814517975, -0.22908088564872742, 1.2993332147598267, 0.7076700329780579, -1.13232421875, 0.44482421875, 0.021484375, 0, 
182, 3630742259, -0.14307723939418793, -0.7014768719673157, 0.13886591792106628, -0.6842702627182007, 9.954704284667969, -0.018211137503385544, -0.25051403045654297, -0.11507194489240646, 1.194033145904541, 0.8203726410865784, -1.130859375, 0.44384765625, 0.02197265625, 0, 
183, 3630750592, -0.1430356651544571, -0.7013908624649048, 0.13892079889774323, -0.6843559741973877, 9.952853202819824, 0.005308608524501324, -0.24037599563598633, -0.18809813261032104, 1.8876667022705078, 1.2325825691223145, -1.134765625, 0.443359375, 0.02001953125, 0, 
184, 3630758925, -0.14301232993602753, -0.7012730836868286, 0.13895034790039062, -0.6844756007194519, 9.933040618896484, -0.004204676020890474, -0.22561772167682648, -0.12260253727436066, 2.610551595687866, 1.0635799169540405, -1.13330078125, 0.44287109375, 0.021484375, 0, 
185, 3630767258, -0.14298082888126373, -0.7011712789535522, 0.1389925479888916, -0.6845779418945312, 9.946674346923828, -0.007600683253258467, -0.21835918724536896, -0.16613395512104034, 2.242001533508301, 1.0799858570098877, -1.134765625, 0.44482421875, 0.02294921875, 0, 
186, 3630775591, -0.14294682443141937, -0.7010753154754639, 0.13906416296958923, -0.6846687197685242, 9.946468353271484, -0.03658140450716019, -0.21910767257213593, -0.4265666902065277, 2.0251383781433105, 1.472562551498413, -1.13427734375, 0.4443359375, 0.021484375, 0, 
187, 3630783924, -0.14291858673095703, -0.700972855091095, 0.13915622234344482, -0.6847608089447021, 9.931681632995605, -0.054481640458106995, -0.23239324986934662, -0.687063455581665, 2.0560803413391113, 1.509395718574524, -1.13623046875, 0.44580078125, 0.02099609375, 0, 
188, 3630792257, -0.14290466904640198, -0.70085608959198, 0.1392291784286499, -0.6848684549331665, 9.927759170532227, -0.04654255136847496, -0.2003449946641922, -0.6418542861938477, 2.418342351913452, 1.3694394826889038, -1.1318359375, 0.44482421875, 0.0205078125, 0, 
189, 3630800590, -0.14287641644477844, -0.7007350325584412, 0.139308899641037, -0.6849820613861084, 9.923258781433105, -0.06438930332660675, -0.1891055405139923, -0.5656006932258606, 2.464627504348755, 1.4691812992095947, -1.1328125, 0.447265625, 0.0185546875, 0, 
190, 3630808923, -0.14285793900489807, -0.7006291747093201, 0.139387845993042, -0.6850782632827759, 9.924757957458496, -0.08967503160238266, -0.20271028578281403, -0.6551481485366821, 2.1856882572174072, 1.4262006282806396, -1.13427734375, 0.44775390625, 0.02099609375, 0, 
191, 3630817256, -0.1428261250257492, -0.7005347013473511, 0.13945169746875763, -0.6851682662963867, 9.918618202209473, -0.15752814710140228, -0.20136642456054688, -0.3751332759857178, 2.009129524230957, 1.2531765699386597, -1.13330078125, 0.44921875, 0.01904296875, 0, 
192, 3630825589, -0.14280235767364502, -0.7004488706588745, 0.13946691155433655, -0.6852578520774841, 9.92048168182373, -0.1850719451904297, -0.21286219358444214, 0.022975971922278404, 2.0491645336151123, 0.8103063702583313, -1.1318359375, 0.4462890625, 0.01806640625, 0, 
193, 3630833922, -0.14277420938014984, -0.7003549337387085, 0.13944531977176666, -0.6853641271591187, 9.947007179260254, -0.22601979970932007, -0.20970256626605988, 0.4267844259738922, 2.336530923843384, 0.42622092366218567, -1.13232421875, 0.4462890625, 0.01611328125, 0, 
194, 3630842255, -0.14274200797080994, -0.7002506256103516, 0.13938917219638824, -0.6854888796806335, 9.946721076965332, -0.22377021610736847, -0.17512603104114532, 0.8075400590896606, 2.685652494430542, 0.30834418535232544, -1.12939453125, 0.447265625, 0.01953125, 0, 
195, 3630850588, -0.1426919549703598, -0.7001475691795349, 0.139302596449852, -0.6856221556663513, 9.924419403076172, -0.22647146880626678, -0.21437647938728333, 1.2876274585723877, 2.767310619354248, 0.07661217451095581, -1.13037109375, 0.447265625, 0.017578125, 0, 
196, 3630858921, -0.1426258087158203, -0.7000406384468079, 0.13922163844108582, -0.6857614517211914, 9.928020477294922, -0.19883012771606445, -0.19637390971183777, 1.3902894258499146, 2.8339076042175293, 0.42094433307647705, -1.13134765625, 0.4501953125, 0.01708984375, 0, 
197, 3630867254, -0.14253968000411987, -0.6999229788780212, 0.13917574286460876, -0.6859087347984314, 9.92108154296875, -0.14028620719909668, -0.18440641462802887, 1.2459789514541626, 2.892590284347534, 0.865018367767334, -1.13525390625, 0.44970703125, 0.01611328125, 0, 
198, 3630875587, -0.14246240258216858, -0.6997841596603394, 0.1391695737838745, -0.6860677599906921, 9.947126388549805, -0.10972915589809418, -0.20022296905517578, 0.7677097916603088, 3.1542136669158936, 1.3456950187683105, -1.13427734375, 0.4462890625, 0.01611328125, 0, 
199, 3630883920, -0.1423853486776352, -0.6996300220489502, 0.13918855786323547, -0.6862369179725647, 9.959087371826172, -0.09367422014474869, -0.2120084911584854, 0.5175099968910217, 3.338789939880371, 1.5161066055297852, -1.13232421875, 0.44873046875, 0.01416015625, 0, 
200, 3630892253, -0.14232607185840607, -0.6994946599006653, 0.13919460773468018, -0.6863860487937927, 9.96730899810791, -0.0901733860373497, -0.16570061445236206, 0.4674341380596161, 3.0390520095825195, 1.266777753829956, -1.1328125, 0.447265625, 0.017578125, 0, 
201, 3630900586, -0.14225909113883972, -0.6993934512138367, 0.13916970789432526, -0.6865082383155823, 9.940215110778809, -0.10281205922365189, -0.165524423122406, 0.8478184342384338, 2.4923036098480225, 0.8059647083282471, -1.1337890625, 0.44970703125, 0.01611328125, 0, 
202, 3630908919, -0.14219368994235992, -0.6993091702461243, 0.13910572230815887, -0.6866205930709839, 9.962237358093262, -0.11536333709955215, -0.18105009198188782, 1.2171756029129028, 2.328730821609497, 0.48245692253112793, -1.138671875, 0.4482421875, 0.0146484375, 0, 
203, 3630917252, -0.14212405681610107, -0.6992332339286804, 0.13901782035827637, -0.6867300271987915, 9.944814682006836, -0.1757821887731552, -0.20660048723220825, 1.4948210716247559, 2.2467010021209717, 0.15032993257045746, -1.13525390625, 0.44921875, 0.01123046875, 0, 
204, 3630925585, -0.1420469582080841, -0.6991921663284302, 0.13888759911060333, -0.6868141889572144, 9.942838668823242, -0.2091236561536789, -0.19198130071163177, 1.984847068786621, 1.7557532787322998, -0.18151527643203735, -1.13671875, 0.44775390625, 0.01318359375, 0, 
205, 3630933918, -0.14195844531059265, -0.699133574962616, 0.13872218132019043, -0.6869255900382996, 9.924522399902344, -0.21509620547294617, -0.23551853001117706, 2.448439121246338, 2.2199344635009766, -0.44572609663009644, -1.1357421875, 0.4482421875, 0.0185546875, 0, 
206, 3630942251, -0.14187881350517273, -0.6990440487861633, 0.13853700459003448, -0.687070369720459, 9.90905475616455, -0.21983706951141357, -0.23342150449752808, 2.550537109375, 2.8976869583129883, -0.4764118790626526, -1.1328125, 0.4482421875, 0.01171875, 0, 
207, 3630950584, -0.14182192087173462, -0.6989548802375793, 0.1383843868970871, -0.6872035264968872, 9.899928092956543, -0.2015945166349411, -0.18963569402694702, 2.0045957565307617, 2.7519936561584473, -0.5204941034317017, -1.13671875, 0.44775390625, 0.009765625, 0, 
208, 3630958917, -0.14178280532360077, -0.6988682746887207, 0.1382530927658081, -0.6873260736465454, 9.889331817626953, -0.16589127480983734, -0.15417127311229706, 1.6151055097579956, 2.6300950050354004, -0.3893619775772095, -1.1328125, 0.45166015625, 0.0126953125, 0, 
209, 3630967250, -0.1417469084262848, -0.698784351348877, 0.13813945651054382, -0.6874417662620544, 9.862688064575195, -0.1595776379108429, -0.19598811864852905, 1.4107552766799927, 2.4975929260253906, -0.3892979621887207, -1.13232421875, 0.44921875, 0.01025390625, 0, 
210, 3630975583, -0.141706183552742, -0.6987051367759705, 0.13802313804626465, -0.687554121017456, 9.874015808105469, -0.14061222970485687, -0.23931512236595154, 1.4831410646438599, 2.4295613765716553, -0.26376256346702576, -1.13330078125, 0.4482421875, 0.01171875, 0, 
211, 3630983916, -0.14165256917476654, -0.6986234188079834, 0.13790516555309296, -0.6876718401908875, 9.89801025390625, -0.11400557309389114, -0.20466750860214233, 1.6308072805404663, 2.47261905670166, -0.2641212046146393, -1.1357421875, 0.44482421875, 0.01025390625, 0, 
212, 3630992249, -0.14160464704036713, -0.6985548734664917, 0.13776475191116333, -0.6877796053886414, 9.9102144241333, -0.12310905754566193, -0.1732262521982193, 1.7926636934280396, 2.3183443546295166, -0.45615115761756897, -1.1337890625, 0.44873046875, 0.0107421875, 0, 
213, 3631000582, -0.14154735207557678, -0.6984916925430298, 0.13761192560195923, -0.6878861784934998, 9.92678165435791, -0.15691980719566345, -0.18475264310836792, 2.008539915084839, 2.250696897506714, -0.620671272277832, -1.13427734375, 0.44921875, 0.0107421875, 0, 
214, 3631008915, -0.1414872109889984, -0.6984235644340515, 0.13745126128196716, -0.6879998445510864, 9.945698738098145, -0.20898443460464478, -0.18166592717170715, 2.1149415969848633, 2.3867855072021484, -0.5251814723014832, -1.13623046875, 0.44921875, 0.01025390625, 0, 
215, 3631017248, -0.14141544699668884, -0.698307991027832, 0.13730338215827942, -0.6881612539291382, 9.968948364257812, -0.2085331827402115, -0.18342354893684387, 2.097895383834839, 3.2354750633239746, -0.23119409382343292, -1.13623046875, 0.44921875, 0.00732421875, 0, 
216, 3631025581, -0.14133335649967194, -0.6981573700904846, 0.13717201352119446, -0.6883571743965149, 9.96593189239502, -0.18126598000526428, -0.14493997395038605, 2.041364908218384, 3.859130382537842, 0.2804630696773529, -1.13525390625, 0.447265625, 0.01025390625, 0, 
217, 3631033914, -0.14123022556304932, -0.697996199131012, 0.1370946168899536, -0.6885572671890259, 9.965670585632324, -0.13703684508800507, -0.1729816049337387, 1.718356728553772, 3.8411622047424316, 0.9033116102218628, -1.13720703125, 0.44921875, 0.00830078125, 0, 
218, 3631042247, -0.14112131297588348, -0.6978387236595154, 0.1370311677455902, -0.6887518763542175, 9.962966918945312, -0.16904781758785248, -0.19727003574371338, 1.641974925994873, 3.729637622833252, 1.1961334943771362, -1.13232421875, 0.44677734375, 0.00732421875, 0, 
219, 3631050580, -0.14099031686782837, -0.6976738572120667, 0.13698241114616394, -0.6889551281929016, 9.945476531982422, -0.17653478682041168, -0.24231840670108795, 1.7142328023910522, 3.8001794815063477, 1.4563487768173218, -1.13525390625, 0.44970703125, 0.00634765625, 0, 
220, 3631058913, -0.14086326956748962, -0.6974915266036987, 0.13694244623184204, -0.689173698425293, 9.96147346496582, -0.18346403539180756, -0.2713623642921448, 1.5891070365905762, 4.113953113555908, 1.686057209968567, -1.134765625, 0.4482421875, 0.009765625, 0, 
221, 3631067246, -0.14071694016456604, -0.6973205208778381, 0.1369110643863678, -0.6893829703330994, 9.921835899353027, -0.21569164097309113, -0.23358798027038574, 1.6999913454055786, 3.854353427886963, 1.790050983428955, -1.13623046875, 0.451171875, 0.0048828125, 0, 
222, 3631075579, -0.14058981835842133, -0.6971783638000488, 0.1368762105703354, -0.6895595788955688, 9.908574104309082, -0.27613213658332825, -0.2597736418247223, 1.5399020910263062, 3.3212954998016357, 1.5788359642028809, -1.1337890625, 0.4521484375, 0.001953125, 0, 
223, 3631083912, -0.1404695361852646, -0.6970208883285522, 0.13682153820991516, -0.6897540092468262, 9.910499572753906, -0.3119162917137146, -0.24278348684310913, 1.6677172183990479, 3.678178548812866, 1.2660093307495117, -1.13525390625, 0.451171875, 0.00732421875, 0, 
224, 3631092245, -0.14035746455192566, -0.6968628764152527, 0.13671891391277313, -0.6899568438529968, 9.913695335388184, -0.34178826212882996, -0.22088178992271423, 2.058769941329956, 3.8812742233276367, 0.8678102493286133, -1.1318359375, 0.44873046875, 0.00439453125, 0, 
225, 3631100578, -0.14024917781352997, -0.6967226266860962, 0.13661722838878632, -0.6901406049728394, 9.908469200134277, -0.36059653759002686, -0.1792292445898056, 2.008821725845337, 3.5264909267425537, 0.647963285446167, -1.130859375, 0.4521484375, 0.00439453125, 0, 
226, 3631108911, -0.14017146825790405, -0.6965849995613098, 0.13650749623775482, -0.6903170347213745, 9.926112174987793, -0.311008483171463, -0.2303120642900467, 1.7869514226913452, 3.5124030113220215, 0.3838549256324768, -1.1328125, 0.45068359375, 0.00146484375, 0, 
227, 3631117244, -0.1400945484638214, -0.6964529156684875, 0.1364092081785202, -0.6904853582382202, 9.90617847442627, -0.3335847556591034, -0.2034510374069214, 1.66692316532135, 3.3539021015167236, 0.3369808793067932, -1.134765625, 0.451171875, 0.001953125, 0, 
228, 3631125577, -0.14002010226249695, -0.6963253021240234, 0.13631731271743774, -0.6906473636627197, 9.912568092346191, -0.2997420132160187, -0.18143248558044434, 1.5773755311965942, 3.2532894611358643, 0.4773724377155304, -1.13330078125, 0.45068359375, 0.00341796875, 0, 
229, 3631133910, -0.13994523882865906, -0.6962043642997742, 0.13623182475566864, -0.6908011436462402, 9.905749320983887, -0.25483620166778564, -0.15954430401325226, 1.5181046724319458, 3.0878987312316895, 0.390335351228714, -1.1328125, 0.45166015625, 0.0029296875, 0, 
230, 3631142243, -0.13987140357494354, -0.6961098909378052, 0.136112242937088, -0.6909348964691162, 9.924094200134277, -0.26256465911865234, -0.16370658576488495, 1.8465557098388672, 2.720897674560547, 0.09070000052452087, -1.1337890625, 0.45361328125, 0.001953125, 0, 
231, 3631150576, -0.13978269696235657, -0.6959912180900574, 0.1359872967004776, -0.6910969614982605, 9.959686279296875, -0.2887020707130432, -0.18142889440059662, 2.04465651512146, 3.19734787940979, 0.1554015576839447, -1.13134765625, 0.45166015625, 0.00244140625, 0, 
232, 3631158909, -0.1397210657596588, -0.695853590965271, 0.13582248985767365, -0.6912803649902344, 9.975659370422363, -0.31897294521331787, -0.1941203624010086, 2.1685781478881836, 3.7167282104492188, -0.28279396891593933, -1.13427734375, 0.44970703125, -0.00048828125, 0, 
233, 3631167242, -0.1396627426147461, -0.6956722736358643, 0.1356540322303772, -0.6915076375007629, 9.99653434753418, -0.32600995898246765, -0.13422706723213196, 2.1697819232940674, 4.5551581382751465, -0.30866432189941406, -1.13427734375, 0.451171875, 0.00146484375, 0, 
234, 3631175575, -0.13962753117084503, -0.6954748034477234, 0.13549645245075226, -0.6917441487312317, 9.97077465057373, -0.32760509848594666, -0.06885779649019241, 1.8309566974639893, 4.82920503616333, -0.2501358389854431, -1.1337890625, 0.451171875, 0.001953125, 0, 
235, 3631183908, -0.13960230350494385, -0.6952754259109497, 0.13537101447582245, -0.6919742226600647, 9.966084480285645, -0.32163578271865845, -0.09802646934986115, 1.4176453351974487, 4.73463773727417, -0.17303697764873505, -1.13232421875, 0.45263671875, -0.00048828125, 0, 
236, 3631192241, -0.13956786692142487, -0.6950507164001465, 0.13525272905826569, -0.6922299265861511, 9.971731185913086, -0.2749841511249542, -0.1328151524066925, 1.4339743852615356, 5.198088645935059, 0.20528526604175568, -1.13232421875, 0.44921875, -0.00439453125, 0, 
237, 3631200574, -0.1395145058631897, -0.6947874426841736, 0.13517269492149353, -0.6925205588340759, 9.902217864990234, -0.2952902317047119, -0.14553101360797882, 1.2429178953170776, 5.781453609466553, 0.7637524008750916, -1.1337890625, 0.45263671875, -0.00341796875, 0, 
238, 3631208907, -0.13945168256759644, -0.6945272088050842, 0.13508906960487366, -0.6928106546401978, 9.916265487670898, -0.26379701495170593, -0.11646152287721634, 1.3705408573150635, 5.744094371795654, 0.9383774995803833, -1.13330078125, 0.44873046875, -0.001953125, 0, 
239, 3631217240, -0.1393527090549469, -0.6942541599273682, 0.13503652811050415, -0.6931143403053284, 9.913920402526855, -0.24641600251197815, -0.09911270439624786, 1.4244078397750854, 5.862996578216553, 1.5031715631484985, -1.140625, 0.451171875, -0.005859375, 0, 
240, 3631225573, -0.13923096656799316, -0.6939592957496643, 0.1349988877773285, -0.6934414505958557, 9.932210922241211, -0.2721204161643982, -0.032127536833286285, 1.4960249662399292, 6.230688095092773, 2.074394464492798, -1.1337890625, 0.451171875, -0.00439453125, 0, 
241, 3631233906, -0.13907480239868164, -0.6936680674552917, 0.13500362634658813, -0.693763017654419, 9.941462516784668, -0.26240861415863037, -0.02193676307797432, 1.4266360998153687, 5.991528034210205, 2.66339373588562, -1.13720703125, 0.45166015625, -0.00439453125, 0, 
242, 3631242239, -0.13889151811599731, -0.6933865547180176, 0.13501109182834625, -0.6940796375274658, 9.958431243896484, -0.2347785234451294, -0.05003989115357399, 1.6605194807052612, 5.803621768951416, 3.0479912757873535, -1.1357421875, 0.4521484375, -0.00732421875, 0, 
243, 3631250572, -0.1386660486459732, -0.6930602788925171, 0.1350172758102417, -0.6944495439529419, 9.970466613769531, -0.22128568589687347, -0.11835486441850662, 2.077596426010132, 6.653964519500732, 3.493807315826416, -1.13525390625, 0.453125, -0.009765625, 0, 
244, 3631258905, -0.13844041526317596, -0.6926860809326172, 0.13498900830745697, -0.6948732137680054, 9.957971572875977, -0.1708778291940689, -0.12014821171760559, 2.4277939796447754, 7.696026802062988, 3.486635208129883, -1.13427734375, 0.453125, -0.00927734375, 0, 
245, 3631267238, -0.1382206529378891, -0.6922735571861267, 0.13496515154838562, -0.6953326463699341, 9.980805397033691, -0.1481531411409378, -0.0470772385597229, 2.356151580810547, 8.400778770446777, 3.484919786453247, -1.1318359375, 0.45556640625, -0.01513671875, 0, 
246, 3631275571, -0.1380423903465271, -0.6918215155601501, 0.13493923842906952, -0.6958228349685669, 9.968688011169434, -0.17783544957637787, -0.07176598161458969, 1.9289822578430176, 9.15877914428711, 3.3277244567871094, -1.13232421875, 0.45703125, -0.013671875, 0, 
247, 3631283904, -0.13789401948451996, -0.6913719177246094, 0.1349276900291443, -0.6963009834289551, 9.962629318237305, -0.2136547565460205, -0.042917195707559586, 1.4775315523147583, 9.041670799255371, 3.022786855697632, -1.1318359375, 0.45654296875, -0.0146484375, 0, 
248, 3631292237, -0.13775955140590668, -0.6909180283546448, 0.13493363559246063, -0.6967767477035522, 9.965672492980957, -0.31435149908065796, -0.09905880689620972, 1.1779474020004272, 9.059370994567871, 3.1877427101135254, -1.130859375, 0.45849609375, -0.01611328125, 0, 
249, 3631300570, -0.13767404854297638, -0.6904150247573853, 0.13494165241718292, -0.6972906589508057, 10.021344184875488, -0.3591718375682831, -0.09770412743091583, 0.680877685546875, 9.972596168518066, 2.7729716300964355, -1.13232421875, 0.45263671875, -0.01513671875, 0, 
250, 3631308903, -0.13763944804668427, -0.6898984313011169, 0.13496194779872894, -0.6978046894073486, 10.111954689025879, -0.39396175742149353, -0.05914977192878723, 0.04308314993977547, 10.183684349060059, 2.555583953857422, -1.13232421875, 0.45458984375, -0.0185546875, 0, 
251, 3631317236, -0.1376577913761139, -0.6893430352210999, 0.1350632607936859, -0.6983301639556885, 10.141243934631348, -0.4426485300064087, -0.06391178071498871, -1.259977102279663, 10.599632263183594, 2.7810912132263184, -1.13232421875, 0.45654296875, -0.02197265625, 0, 
252, 3631325569, -0.13780300319194794, -0.6887362599372864, 0.13517192006111145, -0.6988789439201355, 10.071734428405762, -0.4800908863544464, -0.12542441487312317, -2.6155853271484375, 11.544748306274414, 1.9008326530456543, -1.1357421875, 0.4599609375, -0.021484375, 0, 
253, 3631333902, -0.13814495503902435, -0.6881338953971863, 0.13522861897945404, -0.6993938684463501, 9.913315773010254, -0.36771243810653687, -0.12368461489677429, -4.053721904754639, 11.638800621032715, -0.6841434240341187, -1.1328125, 0.45947265625, -0.02392578125, 0, 
254, 3631342235, -0.13865098357200623, -0.6876255869865417, 0.13507959246635437, -0.6998224258422852, 9.937030792236328, -0.27744385600090027, -0.0898430198431015, -3.5890283584594727, 10.61868953704834, -4.418878555297852, -1.13037109375, 0.45849609375, -0.02490234375, 0, 
255, 3631350568, -0.13909736275672913, -0.687080979347229, 0.13500259816646576, -0.7002829909324646, 9.688847541809082, -0.4477570950984955, 0.027874477207660675, -3.7140514850616455, 11.020090103149414, -3.163473606109619, -1.13232421875, 0.45751953125, -0.0263671875, 0, 
256, 3631358901, -0.13943855464458466, -0.6866956353187561, 0.13478124141693115, -0.7006356120109558, 9.78279972076416, -0.30575162172317505, 0.07698133587837219, -1.239933967590332, 8.550505638122559, -3.8883183002471924, -1.13427734375, 0.4599609375, -0.02783203125, 0, 
257, 3631367234, -0.13972307741641998, -0.6863954663276672, 0.13450470566749573, -0.7009263634681702, 9.751277923583984, -0.32503753900527954, 0.04429066926240921, -0.1226537674665451, 7.142170429229736, -4.269393444061279, -1.13525390625, 0.4560546875, -0.02783203125, 0, 
258, 3631375567, -0.14000174403190613, -0.6861279010772705, 0.13420172035694122, -0.7011907696723938, 9.825382232666016, -0.36520788073539734, 0.0057079182006418705, 0.19756262004375458, 6.623739719390869, -4.444211006164551, -1.13330078125, 0.45703125, -0.02734375, 0, 
259, 3631383900, -0.1402815729379654, -0.6858409643173218, 0.1339159905910492, -0.7014699578285217, 9.823103904724121, -0.3947485089302063, 0.0015312256291508675, 0.017571361735463142, 6.916918754577637, -4.357532024383545, -1.134765625, 0.455078125, -0.0283203125, 0, 
260, 3631392233, -0.14055222272872925, -0.6855148673057556, 0.13365568220615387, -0.7017841935157776, 9.788254737854004, -0.4069664180278778, 0.036923568695783615, -0.1583344042301178, 7.5612711906433105, -3.7602851390838623, -1.134765625, 0.45751953125, -0.03271484375, 0, 
261, 3631400566, -0.1407853364944458, -0.6851620078086853, 0.13343092799186707, -0.7021247148513794, 9.739084243774414, -0.4299009144306183, 0.0847502276301384, -0.1383552849292755, 7.924890995025635, -3.093905448913574, -1.1357421875, 0.4560546875, -0.03173828125, 0, 
262, 3631408899, -0.14101435244083405, -0.6848155856132507, 0.13319715857505798, -0.7024610042572021, 9.714714050292969, -0.3778466582298279, 0.10023464262485504, -0.020068751648068428, 7.837647914886475, -3.0277178287506104, -1.13720703125, 0.4560546875, -0.03564453125, 0, 
263, 3631417232, -0.14118823409080505, -0.6844885349273682, 0.13294246792793274, -0.7027930617332458, 9.701066970825195, -0.3394400477409363, 0.09250479936599731, 0.7313889861106873, 7.547132968902588, -2.8677573204040527, -1.1376953125, 0.4541015625, -0.0361328125, 0, 
264, 3631425565, -0.141353040933609, -0.6841656565666199, 0.13264665007591248, -0.7031301259994507, 9.746825218200684, -0.25114211440086365, 0.1271318644285202, 1.230994462966919, 7.618441581726074, -3.033864974975586, -1.13671875, 0.45361328125, -0.03857421875, 0, 
265, 3631433898, -0.1415683925151825, -0.6838334798812866, 0.13233181834220886, -0.7034690380096436, 9.735743522644043, -0.14496773481369019, 0.09779379516839981, 0.9237005710601807, 7.857986927032471, -3.8118722438812256, -1.13720703125, 0.4521484375, -0.03564453125, 0, 
266, 3631442231, -0.14183244109153748, -0.6834705471992493, 0.13197512924671173, -0.7038354277610779, 9.756059646606445, -0.11948511004447937, 0.037673793733119965, 0.8623159527778625, 8.58188247680664, -4.436283111572266, -1.13720703125, 0.453125, -0.03857421875, 0, 
267, 3631450564, -0.14206881821155548, -0.6831182241439819, 0.13162942230701447, -0.7041947841644287, 9.782334327697754, -0.08339352905750275, 0.049576982855796814, 1.0193315744400024, 8.33988094329834, -4.230550289154053, -1.1376953125, 0.453125, -0.0390625, 0, 
268, 3631458897, -0.14228041470050812, -0.6827652454376221, 0.13127835094928741, -0.7045597434043884, 9.795273780822754, -0.052805863320827484, 0.0918290838599205, 1.3159058094024658, 8.3667631149292, -3.89604115486145, -1.13818359375, 0.4501953125, -0.03662109375, 0, 
269, 3631467230, -0.14255854487419128, -0.682378888130188, 0.13090772926807404, -0.7049466967582703, 9.859647750854492, -0.06385987251996994, 0.07434263825416565, 0.8602797985076904, 9.05376148223877, -4.752990245819092, -1.1396484375, 0.4521484375, -0.0390625, 0, 
270, 3631475563, -0.14292098581790924, -0.6819363832473755, 0.1305016279220581, -0.7053766846656799, 9.849093437194824, -0.06335055083036423, 0.16524727642536163, 0.3754534423351288, 10.224997520446777, -5.585658073425293, -1.13671875, 0.4501953125, -0.04248046875, 0, 
271, 3631483896, -0.1432221233844757, -0.6815046072006226, 0.130051389336586, -0.7058159112930298, 9.80702018737793, -0.08744742721319199, 0.3366074860095978, 1.4188493490219116, 10.182401657104492, -5.538476467132568, -1.13330078125, 0.44677734375, -0.04052734375, 0, 
272, 3631492229, -0.14359477162361145, -0.681254506111145, 0.12964287400245667, -0.7060568928718567, 9.755709648132324, -0.025477424263954163, 0.27892863750457764, 0.3450237810611725, 6.609036922454834, -6.424191951751709, -1.1396484375, 0.44580078125, -0.04296875, 0, 
273, 3631500562, -0.14397159218788147, -0.6811462640762329, 0.1293124109506607, -0.7061451077461243, 9.72119426727295, -0.017360905185341835, 0.27496612071990967, -0.4315614700317383, 3.6533329486846924, -6.420656681060791, -1.13671875, 0.4462890625, -0.04345703125, 0, 
274, 3631508895, -0.14426448941230774, -0.6809811592102051, 0.12889236211776733, -0.7063213586807251, 9.75832748413086, -0.02158447541296482, 0.20400118827819824, 1.2558021545410156, 5.056238174438477, -6.0377116203308105, -1.13671875, 0.4453125, -0.044921875, 0, 
275, 3631517228, -0.14445653557777405, -0.6807029247283936, 0.12847404181957245, -0.7066264748573303, 9.69113540649414, 0.02083893120288849, 0.3242492973804474, 2.192309617996216, 7.183243274688721, -4.717040538787842, -1.14111328125, 0.44482421875, -0.046875, 0, 
276, 3631525561, -0.14459490776062012, -0.6804683804512024, 0.12814128398895264, -0.7068844437599182, 9.654409408569336, -0.0035121797118335962, 0.3544228672981262, 1.8610793352127075, 6.05146598815918, -3.433345079421997, -1.13671875, 0.44287109375, -0.046875, 0, 
277, 3631533894, -0.14471912384033203, -0.6802737712860107, 0.12789395451545715, -0.7070908546447754, 9.775655746459961, -0.0241559986025095, 0.31335243582725525, 1.1721330881118774, 4.985324859619141, -2.7999563217163086, -1.13623046875, 0.4443359375, -0.044921875, 0, 
278, 3631542227, -0.1448526382446289, -0.6801006197929382, 0.12770847976207733, -0.7072636485099792, 9.862406730651855, -0.019688216969370842, 0.4430297017097473, 0.4477112293243408, 4.357186794281006, -2.2855966091156006, -1.142578125, 0.44287109375, -0.04443359375, 0, 
279, 3631550560, -0.1449720710515976, -0.6799219250679016, 0.1274694949388504, -0.7074540853500366, 9.917288780212402, -0.01414547860622406, 0.490772545337677, 1.142369270324707, 4.6562066078186035, -2.736816883087158, -1.13916015625, 0.4384765625, -0.044921875, 0, 
280, 3631558893, -0.14509502053260803, -0.6796860694885254, 0.1271648108959198, -0.7077104449272156, 9.957228660583496, 0.05342058092355728, 0.5009344816207886, 1.7262457609176636, 5.965580940246582, -3.0221593379974365, -1.1357421875, 0.44091796875, -0.04248046875, 0, 
281, 3631567226, -0.14517953991889954, -0.679478645324707, 0.12681856751441956, -0.7079541087150574, 9.905892372131348, 0.03217129781842232, 0.5537407994270325, 2.5406250953674316, 5.587541103363037, -3.242006778717041, -1.13818359375, 0.44091796875, -0.04638671875, 0, 
282, 3631575559, -0.14523158967494965, -0.6793383359909058, 0.12646609544754028, -0.7081412672996521, 9.9436674118042, 0.08947848528623581, 0.509656548500061, 2.925299644470215, 4.362437725067139, -3.0825579166412354, -1.13916015625, 0.4375, -0.04736328125, 0, 
283, 3631583892, -0.14520010352134705, -0.6792506575584412, 0.12607108056545258, -0.7083022594451904, 10.027610778808594, 0.13739103078842163, 0.36291933059692383, 4.189438819885254, 3.542910099029541, -2.9414749145507812, -1.13916015625, 0.43798828125, -0.0439453125, 0, 
284, 3631592225, -0.14519038796424866, -0.6791042685508728, 0.12571555376052856, -0.708507776260376, 10.242504119873047, 0.0386648066341877, 0.35832542181015015, 3.55151629447937, 4.4906110763549805, -2.4630777835845947, -1.14111328125, 0.439453125, -0.04638671875, 0, 
285, 3631600558, -0.1452805995941162, -0.6787760257720947, 0.12548306584358215, -0.7088449597358704, 10.404690742492676, -0.07305896282196045, 0.26693451404571533, 1.2606048583984375, 7.41647481918335, -1.843751311302185, -1.14013671875, 0.4375, -0.04150390625, 0, 
286, 3631608891, -0.14544129371643066, -0.6782981753349304, 0.12517209351062775, -0.7093241810798645, 10.170690536499023, 0.08919484913349152, 0.24891622364521027, 1.3375755548477173, 10.481910705566406, -2.587435245513916, -1.13671875, 0.43603515625, -0.04443359375, 0, 
287, 3631617224, -0.1455068290233612, -0.6778587698936462, 0.12473531067371368, -0.7098076343536377, 10.01547622680664, 0.06883249431848526, 0.2700694799423218, 3.5568184852600098, 10.231888771057129, -3.022364854812622, -1.13818359375, 0.4345703125, -0.046875, 0, 
288, 3631625557, -0.1454746425151825, -0.6774880290031433, 0.12434005737304688, -0.7102373242378235, 9.950638771057129, 0.03311806917190552, 0.13900570571422577, 4.0871100425720215, 8.81114387512207, -1.7758477926254272, -1.13916015625, 0.4365234375, -0.05029296875, 0, 
289, 3631633890, -0.14536631107330322, -0.6771960258483887, 0.12395238876342773, -0.7106057405471802, 9.978389739990234, 0.1424846202135086, 0.0286101084202528, 4.78737735748291, 7.327464580535889, -1.3498575687408447, -1.13818359375, 0.43798828125, -0.0498046875, 0, 
290, 3631642223, -0.14522436261177063, -0.6769201159477234, 0.12353752553462982, -0.7109700441360474, 9.880790710449219, 0.2988147735595703, -0.24986623227596283, 5.378298282623291, 7.12698221206665, -1.1781140565872192, -1.13720703125, 0.4384765625, -0.04931640625, 0, 
291, 3631650556, -0.14495858550071716, -0.6765824556350708, 0.12323123216629028, -0.7113985419273376, 9.863293647766113, 0.31877386569976807, -0.2686637341976166, 5.465822219848633, 7.903733730316162, 1.1448283195495605, -1.13916015625, 0.43505859375, -0.05224609375, 0, 
292, 3631658889, -0.14462658762931824, -0.6761873364448547, 0.12298592925071716, -0.711884081363678, 9.817069053649902, 0.5864344835281372, -0.4478934109210968, 5.456947326660156, 8.761465072631836, 2.70200777053833, -1.13525390625, 0.43798828125, -0.05078125, 0, 
293, 3631667222, -0.14415311813354492, -0.675737738609314, 0.12278014421463013, -0.7124422192573547, 9.799712181091309, 0.7979661226272583, -0.4399610757827759, 6.411191940307617, 9.65400505065918, 4.560332775115967, -1.13623046875, 0.43359375, -0.0517578125, 0, 
294, 3631675555, -0.1435513198375702, -0.675354540348053, 0.12254060804843903, -0.7129682302474976, 9.950671195983887, 0.9037795066833496, -0.4743874967098236, 8.001068115234375, 8.552440643310547, 5.458291530609131, -1.140625, 0.4384765625, -0.0498046875, 0, 
295, 3631683888, -0.14287441968917847, -0.6750203967094421, 0.1223171055316925, -0.7134588956832886, 10.199302673339844, 0.804425060749054, -0.4579634964466095, 8.587045669555664, 7.592495441436768, 6.064171314239502, -1.1357421875, 0.43701171875, -0.0537109375, 0, 
296, 3631692221, -0.14210453629493713, -0.674859881401062, 0.12209062278270721, -0.7138032913208008, 10.000354766845703, 0.4900384247303009, -0.8022995591163635, 9.565995216369629, 4.372759819030762, 6.495718955993652, -1.13525390625, 0.43896484375, -0.05615234375, 0, 
297, 3631700554, -0.1405431628227234, -0.67536860704422, 0.12198236584663391, -0.7136496305465698, 10.618526458740234, 0.31232568621635437, -0.3142123818397522, 16.23225975036621, -8.370925903320312, 13.139620780944824, -1.13525390625, 0.43896484375, -0.0517578125, 0, 
298, 3631708887, -0.14008238911628723, -0.6748746037483215, 0.12224486470222473, -0.7141625881195068, 10.678878784179688, 0.9089553952217102, -0.7320657968521118, 1.541695475578308, 8.78407096862793, 8.87909984588623, -1.13525390625, 0.44384765625, -0.0556640625, 0, 
299, 3631717220, -0.1396126002073288, -0.6742104291915894, 0.12203629314899445, -0.7149169445037842, 10.265061378479004, 0.5746952891349792, -0.13876809179782867, 6.341189861297607, 13.597447395324707, 5.221002101898193, -1.13427734375, 0.44384765625, -0.052734375, 0, 
300, 3631725553, -0.1395377516746521, -0.6737021803855896, 0.12183496356010437, -0.7154447436332703, 10.261527061462402, 0.6825960278511047, -0.1012296974658966, 2.5175724029541016, 10.602219581604004, 0.8344862461090088, -1.13427734375, 0.44287109375, -0.0556640625, 0, 
301, 3631733886, -0.13939517736434937, -0.6733464598655701, 0.1213790699839592, -0.7158848643302917, 10.329571723937988, 0.7496811151504517, -0.26149535179138184, 5.803750514984131, 8.679615020751953, -1.4042878150939941, -1.1337890625, 0.44140625, -0.05712890625, 0, 
302, 3631742219, -0.13945220410823822, -0.6729557514190674, 0.12094786763191223, -0.7163141965866089, 10.348291397094727, 0.5672792196273804, -0.2117922157049179, 3.618472099304199, 9.19487190246582, -2.9804344177246094, -1.130859375, 0.44091796875, -0.0595703125, 0, 
303, 3631750552, -0.13980507850646973, -0.672473669052124, 0.1204887330532074, -0.7167752385139465, 10.1170654296875, 0.5401194095611572, -0.1287430226802826, 1.0432934761047363, 10.950855255126953, -6.060085296630859, -1.13427734375, 0.44287109375, -0.0615234375, 0, 
304, 3631758885, -0.14032700657844543, -0.6720467209815979, 0.11992403864860535, -0.7171683311462402, 9.924363136291504, 0.6216601729393005, 0.05436969920992851, 0.5040626525878906, 10.24559211730957, -8.803754806518555, -1.1337890625, 0.4423828125, -0.06591796875, 0, 
305, 3631767218, -0.1409422606229782, -0.6717371940612793, 0.11938539147377014, -0.7174273729324341, 9.815600395202637, 0.5956369042396545, 0.023751461878418922, -0.6000775694847107, 7.971662521362305, -10.054369926452637, -1.13525390625, 0.4404296875, -0.0625, 0, 
306, 3631775551, -0.14159657061100006, -0.6714588403701782, 0.11873306334018707, -0.7176673412322998, 9.741416931152344, 0.6020387411117554, -0.041226256638765335, 0.18078532814979553, 7.753175735473633, -11.459465980529785, -1.1328125, 0.439453125, -0.0625, 0, 
307, 3631783884, -0.14221586287021637, -0.6712273955345154, 0.11802837997674942, -0.7178776264190674, 9.724264144897461, 0.41899463534355164, 0.030916478484869003, 1.072698950767517, 7.080263614654541, -11.848828315734863, -1.13232421875, 0.43505859375, -0.06298828125, 0, 
308, 3631792217, -0.14288955926895142, -0.6710127592086792, 0.11730903387069702, -0.7180624604225159, 9.699180603027344, 0.3314474821090698, -0.026943156495690346, 0.6973220109939575, 6.775965213775635, -12.480704307556152, -1.1357421875, 0.4365234375, -0.06787109375, 0, 
309, 3631800550, -0.14348581433296204, -0.6708729267120361, 0.11656525731086731, -0.7181951403617859, 9.72807788848877, 0.23526880145072937, -0.13338802754878998, 1.725272297859192, 5.503270149230957, -12.28183364868164, -1.13720703125, 0.43505859375, -0.0625, 0, 
310, 3631808883, -0.14397570490837097, -0.6707401871681213, 0.11574731022119522, -0.7183533906936646, 9.727814674377441, 0.15500064194202423, -0.18157044053077698, 3.4838948249816895, 5.621838092803955, -11.75899600982666, -1.13525390625, 0.431640625, -0.06298828125, 0, 
311, 3631817216, -0.14431768655776978, -0.6705784797668457, 0.1149815022945404, -0.718558669090271, 9.579176902770996, 0.2088100165128708, -0.12990109622478485, 4.361899375915527, 6.026491641998291, -9.793871879577637, -1.13623046875, 0.4267578125, -0.06591796875, 0, 
312, 3631825549, -0.14454655349254608, -0.6705049276351929, 0.11418452858924866, -0.7187083959579468, 9.486725807189941, 0.2869197130203247, -0.2452949583530426, 5.788791656494141, 4.503239154815674, -9.098420143127441, -1.138671875, 0.4287109375, -0.064453125, 0, 
313, 3631833882, -0.1446336805820465, -0.6704537272453308, 0.11332246661186218, -0.7188750505447388, 9.530662536621094, 0.37055957317352295, -0.30162569880485535, 7.820000648498535, 4.371914386749268, -8.413956642150879, -1.13720703125, 0.42333984375, -0.06201171875, 0, 
314, 3631842215, -0.14468351006507874, -0.670315682888031, 0.11247572302818298, -0.7191267013549805, 9.410444259643555, 0.35531505942344666, -0.37179961800575256, 7.962339401245117, 5.898369312286377, -7.483954429626465, -1.13720703125, 0.42529296875, -0.0634765625, 0, 
315, 3631850548, -0.14469090104103088, -0.6701739430427551, 0.11151408404111862, -0.7194070816040039, 9.415362358093262, 0.4618193209171295, -0.32471489906311035, 9.538206100463867, 6.391598701477051, -8.175310134887695, -1.1357421875, 0.423828125, -0.06494140625, 0, 
316, 3631858881, -0.1446521282196045, -0.6700358986854553, 0.1105647161602974, -0.7196899652481079, 9.422701835632324, 0.3752956986427307, -0.27703335881233215, 9.841018676757812, 6.254358291625977, -7.492563724517822, -1.1376953125, 0.4228515625, -0.06640625, 0, 
317, 3631867214, -0.14453072845935822, -0.6698760986328125, 0.10967442393302917, -0.7199992537498474, 9.372739791870117, 0.46496450901031494, -0.4143277108669281, 10.02674388885498, 6.5000996589660645, -6.157214641571045, -1.13623046875, 0.421875, -0.06591796875, 0, 
318, 3631875547, -0.14433372020721436, -0.6697298288345337, 0.10874032974243164, -0.7203165888786316, 9.366836547851562, 0.5186101198196411, -0.49330300092697144, 11.184382438659668, 6.382429599761963, -5.703203201293945, -1.1337890625, 0.4208984375, -0.0634765625, 0, 
319, 3631883880, -0.14401863515377045, -0.6696527600288391, 0.10779525339603424, -0.720593273639679, 9.477132797241211, 0.5151746869087219, -0.48649489879608154, 12.466858863830566, 5.202481746673584, -4.933160781860352, -1.13623046875, 0.41845703125, -0.0654296875, 0, 
320, 3631892213, -0.1436358541250229, -0.6695849895477295, 0.10682867467403412, -0.7208765149116516, 9.56567668914795, 0.7335774898529053, -0.5632613897323608, 13.322197914123535, 5.077715873718262, -4.346749305725098, -1.13427734375, 0.41943359375, -0.06982421875, 0, 
321, 3631900546, -0.1432245373725891, -0.669407308101654, 0.10585296899080276, -0.7212671637535095, 9.672924995422363, 0.7939078211784363, -0.61858069896698, 13.625778198242188, 7.1692986488342285, -3.887819290161133, -1.134765625, 0.41796875, -0.06884765625, 0, 
322, 3631908879, -0.14277049899101257, -0.6691829562187195, 0.10489214956760406, -0.7217057347297668, 9.722638130187988, 0.822615921497345, -0.5232303142547607, 13.839194297790527, 7.9444355964660645, -3.052461624145508, -1.13525390625, 0.41650390625, -0.06689453125, 0, 
323, 3631917212, -0.14226049184799194, -0.6689789891242981, 0.10401122272014618, -0.7221227288246155, 9.772696495056152, 1.0042061805725098, -0.4838179647922516, 13.344608306884766, 7.335456848144531, -1.9634979963302612, -1.1357421875, 0.41455078125, -0.07080078125, 0, 
324, 3631925545, -0.14181861281394958, -0.6688328385353088, 0.10331911593675613, -0.722444474697113, 9.741120338439941, 0.9489144682884216, -0.5134705901145935, 11.045372009277344, 5.585158824920654, -1.040770411491394, -1.1337890625, 0.41357421875, -0.07080078125, 0, 
325, 3631933878, -0.14152616262435913, -0.668533205986023, 0.10270792990922928, -0.7228660583496094, 9.796018600463867, 0.9386280179023743, -0.6876938939094543, 8.466043472290039, 8.115385055541992, -1.4985226392745972, -1.130859375, 0.41748046875, -0.07177734375, 0, 
326, 3631942211, -0.1412653774023056, -0.6682338118553162, 0.10219509899616241, -0.7232665419578552, 9.649735450744629, 1.0249676704406738, -0.5476322770118713, 7.4120941162109375, 7.7393412590026855, -0.8214357495307922, -1.13330078125, 0.41455078125, -0.07470703125, 0, 
327, 3631950544, -0.14099246263504028, -0.6681056618690491, 0.1017455905675888, -0.723501443862915, 9.637394905090332, 1.0374128818511963, -0.48616960644721985, 6.755037784576416, 4.410284996032715, -0.8085519075393677, -1.1279296875, 0.4140625, -0.0732421875, 0, 
328, 3631958877, -0.14088863134384155, -0.6678857207298279, 0.1014123409986496, -0.7237715125083923, 9.760461807250977, 1.0080242156982422, -0.5583153963088989, 4.154756546020508, 5.622016906738281, -1.098351240158081, -1.130859375, 0.4169921875, -0.0693359375, 0, 
329, 3631967210, -0.14099779725074768, -0.667266845703125, 0.10119683295488358, -0.7243511080741882, 9.756762504577637, 0.9977137446403503, -0.5147948265075684, 0.43887439370155334, 12.542550086975098, -1.1078286170959473, -1.13037109375, 0.4169921875, -0.07373046875, 0, 
330, 3631975543, -0.14126330614089966, -0.6667176485061646, 0.1011488288640976, -0.7248116135597229, 9.6041841506958, 0.923595130443573, -0.2473924458026886, -2.4493231773376465, 10.61056900024414, -1.3289819955825806, -1.12841796875, 0.4140625, -0.07177734375, 0, 
331, 3631983876, -0.1415591537952423, -0.6663488745689392, 0.10117894411087036, -0.7250886559486389, 9.541544914245605, 0.8483836054801941, -0.3891904354095459, -3.6748876571655273, 7.059720039367676, -1.650517463684082, -1.13134765625, 0.4111328125, -0.0712890625, 0, 
332, 3631992209, -0.1419205665588379, -0.6659475564956665, 0.10126848518848419, -0.7253742814064026, 9.433743476867676, 0.7171125411987305, -0.5898758172988892, -4.654913425445557, 7.400260925292969, -1.5687311887741089, -1.1298828125, 0.4130859375, -0.06982421875, 0, 
333, 3632000542, -0.1423598825931549, -0.6654855012893677, 0.10141687840223312, -0.7256913185119629, 9.278692245483398, 0.662653386592865, -0.5202744007110596, -6.313256740570068, 8.328238487243652, -1.789320945739746, -1.13037109375, 0.41259765625, -0.07568359375, 0, 
334, 3632008875, -0.1429247260093689, -0.6651076078414917, 0.10173816978931427, -0.7258817553520203, 9.273472785949707, 0.5854676961898804, -0.576982319355011, -8.916097640991211, 6.123902320861816, -1.698876976966858, -1.1279296875, 0.41162109375, -0.07275390625, 0, 
335, 3632017208, -0.14345377683639526, -0.6648073196411133, 0.10205724835395813, -0.7260076999664307, 9.245468139648438, 0.5117613077163696, -0.6277421712875366, -8.77025032043457, 4.76212215423584, -1.720213532447815, -1.12841796875, 0.412109375, -0.0732421875, 0, 
336, 3632025541, -0.14395838975906372, -0.6646459102630615, 0.10238140821456909, -0.7260099649429321, 9.1318941116333, 0.6260116696357727, -0.7115511298179626, -8.230891227722168, 2.1524667739868164, -1.7448290586471558, -1.12744140625, 0.412109375, -0.0732421875, 0, 
337, 3632033874, -0.14443355798721313, -0.6646092534065247, 0.10278347134590149, -0.7258922457695007, 9.317950248718262, 0.7269361615180969, -0.6986575126647949, -8.97688102722168, -0.3345859944820404, -1.280058741569519, -1.126953125, 0.4091796875, -0.0712890625, 0, 
338, 3632042207, -0.14494019746780396, -0.6646447777748108, 0.1032395213842392, -0.7256940007209778, 9.483409881591797, 0.8157655596733093, -0.8035615682601929, -9.459503173828125, -1.9047129154205322, -1.2350800037384033, -1.12939453125, 0.41064453125, -0.0654296875, 0, 
339, 3632050540, -0.14541342854499817, -0.6646924614906311, 0.10376052558422089, -0.7254813313484192, 9.602723121643066, 0.8851563930511475, -0.8817146420478821, -10.085413932800293, -2.278809070587158, -0.47782084345817566, -1.12548828125, 0.4111328125, -0.06689453125, 0, 
340, 3632058873, -0.14592671394348145, -0.6646845936775208, 0.10427514463663101, -0.7253116369247437, 9.801617622375488, 0.9205394387245178, -0.8861798644065857, -10.149961471557617, -1.317020058631897, -0.6458501815795898, -1.1259765625, 0.412109375, -0.0625, 0, 
341, 3632067206, -0.14651694893836975, -0.6645997762680054, 0.1049310564994812, -0.7251756191253662, 9.805416107177734, 0.896617591381073, -0.9788587093353271, -12.689000129699707, -0.35733142495155334, -0.07014458626508713, -1.126953125, 0.4091796875, -0.0654296875, 0, 
342, 3632075539, -0.14711938798427582, -0.6645311713218689, 0.10564976930618286, -0.7250121831893921, 9.686119079589844, 0.8868679404258728, -1.076858401298523, -13.113093376159668, -0.9355727434158325, 0.4306265413761139, -1.12451171875, 0.40966796875, -0.06103515625, 0, 
343, 3632083872, -0.147584468126297, -0.6646179556846619, 0.10638979822397232, -0.7247300148010254, 9.643730163574219, 0.8792165517807007, -1.1190435886383057, -12.238804817199707, -3.7478888034820557, 1.4035578966140747, -1.1220703125, 0.40869140625, -0.05908203125, 0, 
344, 3632092205, -0.1480378657579422, -0.6647701263427734, 0.10719695687294006, -0.7243790030479431, 9.70868968963623, 0.7961750030517578, -1.2366492748260498, -12.457649230957031, -5.246986389160156, 2.0228843688964844, -1.1240234375, 0.40869140625, -0.0625, 0, 
345, 3632100538, -0.14840735495090485, -0.6649845838546753, 0.1080535501241684, -0.7239790558815002, 9.851395606994629, 0.7804685235023499, -1.3751763105392456, -12.454910278320312, -6.469221591949463, 2.9969425201416016, -1.1201171875, 0.40771484375, -0.05712890625, 0, 
346, 3632108871, -0.14872360229492188, -0.6651709675788879, 0.1089467704296112, -0.7236089110374451, 10.00151538848877, 0.867748498916626, -1.448716163635254, -12.019035339355469, -6.141539573669434, 4.085855960845947, -1.12353515625, 0.41259765625, -0.052734375, 0, 
347, 3632117204, -0.14897188544273376, -0.6652603149414062, 0.10987310111522675, -0.7233358025550842, 10.317037582397461, 0.7831460237503052, -1.1838797330856323, -12.109030723571777, -4.380393981933594, 5.289430618286133, -1.123046875, 0.41015625, -0.048828125, 0, 
348, 3632125537, -0.14922191202640533, -0.6654901504516602, 0.1108708381652832, -0.7229204773902893, 10.638830184936523, 0.809134840965271, -1.082915186882019, -12.434163093566895, -7.299405097961426, 5.542050361633301, -1.11865234375, 0.4091796875, -0.0517578125, 0, 
349, 3632133870, -0.1494092494249344, -0.6657359600067139, 0.1118524968624115, -0.7225039601325989, 10.791518211364746, 0.8631736040115356, -1.0545061826705933, -11.960786819458008, -7.447353363037109, 5.874881744384766, -1.1201171875, 0.41162109375, -0.04931640625, 0, 
350, 3632142203, -0.1496412605047226, -0.6657642722129822, 0.11280399560928345, -0.7222819328308105, 11.310098648071289, 0.8730794191360474, -0.41804617643356323, -11.925566673278809, -3.4607272148132324, 6.005002021789551, -1.11962890625, 0.41064453125, -0.0478515625, 0, 
351, 3632150536, -0.1498890519142151, -0.6658841371536255, 0.11373193562030792, -0.7219744324684143, 12.335861206054688, 0.7179794311523438, 0.40224984288215637, -12.120441436767578, -4.989717960357666, 5.198359489440918, -1.1220703125, 0.41650390625, -0.04296875, 0, 
352, 3632158869, -0.1502033770084381, -0.6662236452102661, 0.1145295649766922, -0.7214696407318115, 13.046355247497559, 0.4528970420360565, 0.4382734000682831, -10.952585220336914, -8.69287109375, 2.711087942123413, -1.1201171875, 0.41455078125, -0.04248046875, 0, 
353, 3632167202, -0.15048152208328247, -0.6665908098220825, 0.11488126218318939, -0.721016526222229, 13.118063926696777, 0.04478971287608147, -0.15366306900978088, -6.387101173400879, -7.537692546844482, -1.064463496208191, -1.12255859375, 0.416015625, -0.04248046875, 0, 
354, 3632175535, -0.15079030394554138, -0.6667985320091248, 0.11465781927108765, -0.7207955121994019, 12.459613800048828, 0.0009189730626530945, -0.4730514883995056, -0.6011276245117188, -2.6832828521728516, -5.79679536819458, -1.11962890625, 0.40966796875, -0.041015625, 0, 
355, 3632183868, -0.15094339847564697, -0.6672013401985168, 0.11400873214006424, -0.7204935550689697, 11.59801197052002, -0.1390131264925003, -0.5348891615867615, 4.985324382781982, -4.627737045288086, -8.743867874145508, -1.11962890625, 0.4140625, -0.04150390625, 0, 
356, 3632192201, -0.15105396509170532, -0.6675242781639099, 0.11349320411682129, -0.7202527523040771, 11.410696983337402, -0.17387565970420837, -0.6258245706558228, 4.32053279876709, -3.714512586593628, -6.732330799102783, -1.12255859375, 0.41015625, -0.04150390625, 0, 
357, 3632200534, -0.15105140209197998, -0.667833685874939, 0.11322305351495743, -0.7200088500976562, 11.160456657409668, -0.049189306795597076, -0.6039721369743347, 2.550537347793579, -4.1971869468688965, -3.458677291870117, -1.12451171875, 0.4091796875, -0.0390625, 0, 
358, 3632208867, -0.15082675218582153, -0.6683289408683777, 0.11308127641677856, -0.7196186780929565, 11.02840805053711, 0.18009765446186066, -0.6923478841781616, 3.8215668201446533, -8.090038299560547, -0.5607084035873413, -1.12451171875, 0.41064453125, -0.0400390625, 0, 
359, 3632217200, -0.1503017246723175, -0.668889582157135, 0.1128593161702156, -0.7192422747612, 11.195783615112305, 0.5510488748550415, -0.6152607202529907, 7.179234981536865, -8.810029983520508, 1.486880898475647, -1.125, 0.408203125, -0.0400390625, 0, 
360, 3632225533, -0.14961084723472595, -0.6692720651626587, 0.11264480650424957, -0.7190640568733215, 11.542695045471191, 0.9154736399650574, -0.3238150477409363, 8.92347526550293, -5.598811149597168, 3.9971914291381836, -1.1220703125, 0.41162109375, -0.03759765625, 0, 
361, 3632233866, -0.14891991019248962, -0.6695040464401245, 0.11248118430376053, -0.7190170884132385, 11.815276145935059, 1.1097811460494995, 0.17132000625133514, 7.962467193603516, -2.903719425201416, 4.85499906539917, -1.12109375, 0.40869140625, -0.03564453125, 0, 
362, 3632242199, -0.14840951561927795, -0.6697520017623901, 0.11234669387340546, -0.7189127206802368, 12.008004188537598, 1.1320947408676147, 0.6099413633346558, 6.307736873626709, -3.475224494934082, 3.3090009689331055, -1.12353515625, 0.41015625, -0.03759765625, 0, 
363, 3632250532, -0.14800840616226196, -0.6701769828796387, 0.11217890679836273, -0.7186257243156433, 12.276103973388672, 0.9290003776550293, 0.7860660552978516, 5.35647439956665, -6.562379837036133, 1.165165901184082, -1.119140625, 0.40869140625, -0.0390625, 0, 
364, 3632258865, -0.14783461391925812, -0.6706082224845886, 0.11207830160856247, -0.7182747721672058, 12.463107109069824, 0.7214387059211731, 0.8165057301521301, 2.865260124206543, -7.1070170402526855, -0.491780549287796, -1.12158203125, 0.40966796875, -0.03466796875, 0, 
365, 3632267198, -0.1478780210018158, -0.6708300709724426, 0.11205863952636719, -0.7180615663528442, 12.299408912658691, 0.5720415711402893, 0.8076136708259583, -0.5093262195587158, -3.4929230213165283, -1.3968336582183838, -1.12158203125, 0.41162109375, -0.03271484375, 0, 
366, 3632275531, -0.14804932475090027, -0.6707912683486938, 0.11218275129795074, -0.7180432677268982, 11.642199516296387, 0.4444972276687622, 0.7752034664154053, -2.979281187057495, 0.6778295040130615, -0.42449188232421875, -1.123046875, 0.4091796875, -0.03271484375, 0, 
367, 3632283864, -0.14812016487121582, -0.6705933809280396, 0.11245335638523102, -0.7181710004806519, 10.891446113586426, 0.44138187170028687, 0.7580607533454895, -3.9559013843536377, 3.2488842010498047, 2.3515660762786865, -1.1220703125, 0.40869140625, -0.03515625, 0, 
368, 3632292197, -0.1480177938938141, -0.6703328490257263, 0.11288413405418396, -0.7183678150177002, 10.392522811889648, 0.3796335458755493, 0.676045835018158, -3.6034233570098877, 3.803509473800659, 5.885255813598633, -1.12451171875, 0.4111328125, -0.03125, 0, 
369, 3632300530, -0.14768201112747192, -0.669881284236908, 0.1134292483329773, -0.7187721133232117, 10.250947952270508, 0.25995078682899475, 0.6853550672531128, -3.0399363040924072, 7.114175796508789, 9.853105545043945, -1.1171875, 0.4111328125, -0.0322265625, 0, 
370, 3632308863, -0.1471875011920929, -0.6691979765892029, 0.11407861113548279, -0.7194071412086487, 9.985221862792969, 0.15241527557373047, 0.926216721534729, -2.325991153717041, 10.965381622314453, 13.32283878326416, -1.125, 0.4130859375, -0.03564453125, 0, 
371, 3632317196, -0.14656300842761993, -0.6684979796409607, 0.11483348906040192, -0.7200648784637451, 9.752228736877441, 0.031382739543914795, 1.3114557266235352, -2.5375900268554688, 11.029953002929688, 15.54220962524414, -1.12109375, 0.41796875, -0.0341796875, 0, 
372, 3632325529, -0.14596104621887207, -0.6678339242935181, 0.11569631099700928, -0.7206650376319885, 9.609137535095215, 0.05176198109984398, 1.5217657089233398, -3.467796564102173, 9.856794357299805, 16.249853134155273, -1.1181640625, 0.41650390625, -0.0380859375, 0, 
373, 3632333862, -0.14545826613903046, -0.6670917868614197, 0.11668599396944046, -0.7212941646575928, 9.47638988494873, -0.0187973752617836, 1.582118272781372, -6.077632427215576, 10.90493106842041, 16.503026962280273, -1.119140625, 0.42138671875, -0.03955078125, 0, 
374, 3632342195, -0.1451360285282135, -0.6663376688957214, 0.11774025857448578, -0.7218846678733826, 9.085456848144531, 0.02808246947824955, 1.5025466680526733, -8.127386093139648, 10.723428726196289, 15.357709884643555, -1.11669921875, 0.42236328125, -0.037109375, 0, 
375, 3632350528, -0.14475274085998535, -0.6656816601753235, 0.11871089786291122, -0.7224077582359314, 9.062742233276367, 0.08438242226839066, 1.4625093936920166, -7.008223056793213, 9.30772876739502, 14.791251182556152, -1.11572265625, 0.4228515625, -0.04052734375, 0, 
376, 3632358861, -0.14447283744812012, -0.6649311184883118, 0.11975543946027756, -0.7229824662208557, 8.790095329284668, -0.0702250748872757, 1.4411767721176147, -8.435961723327637, 10.632293701171875, 14.810003280639648, -1.1171875, 0.4267578125, -0.04150390625, 0, 
377, 3632367194, -0.14421305060386658, -0.6642640233039856, 0.12067677080631256, -0.7234939932823181, 8.592801094055176, -0.14168991148471832, 1.5289266109466553, -7.657569408416748, 9.608132362365723, 13.108677864074707, -1.11083984375, 0.4296875, -0.04541015625, 0, 
378, 3632375527, -0.1440557986497879, -0.6637253761291504, 0.12150358408689499, -0.723881185054779, 8.321765899658203, -0.3358273506164551, 1.5178325176239014, -7.282679080963135, 7.447212219238281, 10.877317428588867, -1.11181640625, 0.43408203125, -0.04150390625, 0, 
379, 3632383860, -0.14392317831516266, -0.6633331775665283, 0.12213997542858124, -0.7241600751876831, 8.316990852355957, -0.37612542510032654, 1.5135185718536377, -5.8106536865234375, 5.526015281677246, 8.325421333312988, -1.11474609375, 0.4296875, -0.04736328125, 0, 
380, 3632392193, -0.14380279183387756, -0.6630851030349731, 0.12272025644779205, -0.724312961101532, 8.425067901611328, -0.46749943494796753, 1.6361197233200073, -4.981239318847656, 2.9657704830169678, 7.309253692626953, -1.1142578125, 0.43408203125, -0.046875, 0, 
381, 3632400526, -0.14369557797908783, -0.6628810167312622, 0.12349189072847366, -0.7243897914886475, 8.418134689331055, -0.5265260934829712, 1.5242177248001099, -7.37319803237915, 1.582370638847351, 8.587326049804688, -1.11181640625, 0.43603515625, -0.0478515625, 0, 
382, 3632408859, -0.14342167973518372, -0.6628742218017578, 0.12416570633649826, -0.7243351340293884, 8.528587341308594, -0.4747065603733063, 1.4848121404647827, -4.388397216796875, -1.7752585411071777, 8.872821807861328, -1.111328125, 0.43798828125, -0.04833984375, 0, 
383, 3632417192, -0.14300206303596497, -0.662961483001709, 0.12497781217098236, -0.724198579788208, 8.774093627929688, -0.7088479995727539, 1.3495330810546875, -4.70311975479126, -3.8765482902526855, 11.14941692352295, -1.1123046875, 0.439453125, -0.04638671875, 0, 
384, 3632425525, -0.1426304280757904, -0.6630340218544006, 0.12600567936897278, -0.7240273356437683, 8.960250854492188, -0.7022315859794617, 1.1731867790222168, -7.066507816314697, -4.491943836212158, 12.708415985107422, -1.11328125, 0.4384765625, -0.0458984375, 0, 
385, 3632433858, -0.1420242339372635, -0.663175106048584, 0.12687315046787262, -0.7238658666610718, 9.230546951293945, -0.5312734842300415, 1.0909725427627563, -3.4941022396087646, -5.073885440826416, 13.367966651916504, -1.1142578125, 0.4423828125, -0.044921875, 0, 
386, 3632442191, -0.1412295401096344, -0.6632141470909119, 0.12781822681427002, -0.7238194942474365, 9.400604248046875, -0.6297177672386169, 1.0888408422470093, -2.2319865226745605, -3.5902838706970215, 16.47008514404297, -1.11328125, 0.4443359375, -0.04443359375, 0, 
387, 3632450524, -0.14044994115829468, -0.663148045539856, 0.12897969782352448, -0.7238255739212036, 9.414867401123047, -0.48957550525665283, 0.9387410879135132, -4.937387466430664, -2.359776020050049, 18.46428108215332, -1.11181640625, 0.44580078125, -0.044921875, 0, 
388, 3632458857, -0.13973718881607056, -0.6630178093910217, 0.13028037548065186, -0.7238501310348511, 9.414576530456543, -0.3925042152404785, 0.7042115926742554, -6.720934867858887, -1.8032301664352417, 19.333171844482422, -1.11474609375, 0.4501953125, -0.0478515625, 0, 
389, 3632467190, -0.1391018033027649, -0.6626788973808289, 0.13150885701179504, -0.7240603566169739, 9.43211841583252, -0.2014153003692627, 0.5678268074989319, -7.098487854003906, 2.345521926879883, 18.517433166503906, -1.11279296875, 0.4521484375, -0.0478515625, 0, 
390, 3632475523, -0.1386546790599823, -0.6620252728462219, 0.13297179341316223, -0.7244768142700195, 9.296442985534668, -0.4710960388183594, 0.6010422110557556, -11.05571174621582, 7.148680686950684, 19.859649658203125, -1.11376953125, 0.453125, -0.0458984375, 0, 
391, 3632483856, -0.13840758800506592, -0.6613194346427917, 0.13459530472755432, -0.724868655204773, 9.29588508605957, -0.5667150616645813, 0.7708075642585754, -14.924665451049805, 7.606509208679199, 19.26224708557129, -1.11181640625, 0.45751953125, -0.0439453125, 0, 
392, 3632492189, -0.13833346962928772, -0.6607147455215454, 0.13614647090435028, -0.7251444458961487, 9.332267761230469, -0.5076873898506165, 0.7457975745201111, -15.494606971740723, 5.8987812995910645, 16.58863067626953, -1.109375, 0.45849609375, -0.044921875, 0, 
393, 3632500522, -0.13828852772712708, -0.6602389812469482, 0.13770486414432526, -0.7252921462059021, 9.359859466552734, -0.44386130571365356, 0.787194550037384, -16.123695373535156, 3.596778154373169, 15.760139465332031, -1.111328125, 0.4619140625, -0.048828125, 0, 
394, 3632508855, -0.13845422863960266, -0.6597176790237427, 0.13951680064201355, -0.7253885269165039, 9.342828750610352, -0.39769798517227173, 0.5044412016868591, -20.45096778869629, 3.3937602043151855, 16.06720542907715, -1.107421875, 0.4658203125, -0.04736328125, 0, 
395, 3632517188, -0.13881884515285492, -0.6590288281440735, 0.14134232699871063, -0.7255915999412537, 9.226449012756348, -0.40769338607788086, 0.26182204484939575, -22.778100967407227, 6.497413635253906, 14.617745399475098, -1.10693359375, 0.46728515625, -0.04541015625, 0, 
396, 3632525521, -0.13943049311637878, -0.658195972442627, 0.14325973391532898, -0.7258543372154236, 9.131977081298828, -0.6898285746574402, 0.36896514892578125, -25.821510314941406, 8.672730445861816, 13.492616653442383, -1.1083984375, 0.47119140625, -0.04736328125, 0, 
397, 3632533854, -0.14016997814178467, -0.6576504707336426, 0.1450185328722, -0.7258570790290833, 8.996927261352539, -0.669437050819397, 0.4932900667190552, -25.641132354736328, 4.115774631500244, 9.600247383117676, -1.10791015625, 0.47119140625, -0.0478515625, 0, 
398, 3632542187, -0.14097557961940765, -0.6572690010070801, 0.14673247933387756, -0.725702166557312, 8.963239669799805, -0.6454466581344604, 0.25422224402427673, -25.504199981689453, 1.1606072187423706, 8.019720077514648, -1.10595703125, 0.4736328125, -0.04736328125, 0, 
399, 3632550520, -0.14182958006858826, -0.6568804979324341, 0.1485212743282318, -0.7255236506462097, 9.111634254455566, -0.7917786836624146, 0.1616707295179367, -27.036907196044922, 1.0850708484649658, 8.066644668579102, -1.109375, 0.4755859375, -0.04833984375, 0, 
400, 3632558853, -0.14284710586071014, -0.6564282178878784, 0.1502295881509781, -0.7253816723823547, 9.106797218322754, -0.9014675617218018, 0.2192118614912033, -27.47219467163086, 2.4267709255218506, 6.024318218231201, -1.10693359375, 0.47802734375, -0.04736328125, 0, 
401, 3632567186, -0.14385217428207397, -0.6562247276306152, 0.15190662443637848, -0.7250176072120667, 9.076284408569336, -0.6271317005157471, 0.3820137679576874, -27.272480010986328, -1.9058157205581665, 4.804696083068848, -1.107421875, 0.47900390625, -0.044921875, 0, 
402, 3632575519, -0.14494508504867554, -0.6560714244842529, 0.15360185503959656, -0.7245813608169556, 9.118088722229004, -0.935680627822876, 0.09335912764072418, -28.044265747070312, -3.0264394283294678, 3.9587340354919434, -1.10546875, 0.478515625, -0.0458984375, 0, 
403, 3632583852, -0.1461162269115448, -0.6557366251945496, 0.15509672462940216, -0.7243308424949646, 9.209053993225098, -1.0239570140838623, 0.05708993971347809, -26.987777709960938, 1.1413965225219727, 2.0105395317077637, -1.1064453125, 0.48193359375, -0.0458984375, 0, 
404, 3632592185, -0.1474514603614807, -0.6551615595817566, 0.15659360587596893, -0.7242586016654968, 9.264412879943848, -1.3412928581237793, 0.24351602792739868, -28.325075149536133, 5.366724014282227, 1.3766379356384277, -1.10791015625, 0.48095703125, -0.04150390625, 0, 
405, 3632600518, -0.14888378977775574, -0.6546265482902527, 0.15814581513404846, -0.7241119742393494, 9.200809478759766, -1.588639497756958, 0.36712896823883057, -30.05370330810547, 4.516484260559082, 0.5634623169898987, -1.10888671875, 0.48046875, -0.041015625, 0, 
406, 3632608851, -0.1504647433757782, -0.6541273593902588, 0.15981481969356537, -0.723869800567627, 9.212416648864746, -1.584370493888855, 0.29267093539237976, -32.46582794189453, 3.2631285190582275, -0.029853416606783867, -1.10888671875, 0.4814453125, -0.04345703125, 0, 
407, 3632617184, -0.15204696357250214, -0.6536250710487366, 0.1614818423986435, -0.7236230373382568, 9.192761421203613, -1.6630765199661255, 0.29431062936782837, -32.727500915527344, 3.381978750228882, -0.17759646475315094, -1.107421875, 0.4794921875, -0.04052734375, 0, 
408, 3632625517, -0.15359747409820557, -0.6533195972442627, 0.1629645824432373, -0.7232390642166138, 9.144071578979492, -1.682175636291504, 0.4187052249908447, -30.249040603637695, 0.38467487692832947, -2.1273791790008545, -1.10791015625, 0.4814453125, -0.03857421875, 0, 
409, 3632633850, -0.15512971580028534, -0.6532948017120361, 0.1643892526626587, -0.7226114869117737, 9.20229721069336, -1.6376110315322876, 0.17901718616485596, -29.70069122314453, -4.393088340759277, -3.726529121398926, -1.111328125, 0.47998046875, -0.03759765625, 0, 
410, 3632642183, -0.1563786268234253, -0.6532343626022339, 0.16549456119537354, -0.7221445441246033, 9.322713851928711, -1.5571681261062622, -0.14041060209274292, -23.453392028808594, -2.6771368980407715, -3.2406506538391113, -1.1123046875, 0.47802734375, -0.03466796875, 0, 
411, 3632650516, -0.15758070349693298, -0.6528061628341675, 0.16647623479366302, -0.7220447063446045, 9.360284805297852, -1.6410677433013916, -0.25263622403144836, -21.982288360595703, 4.557312488555908, -2.375990629196167, -1.111328125, 0.4755859375, -0.03271484375, 0, 
412, 3632658849, -0.1588497757911682, -0.6519932150840759, 0.16727881133556366, -0.7223156690597534, 9.321560859680176, -1.7450059652328491, -0.08253152668476105, -20.568561553955078, 12.121583938598633, -2.8494441509246826, -1.1123046875, 0.48095703125, -0.03466796875, 0, 
413, 3632667182, -0.16009855270385742, -0.6510905623435974, 0.16803768277168274, -0.7226780652999878, 9.17276668548584, -1.8009310960769653, 0.1080985888838768, -20.172027587890625, 14.009893417358398, -2.752878427505493, -1.111328125, 0.47802734375, -0.03564453125, 0, 
414, 3632675515, -0.1613234281539917, -0.6502313613891602, 0.16875691711902618, -0.7230114936828613, 8.967887878417969, -1.7587183713912964, 0.17403090000152588, -19.302038192749023, 13.222176551818848, -2.9143764972686768, -1.11328125, 0.4775390625, -0.03857421875, 0, 
415, 3632683848, -0.16251572966575623, -0.6495336890220642, 0.16938571631908417, -0.7232245206832886, 8.703838348388672, -1.5899399518966675, 0.10518398880958557, -18.248369216918945, 10.795327186584473, -4.163762092590332, -1.11572265625, 0.47607421875, -0.037109375, 0, 
416, 3632692181, -0.16380570828914642, -0.6489195823669434, 0.16999071836471558, -0.7233428359031677, 8.52249813079834, -1.390210747718811, -0.15943239629268646, -18.702177047729492, 9.268259048461914, -5.632277965545654, -1.11279296875, 0.47998046875, -0.0419921875, 0, 
417, 3632700514, -0.16510188579559326, -0.6482364535331726, 0.17058028280735016, -0.7235218286514282, 8.2977876663208, -1.2452572584152222, -0.35864007472991943, -18.599668502807617, 10.671124458312988, -5.635684967041016, -1.1123046875, 0.4775390625, -0.0390625, 0, 
418, 3632708847, -0.16650494933128357, -0.6475264430046082, 0.1709500253200531, -0.7237487435340881, 8.058318138122559, -1.0406876802444458, -0.5047997236251831, -17.330612182617188, 11.988850593566895, -8.384143829345703, -1.11328125, 0.47216796875, -0.03564453125, 0, 
419, 3632717180, -0.16782861948013306, -0.6469018459320068, 0.1709659993648529, -0.7239977121353149, 7.764466285705566, -0.9052801728248596, -0.5042921900749207, -13.069425582885742, 12.094303131103516, -11.022257804870605, -1.11572265625, 0.47265625, -0.0439453125, 0, 
420, 3632725513, -0.1690998077392578, -0.6466463208198547, 0.17076532542705536, -0.7239774465560913, 7.439333915710449, -0.718440055847168, -0.6019194722175598, -10.014335632324219, 6.267676830291748, -13.787236213684082, -1.11767578125, 0.47119140625, -0.04345703125, 0, 
421, 3632733846, -0.1701623797416687, -0.6470221281051636, 0.17033495008945465, -0.7234942317008972, 7.3077473640441895, -0.6392104029655457, -0.7581400871276855, -5.473264217376709, -3.958847761154175, -16.418460845947266, -1.1220703125, 0.46728515625, -0.04248046875, 0, 
422, 3632742179, -0.17106378078460693, -0.647893488407135, 0.16982606053352356, -0.7226208448410034, 7.552296161651611, -0.6744689345359802, -0.9633248448371887, -3.0296146869659424, -12.685187339782715, -17.480710983276367, -1.11962890625, 0.462890625, -0.0400390625, 0, 
423, 3632750512, -0.1718381941318512, -0.6490327715873718, 0.16905631124973297, -0.7215944528579712, 7.731016159057617, -0.8990687131881714, -1.3794363737106323, 0.9831261038780212, -16.25932502746582, -19.63602638244629, -1.1220703125, 0.458984375, -0.03515625, 0, 
424, 3632758845, -0.17254534363746643, -0.650133490562439, 0.1679733246564865, -0.720687210559845, 8.297904014587402, -1.2245354652404785, -1.1296050548553467, 4.85869026184082, -14.362844467163086, -21.285734176635742, -1.12353515625, 0.455078125, -0.03466796875, 0, 
425, 3632767178, -0.1732780933380127, -0.6511638760566711, 0.16684800386428833, -0.7198421359062195, 9.000297546386719, -1.7369873523712158, -0.8277325630187988, 5.0450849533081055, -12.812798500061035, -21.714902877807617, -1.123046875, 0.451171875, -0.03076171875, 0, 
426, 3632775511, -0.17402204871177673, -0.6523088812828064, 0.16580045223236084, -0.718867301940918, 9.66279125213623, -2.197655200958252, -0.6684945821762085, 4.132424354553223, -15.40788459777832, -21.596132278442383, -1.1240234375, 0.44775390625, -0.02685546875, 0, 
427, 3632783844, -0.17435677349567413, -0.6536009311676025, 0.1644701510667801, -0.7179173827171326, 10.261825561523438, -2.607372522354126, -0.4107432961463928, 10.76464557647705, -16.748403549194336, -20.495487213134766, -1.12646484375, 0.443359375, -0.02392578125, 0, 
428, 3632792177, -0.17459918558597565, -0.654941976070404, 0.1630145013332367, -0.7169676423072815, 10.70843505859375, -2.9080922603607178, -0.34577104449272156, 13.19326114654541, -17.284791946411133, -20.686492919921875, -1.12255859375, 0.44140625, -0.0234375, 0, 
429, 3632800510, -0.1746319830417633, -0.6563027501106262, 0.16141408681869507, -0.7160770893096924, 11.06722640991211, -2.8258187770843506, -0.44145262241363525, 16.43039321899414, -16.921558380126953, -19.966066360473633, -1.12646484375, 0.435546875, -0.01708984375, 0, 
430, 3632808843, -0.17436350882053375, -0.6577955484390259, 0.15949247777462006, -0.7152027487754822, 11.229480743408203, -2.4095802307128906, -0.8779295682907104, 22.921642303466797, -18.1187744140625, -20.012821197509766, -1.126953125, 0.43017578125, -0.02099609375, 0, 
431, 3632817176, -0.17377594113349915, -0.6591176986694336, 0.15747107565402985, -0.7145761847496033, 11.095293998718262, -2.2017927169799805, -1.0301926136016846, 26.629945755004883, -14.514129638671875, -16.95903778076172, -1.12841796875, 0.4287109375, -0.0166015625, 0, 
432, 3632825509, -0.17313933372497559, -0.6603636145591736, 0.1557372808456421, -0.7139601111412048, 11.088190078735352, -1.730259895324707, -1.1941291093826294, 24.381240844726562, -14.609387397766113, -13.530003547668457, -1.12841796875, 0.42236328125, -0.01806640625, 0, 
433, 3632833842, -0.172498881816864, -0.6616451144218445, 0.15420520305633545, -0.7132608890533447, 10.682610511779785, -0.9140285849571228, -1.6754274368286133, 22.0620174407959, -16.053823471069336, -12.088505744934082, -1.1298828125, 0.4208984375, -0.01611328125, 0, 
434, 3632842175, -0.1714109182357788, -0.6626315116882324, 0.15281176567077637, -0.7129074335098267, 10.840322494506836, -0.5088611841201782, -1.982914924621582, 25.088781356811523, -11.439980506896973, -4.839211940765381, -1.13330078125, 0.41796875, -0.01953125, 0, 
435, 3632850508, -0.17014557123184204, -0.6633911728858948, 0.151728555560112, -0.7127352952957153, 10.612838745117188, -0.268934965133667, -2.3258252143859863, 23.227230072021484, -8.515878677368164, 0.4732488691806793, -1.1337890625, 0.41552734375, -0.01611328125, 0, 
436, 3632858841, -0.1686857044696808, -0.6640070676803589, 0.15062248706817627, -0.7127435207366943, 10.43335247039795, -0.28885284066200256, -2.9299209117889404, 25.547447204589844, -5.967133522033691, 3.0516560077667236, -1.1337890625, 0.41845703125, -0.02001953125, 0, 
437, 3632867174, -0.16695713996887207, -0.6646304130554199, 0.14909738302230835, -0.7128900289535522, 10.36328125, -0.4940854012966156, -3.2098474502563477, 32.09492111206055, -4.2030558586120605, 2.0019078254699707, -1.1328125, 0.41162109375, -0.0166015625, 0, 
438, 3632875507, -0.16522157192230225, -0.6653845310211182, 0.1471577286720276, -0.7129940986633301, 10.429824829101562, -0.6903030872344971, -3.563277244567871, 36.753395080566406, -5.094178199768066, -1.9207497835159302, -1.13525390625, 0.4150390625, -0.01904296875, 0, 
439, 3632883840, -0.1635684370994568, -0.6661882996559143, 0.14487551152706146, -0.7130918502807617, 10.653151512145996, -0.604543149471283, -3.8131134510040283, 39.1381950378418, -4.529435157775879, -6.143928527832031, -1.1298828125, 0.41162109375, -0.01904296875, 0, 
440, 3632892173, -0.16264335811138153, -0.666485607624054, 0.14282169938087463, -0.7134398221969604, 10.904756546020508, -0.69353187084198, -3.328226327896118, 29.908899307250977, 3.5010082721710205, -9.453364372253418, -1.13037109375, 0.41259765625, -0.021484375, 0, 
441, 3632900506, -0.16270923614501953, -0.6664804220199585, 0.1419152021408081, -0.7136107087135315, 11.944332122802734, -0.8103430867195129, -1.496778130531311, 8.183159828186035, 4.399296760559082, -8.633650779724121, -1.13134765625, 0.41064453125, -0.0205078125, 0, 
442, 3632908839, -0.16331186890602112, -0.6661875247955322, 0.14302945137023926, -0.7135241627693176, 15.045573234558105, -1.124096155166626, 1.7811845541000366, -17.3493595123291, 1.2168558835983276, 4.775443077087402, -1.13037109375, 0.41015625, -0.021484375, 0, 
