PacketCounter,SampleTimeFine,Quat_W,Quat_X,Quat_Y,Quat_Z,Acc_X,Acc_Y,Acc_Z,Gyr_X,Gyr_Y,Gyr_Z,Mag_X,Mag_Y,Mag_Z,Status,
0, 1039420916, 0.5409778952598572, 0.46282652020454407, -0.5273045301437378, 0.46377992630004883, 0, 0, 0, 0, 0, 0, -1.0078125, 0.23291015625, -0.2294921875, 0, 
1, 1039429249, 0.5410667657852173, 0.4627836346626282, -0.5273149013519287, 0.4637073576450348, 9.9082612991333, 0.08348266780376434, 0.09329794347286224, -1.6781169176101685, 0.8377776741981506, -0.6061353087425232, -1.01171875, 0.236328125, -0.22900390625, 0, 
2, 1039437582, 0.5411394238471985, 0.46275976300239563, -0.5273274183273315, 0.46363210678100586, 9.911580085754395, 0.11412332206964493, 0.15714827179908752, -1.4030709266662598, 0.5722348093986511, -0.6710929274559021, -1.0078125, 0.23193359375, -0.2294921875, 0, 
3, 1039445915, 0.5412123799324036, 0.4627503454685211, -0.5273341536521912, 0.4635486602783203, 9.884337425231934, 0.08910367637872696, 0.1325431764125824, -1.3832966089248657, 0.46747249364852905, -0.8514170050621033, -1.0107421875, 0.2353515625, -0.22900390625, 0, 
4, 1039454248, 0.5412863492965698, 0.46274203062057495, -0.5273351073265076, 0.4634696841239929, 9.880921363830566, 0.11837402731180191, 0.19494310021400452, -1.3379852771759033, 0.5444434285163879, -0.8942698240280151, -1.00634765625, 0.232421875, -0.2294921875, 0, 
5, 1039462581, 0.541348397731781, 0.4627411663532257, -0.5273404121398926, 0.4633919596672058, 9.887517929077148, 0.15182624757289886, 0.1798582375049591, -1.199360966682434, 0.38064032793045044, -0.8115358352661133, -1.0078125, 0.23583984375, -0.23193359375, 0, 
6, 1039470914, 0.5413975715637207, 0.4627458453178406, -0.5273482203483582, 0.4633210599422455, 9.918368339538574, 0.13850049674510956, 0.16769839823246002, -1.0540001392364502, 0.2809496819972992, -0.724959671497345, -1.009765625, 0.23486328125, -0.228515625, 0, 
7, 1039479247, 0.5414289832115173, 0.46274590492248535, -0.5273580551147461, 0.4632730185985565, 9.922523498535156, 0.1268630027770996, 0.14102524518966675, -0.8114590048789978, 0.3093303442001343, -0.3724566102027893, -1.01123046875, 0.23388671875, -0.22705078125, 0, 
8, 1039487580, 0.5414820909500122, 0.46270930767059326, -0.5273361206054688, 0.4632725119590759, 9.936136245727539, 0.12973083555698395, 0.1613037884235382, -0.6432502865791321, 1.2423800230026245, -0.11698020994663239, -1.0087890625, 0.232421875, -0.22802734375, 0, 
9, 1039495913, 0.5415361523628235, 0.4626690149307251, -0.5272937417030334, 0.46329784393310547, 9.949090003967285, 0.12591148912906647, 0.17885683476924896, -0.38997673988342285, 1.586020588874817, -0.010681135579943657, -1.0107421875, 0.234375, -0.2314453125, 0, 
10, 1039504246, 0.5415745973587036, 0.46262654662132263, -0.5272389054298401, 0.46335774660110474, 9.939652442932129, 0.11975055932998657, 0.1881079524755478, 0.015483805909752846, 1.8035368919372559, 0.2586909830570221, -1.01171875, 0.23828125, -0.2275390625, 0, 
11, 1039512579, 0.5416052937507629, 0.46258997917175293, -0.5271847248077393, 0.463420033454895, 9.947997093200684, 0.10752188414335251, 0.1970933973789215, 0.12919817864894867, 1.7152315378189087, 0.31336450576782227, -1.01220703125, 0.23193359375, -0.22802734375, 0, 
12, 1039520912, 0.5416309237480164, 0.4625495672225952, -0.5271503925323486, 0.4634694457054138, 9.956549644470215, 0.08861657232046127, 0.17673960328102112, 0.08917596191167831, 1.4795423746109009, 0.37930840253829956, -1.00830078125, 0.2353515625, -0.22998046875, 0, 
13, 1039529245, 0.5416083931922913, 0.4625200033187866, -0.5271466970443726, 0.46352940797805786, 10.004366874694824, 0.1181219294667244, 0.2064380943775177, 0.1799784153699875, 0.8933860063552856, 0.9032731056213379, -1.00830078125, 0.23779296875, -0.228515625, 0, 
14, 1039537578, 0.5415788292884827, 0.4624657928943634, -0.527178943157196, 0.46358129382133484, 10.014886856079102, 0.16123215854167938, 0.2005012333393097, -0.2476896345615387, 0.685705840587616, 1.2731939554214478, -1.01123046875, 0.2353515625, -0.22802734375, 0, 
15, 1039545911, 0.5415933132171631, 0.4623708128929138, -0.527198314666748, 0.4636370539665222, 9.991927146911621, 0.11456675827503204, 0.21720072627067566, -0.7188123464584351, 1.3801846504211426, 1.2570570707321167, -1.01025390625, 0.23486328125, -0.2333984375, 0, 
16, 1039554244, 0.5416623950004578, 0.4622156023979187, -0.5271972417831421, 0.46371233463287354, 9.980781555175781, 0.04850570484995842, 0.16268426179885864, -1.1013609170913696, 2.4451732635498047, 1.3383309841156006, -1.01025390625, 0.2353515625, -0.23095703125, 0, 
17, 1039562577, 0.5417494177818298, 0.4620451331138611, -0.5271961688995361, 0.4637816846370697, 9.944241523742676, 0.008767999708652496, 0.2552438974380493, -1.515286922454834, 2.625446319580078, 1.3134338855743408, -1.009765625, 0.23583984375, -0.234375, 0, 
18, 1039570910, 0.5418330430984497, 0.46185436844825745, -0.527218222618103, 0.4638492166996002, 9.912446022033691, 0.015891628339886665, 0.2946067154407501, -1.722967267036438, 2.554802656173706, 1.593397617340088, -1.01220703125, 0.23486328125, -0.23193359375, 0, 
19, 1039579243, 0.5418724417686462, 0.4616793990135193, -0.5272528529167175, 0.4639381170272827, 9.848852157592773, 0.06260909885168076, 0.2696378827095032, -1.331453561782837, 2.167668581008911, 2.0220773220062256, -1.00927734375, 0.23583984375, -0.23095703125, 0, 
20, 1039587576, 0.5418680310249329, 0.4615079164505005, -0.5272996425628662, 0.4640604555606842, 9.824271202087402, 0.06142755225300789, 0.19493043422698975, -0.9781820178031921, 1.9526116847991943, 2.5780601501464844, -1.00927734375, 0.23486328125, -0.232421875, 0, 
21, 1039595909, 0.5418248772621155, 0.4613102972507477, -0.52738356590271, 0.46421191096305847, 9.836929321289062, 0.12528817355632782, 0.17520259320735931, -0.8362792134284973, 1.7432407140731812, 3.4924111366271973, -1.00830078125, 0.2353515625, -0.232421875, 0, 
22, 1039604242, 0.5417585968971252, 0.46106797456741333, -0.5275232195854187, 0.4643714427947998, 9.887256622314453, 0.17261789739131927, 0.14144696295261383, -1.3496397733688354, 1.5003668069839478, 4.354894161224365, -1.00634765625, 0.23388671875, -0.2333984375, 0, 
23, 1039612575, 0.5417044758796692, 0.4607473611831665, -0.5277115702629089, 0.4645389914512634, 9.913500785827637, 0.1474495381116867, 0.17971733212471008, -2.2326135635375977, 1.7734400033950806, 5.23574161529541, -1.0068359375, 0.23974609375, -0.23291015625, 0, 
24, 1039620908, 0.5416269302368164, 0.46042782068252563, -0.5279070734977722, 0.4647238254547119, 9.957545280456543, 0.10540977120399475, 0.16202659904956818, -1.8002454042434692, 1.659226417541504, 5.5310492515563965, -1.005859375, 0.23681640625, -0.23193359375, 0, 
25, 1039629241, 0.5415260195732117, 0.4600634276866913, -0.5281693935394287, 0.46490418910980225, 10.011595726013184, 0.06194789707660675, 0.14417371153831482, -2.6414167881011963, 1.2453513145446777, 6.417223930358887, -1.0078125, 0.23779296875, -0.2353515625, 0, 
26, 1039637574, 0.5414494276046753, 0.4596523642539978, -0.5284660458564758, 0.46506261825561523, 10.030383110046387, 0.036236926913261414, 0.10117799043655396, -3.5481865406036377, 1.3275474309921265, 6.631180286407471, -1.01025390625, 0.24169921875, -0.23046875, 0, 
27, 1039645907, 0.5414662957191467, 0.45915213227272034, -0.5287524461746216, 0.46521151065826416, 10.039680480957031, -0.10456757992506027, 0.11688809841871262, -4.781895637512207, 2.5919172763824463, 6.56926965713501, -1.009765625, 0.24267578125, -0.23193359375, 0, 
28, 1039654240, 0.5415584444999695, 0.45858949422836304, -0.5290278196334839, 0.46534663438796997, 9.985451698303223, -0.20751367509365082, 0.18929913640022278, -5.962072849273682, 3.536186695098877, 6.343942642211914, -1.005859375, 0.2412109375, -0.22900390625, 0, 
29, 1039662573, 0.541674792766571, 0.4580179750919342, -0.5293241739273071, 0.46543702483177185, 9.964813232421875, -0.23471680283546448, 0.21606478095054626, -6.43060827255249, 3.3262264728546143, 6.077169895172119, -1.005859375, 0.24658203125, -0.23291015625, 0, 
30, 1039670906, 0.541851282119751, 0.4574100971221924, -0.5296175479888916, 0.46549558639526367, 9.925548553466797, -0.34648433327674866, 0.25461405515670776, -6.9251532554626465, 3.823615550994873, 5.682620048522949, -1.0068359375, 0.2470703125, -0.2314453125, 0, 
31, 1039679239, 0.5420638918876648, 0.4568088948726654, -0.5298919677734375, 0.4655260443687439, 9.929204940795898, -0.4078226685523987, 0.22583027184009552, -7.552767753601074, 4.003313064575195, 5.094274997711182, -1.0087890625, 0.24755859375, -0.234375, 0, 
32, 1039687572, 0.5423125624656677, 0.456203430891037, -0.5301186442375183, 0.4655720591545105, 9.915205001831055, -0.44715192914009094, 0.26003849506378174, -7.647540092468262, 4.7505574226379395, 4.684907913208008, -1.00732421875, 0.248046875, -0.2333984375, 0, 
33, 1039695905, 0.5425589084625244, 0.45560553669929504, -0.530352771282196, 0.4656039774417877, 9.887961387634277, -0.4501405358314514, 0.29770228266716003, -7.471032619476318, 4.537805080413818, 4.6102166175842285, -1.00244140625, 0.2490234375, -0.23486328125, 0, 
34, 1039704238, 0.5427656173706055, 0.45502227544784546, -0.5306204557418823, 0.46562817692756653, 9.89353084564209, -0.38882341980934143, 0.3400481939315796, -7.377872943878174, 3.860257387161255, 4.88651704788208, -1.0078125, 0.24658203125, -0.23779296875, 0, 
35, 1039712571, 0.5429662466049194, 0.4544672966003418, -0.5308400988578796, 0.4656858742237091, 9.921028137207031, -0.34258028864860535, 0.31263095140457153, -6.5832438468933105, 4.199646472930908, 4.691747188568115, -1.00439453125, 0.2529296875, -0.23486328125, 0, 
36, 1039720904, 0.5431747436523438, 0.45390769839286804, -0.5309975147247314, 0.4658091366291046, 9.929079055786133, -0.2845231294631958, 0.3518093228340149, -6.061443328857422, 5.1635236740112305, 4.7484450340271, -1.00341796875, 0.25146484375, -0.23486328125, 0, 
37, 1039729237, 0.5434096455574036, 0.4533228278160095, -0.5311582088470459, 0.4659213721752167, 9.875540733337402, -0.22913549840450287, 0.32589462399482727, -6.24434232711792, 5.422035217285156, 4.729477405548096, -1.00537109375, 0.25146484375, -0.23388671875, 0, 
38, 1039737570, 0.5436862111091614, 0.4527147114276886, -0.531324565410614, 0.46600067615509033, 9.829834938049316, -0.2729478180408478, 0.42454105615615845, -6.916023254394531, 5.631943225860596, 4.397772312164307, -1.0048828125, 0.25244140625, -0.236328125, 0, 
39, 1039745903, 0.5440395474433899, 0.45206549763679504, -0.5315316319465637, 0.4659823477268219, 9.763815879821777, -0.4001148045063019, 0.39015519618988037, -8.71529483795166, 5.539245128631592, 3.7530877590179443, -1.00830078125, 0.25439453125, -0.236328125, 0, 
40, 1039754236, 0.5444400906562805, 0.4514111876487732, -0.5317679643630981, 0.46587881445884705, 9.670830726623535, -0.5484846830368042, 0.38844507932662964, -9.847110748291016, 5.17349910736084, 3.0081231594085693, -0.99951171875, 0.2548828125, -0.23681640625, 0, 
41, 1039762569, 0.5448600053787231, 0.45080405473709106, -0.5320329070091248, 0.46567314863204956, 9.660574913024902, -0.6941664218902588, 0.4546833336353302, -10.554422378540039, 4.158970832824707, 1.9765865802764893, -1.00439453125, 0.25634765625, -0.2373046875, 0, 
42, 1039770902, 0.5452693700790405, 0.4502656161785126, -0.5323264598846436, 0.46537965536117554, 9.702461242675781, -0.8822382688522339, 0.454687237739563, -10.899126052856445, 2.8887991905212402, 1.0334831476211548, -1.00048828125, 0.2578125, -0.2392578125, 0, 
43, 1039779235, 0.5456987619400024, 0.4497672915458679, -0.5326157808303833, 0.46502724289894104, 9.734947204589844, -1.040829062461853, 0.407869428396225, -11.02665901184082, 2.441523551940918, 0.1714104861021042, -1.0009765625, 0.25830078125, -0.23828125, 0, 
44, 1039787568, 0.5461143255233765, 0.4493655562400818, -0.5328667759895325, 0.4646400213241577, 9.769048690795898, -1.1110714673995972, 0.36044418811798096, -10.023721694946289, 1.7971079349517822, -0.9712151288986206, -1.0029296875, 0.26171875, -0.23779296875, 0, 
45, 1039795901, 0.5465987324714661, 0.4490073323249817, -0.5330138206481934, 0.46424803137779236, 9.644659996032715, -1.2006633281707764, 0.2774288058280945, -9.697011947631836, 2.7711405754089355, -2.383148431777954, -1.00390625, 0.25927734375, -0.2373046875, 0, 
46, 1039804234, 0.5471396446228027, 0.44872012734413147, -0.5329962968826294, 0.46390852332115173, 9.533233642578125, -1.1605783700942993, 0.2920484244823456, -8.233325004577637, 4.297966480255127, -3.9181714057922363, -1.0029296875, 0.2578125, -0.2373046875, 0, 
47, 1039812567, 0.5476446151733398, 0.44851332902908325, -0.5329065918922424, 0.46361565589904785, 9.5271635055542, -1.131112813949585, 0.3376365900039673, -6.447052478790283, 4.347978115081787, -4.340358257293701, -1.00439453125, 0.25927734375, -0.23828125, 0, 
48, 1039820900, 0.5479997992515564, 0.4484843909740448, -0.5328069925308228, 0.46333813667297363, 9.516372680664062, -1.0691537857055664, 0.3382057845592499, -3.9937713146209717, 2.287261486053467, -4.6646342277526855, -1.0009765625, 0.25830078125, -0.23876953125, 0, 
49, 1039829233, 0.5482351183891296, 0.4485703110694885, -0.5326787233352661, 0.46312403678894043, 9.549532890319824, -1.026269793510437, 0.3189234733581543, -1.7555739879608154, 1.2829530239105225, -4.411693572998047, -1.00146484375, 0.25830078125, -0.23828125, 0, 
50, 1039837566, 0.5483725070953369, 0.44871121644973755, -0.5325166583061218, 0.463011234998703, 9.59829330444336, -0.9803958535194397, 0.3690180480480194, 0.3369680941104889, 1.0969935655593872, -3.6674718856811523, -1.00390625, 0.25830078125, -0.240234375, 0, 
51, 1039845899, 0.5484177470207214, 0.4489043354988098, -0.5323547124862671, 0.4629566967487335, 9.617302894592285, -0.9654850959777832, 0.3636024296283722, 1.6077032089233398, 0.44765999913215637, -2.9890406131744385, -1.0029296875, 0.25439453125, -0.2333984375, 0, 
52, 1039854232, 0.5483264923095703, 0.4491751492023468, -0.5322280526161194, 0.4629475772380829, 9.562402725219727, -0.9815516471862793, 0.3298267126083374, 3.292491912841797, -1.0316132307052612, -2.1622509956359863, -1.001953125, 0.25634765625, -0.23681640625, 0, 
53, 1039862565, 0.5481098294258118, 0.4495159685611725, -0.532092809677124, 0.46302881836891174, 9.622770309448242, -0.9254404902458191, 0.29180091619491577, 5.164022445678711, -1.7733248472213745, -1.2164969444274902, -1.00390625, 0.25634765625, -0.24072265625, 0, 
54, 1039870898, 0.5477677583694458, 0.44988495111465454, -0.532005250453949, 0.4631759226322174, 9.604301452636719, -0.8209007978439331, 0.2771347761154175, 6.382670879364014, -2.820511817932129, 0.1321822851896286, -1.00732421875, 0.25439453125, -0.236328125, 0, 
55, 1039879231, 0.5473434925079346, 0.4502916634082794, -0.5319333672523499, 0.463364839553833, 9.657498359680176, -0.743941605091095, 0.2074669897556305, 7.328065872192383, -3.5237245559692383, 0.8267122507095337, -1.0029296875, 0.255859375, -0.2373046875, 0, 
56, 1039887564, 0.5468765497207642, 0.45071840286254883, -0.5318467617034912, 0.46360066533088684, 9.815030097961426, -0.6833198070526123, 0.19349117577075958, 8.48652172088623, -3.5609683990478516, 1.1814440488815308, -1.00244140625, 0.25341796875, -0.23681640625, 0, 
57, 1039895897, 0.5464168190956116, 0.45113974809646606, -0.5317113995552063, 0.4638882279396057, 9.88705825805664, -0.6531617045402527, 0.3323729336261749, 8.783160209655762, -2.788750171661377, 1.2947100400924683, -1.00439453125, 0.25341796875, -0.23486328125, 0, 
58, 1039904230, 0.5459344387054443, 0.4515872895717621, -0.5315907597541809, 0.4641589820384979, 9.872171401977539, -0.5982605814933777, 0.4531117379665375, 8.97944164276123, -3.3317201137542725, 1.1741949319839478, -1.001953125, 0.25341796875, -0.23291015625, 0, 
59, 1039912563, 0.5453628897666931, 0.45208996534347534, -0.5315141081809998, 0.46442916989326477, 9.969943046569824, -0.5007544755935669, 0.5137186646461487, 9.586653709411621, -4.672984600067139, 1.6490318775177002, -1.0078125, 0.255859375, -0.234375, 0, 
60, 1039920896, 0.5447272658348083, 0.4525926113128662, -0.5315211415290833, 0.4646773338317871, 10.136802673339844, -0.4269532561302185, 0.6347597241401672, 9.106130599975586, -5.903133869171143, 2.3685615062713623, -1.00634765625, 0.2548828125, -0.23291015625, 0, 
61, 1039929229, 0.5440992712974548, 0.45303019881248474, -0.5315541625022888, 0.4649488627910614, 10.31229305267334, -0.33367204666137695, 0.6651347279548645, 8.759775161743164, -5.483675479888916, 3.1756913661956787, -1.0048828125, 0.25390625, -0.2353515625, 0, 
62, 1039937562, 0.5435507893562317, 0.45335066318511963, -0.5315734148025513, 0.465256005525589, 10.380868911743164, -0.2806887626647949, 0.7082057595252991, 7.645798206329346, -3.82877779006958, 3.6607868671417236, -1.00537109375, 0.25390625, -0.234375, 0, 
63, 1039945895, 0.5430997610092163, 0.45360150933265686, -0.5315345525741577, 0.4655824303627014, 10.375349998474121, -0.23907381296157837, 0.7978397607803345, 7.12114143371582, -2.1164145469665527, 3.371960163116455, -1.001953125, 0.25341796875, -0.234375, 0, 
64, 1039954228, 0.5427207350730896, 0.45375755429267883, -0.5315325856208801, 0.46587419509887695, 10.338231086730957, -0.29915595054626465, 0.8270135521888733, 5.476912498474121, -1.4740350246429443, 3.532381772994995, -1.00390625, 0.25439453125, -0.23388671875, 0, 
65, 1039962561, 0.5423678159713745, 0.45393624901771545, -0.5315385460853577, 0.46610429883003235, 10.362177848815918, -0.3228086233139038, 0.800562858581543, 4.97747278213501, -1.873399257659912, 2.832460403442383, -1.00830078125, 0.25390625, -0.23486328125, 0, 
66, 1039970894, 0.5420961976051331, 0.45415547490119934, -0.5314611196517944, 0.46629512310028076, 10.322240829467773, -0.3827125132083893, 0.8147664070129395, 5.010592460632324, -1.162834882736206, 1.156520962715149, -1.00146484375, 0.2568359375, -0.23095703125, 0, 
67, 1039979227, 0.5418746471405029, 0.454456627368927, -0.5312516689300537, 0.46649765968322754, 10.271699905395508, -0.4087717831134796, 0.9580560326576233, 6.2522430419921875, -0.26249465346336365, -0.4569579064846039, -1.001953125, 0.25390625, -0.2333984375, 0, 
68, 1039987560, 0.5416878461837769, 0.45486897230148315, -0.530931830406189, 0.46667712926864624, 10.309481620788574, -0.3801409900188446, 1.0515851974487305, 7.2830119132995605, -0.04679721221327782, -2.39823579788208, -1.0029296875, 0.25537109375, -0.2333984375, 0, 
69, 1039995893, 0.5415196418762207, 0.45540979504585266, -0.5306323170661926, 0.46668559312820435, 10.340312957763672, -0.39709562063217163, 1.0753625631332397, 6.863935947418213, -1.9546477794647217, -4.556541442871094, -1.00439453125, 0.25537109375, -0.23291015625, 0, 
70, 1040004226, 0.5413979291915894, 0.45608800649642944, -0.5302551984786987, 0.4665929675102234, 10.318598747253418, -0.3451490104198456, 0.9389091730117798, 7.39274263381958, -2.5575814247131348, -7.140378475189209, -1.0048828125, 0.25048828125, -0.2275390625, 0, 
71, 1040012559, 0.5414276719093323, 0.4567515254020691, -0.5297590494155884, 0.46647292375564575, 10.156702041625977, -0.4752954840660095, 0.990538477897644, 6.8603129386901855, -0.6389855742454529, -8.912665367126465, -1.00634765625, 0.2490234375, -0.232421875, 0, 
72, 1040020892, 0.5415319204330444, 0.4575548768043518, -0.5291751027107239, 0.46622756123542786, 9.99810791015625, -0.4467373788356781, 1.0388474464416504, 7.129968166351318, -1.1327385902404785, -11.937518119812012, -1.0029296875, 0.248046875, -0.23388671875, 0, 
73, 1040029225, 0.5416522026062012, 0.4584979712963104, -0.5285117030143738, 0.46591368317604065, 9.898754119873047, -0.5117115378379822, 0.9383912682533264, 8.034892082214355, -1.7455592155456543, -14.022797584533691, -1.00537109375, 0.24609375, -0.23291015625, 0, 
74, 1040037558, 0.5417585968971252, 0.4594797194004059, -0.5277784466743469, 0.46565380692481995, 9.775301933288574, -0.471588671207428, 0.7935360670089722, 9.650639533996582, -1.238960862159729, -14.297560691833496, -1.00634765625, 0.24365234375, -0.23583984375, 0, 
75, 1040045891, 0.5417294502258301, 0.46064966917037964, -0.5268198847770691, 0.46561723947525024, 9.713175773620605, -0.3264971375465393, 0.8281466364860535, 14.573264122009277, -0.33226799964904785, -14.509753227233887, -1.0029296875, 0.2392578125, -0.234375, 0, 
76, 1040054224, 0.5415446162223816, 0.46193069219589233, -0.5257871150970459, 0.4657306671142578, 9.690845489501953, -0.12301038950681686, 0.73891282081604, 18.0805721282959, -0.6779323220252991, -13.717940330505371, -1.00390625, 0.23974609375, -0.2314453125, 0, 
77, 1040062557, 0.5410229563713074, 0.4635135233402252, -0.5247846841812134, 0.4658949375152588, 9.758628845214844, 0.11480407416820526, 1.0133476257324219, 22.509010314941406, -4.938901424407959, -13.125728607177734, -1.00634765625, 0.2314453125, -0.2353515625, 0, 
78, 1040070890, 0.5402160882949829, 0.4652436673641205, -0.5238247513771057, 0.46618667244911194, 9.743382453918457, 0.3608054518699646, 0.660839855670929, 26.201589584350586, -7.455399990081787, -11.187806129455566, -1.00830078125, 0.23095703125, -0.2314453125, 0, 
79, 1040079223, 0.539258599281311, 0.46704941987991333, -0.5227680206298828, 0.466675728559494, 9.689579010009766, 0.7113356590270996, 0.499833345413208, 29.63703727722168, -7.034289836883545, -9.873501777648926, -1.0078125, 0.22705078125, -0.234375, 0, 
80, 1040087556, 0.5382635593414307, 0.4687453508377075, -0.5217286944389343, 0.46728670597076416, 9.646419525146484, 0.9104009866714478, 0.306313157081604, 30.09627914428711, -5.952651023864746, -7.874283790588379, -1.00634765625, 0.224609375, -0.2314453125, 0, 
81, 1040095889, 0.5372304320335388, 0.47032031416893005, -0.5208101272583008, 0.467917263507843, 9.674944877624512, 1.0561903715133667, 0.30249273777008057, 28.543867111206055, -6.207947254180908, -5.791792392730713, -1.005859375, 0.2216796875, -0.23193359375, 0, 
82, 1040104222, 0.5360866189002991, 0.4718855917453766, -0.5200797915458679, 0.46846532821655273, 9.811927795410156, 1.2127952575683594, 0.3161506950855255, 27.28554344177246, -8.878822326660156, -4.446480751037598, -1.0087890625, 0.22021484375, -0.2314453125, 0, 
83, 1040112555, 0.5349791049957275, 0.47331297397613525, -0.5195159316062927, 0.4689168930053711, 9.998936653137207, 1.2538042068481445, 0.2904941439628601, 24.37169075012207, -9.56948471069336, -3.2820818424224854, -1.00927734375, 0.2197265625, -0.23193359375, 0, 
84, 1040120888, 0.533918559551239, 0.47469884157180786, -0.5190179944038391, 0.4692760705947876, 10.002220153808594, 1.3635164499282837, 0.22326530516147614, 22.4489803314209, -10.069781303405762, -3.5816657543182373, -1.01025390625, 0.21533203125, -0.23095703125, 0, 
85, 1040129221, 0.5331631898880005, 0.475471168756485, -0.5187926292419434, 0.4696020781993866, 10.3563232421875, 1.126325249671936, 0.40787914395332336, 14.18159294128418, -6.132586479187012, 0.4064595699310303, -1.009765625, 0.2158203125, -0.2294921875, 0, 
86, 1040137554, 0.5328242778778076, 0.4753938913345337, -0.5190750360488892, 0.46975281834602356, 10.345861434936523, 0.9095134139060974, 0.22014467418193817, 0.8724592328071594, -2.5542514324188232, 5.773563861846924, -1.01171875, 0.216796875, -0.228515625, 0, 
87, 1040145887, 0.5326117873191833, 0.47581613063812256, -0.518883466720581, 0.4697781205177307, 10.183822631835938, 1.356812834739685, -0.12111030519008636, 5.70156192779541, -2.2147603034973145, -2.5853214263916016, -1.00927734375, 0.2158203125, -0.22607421875, 0, 
88, 1040154220, 0.5326093435287476, 0.4766162633895874, -0.5180926322937012, 0.4698421061038971, 10.013284683227539, 0.9984453916549683, 0.25687602162361145, 11.65628719329834, 1.4780827760696411, -10.31698226928711, -1.00927734375, 0.21484375, -0.2275390625, 0, 
89, 1040162553, 0.5320953726768494, 0.47801467776298523, -0.5170826315879822, 0.47011640667915344, 10.177618026733398, 1.8661623001098633, -0.7216821908950806, 21.890871047973633, -3.0421273708343506, -11.129340171813965, -1.01220703125, 0.2099609375, -0.228515625, 0, 
90, 1040170886, 0.5296705365180969, 0.48041340708732605, -0.5142754912376404, 0.4734770357608795, 10.266115188598633, 0.8626604080200195, -0.18853439390659332, 75.29878997802734, 10.327482223510742, 4.842319488525391, -1.00732421875, 0.2109375, -0.2294921875, 0, 
91, 1040179219, 0.5289896726608276, 0.4816082715988159, -0.5139647126197815, 0.4733617305755615, 10.355831146240234, -0.394580602645874, 0.4652000069618225, 14.208425521850586, -10.632741928100586, -6.787684440612793, -1.01171875, 0.20947265625, -0.2294921875, 0, 
92, 1040187552, 0.5288425087928772, 0.48240339756011963, -0.5133509039878845, 0.4733823537826538, 10.030728340148926, 0.1681475192308426, -0.9739052057266235, 10.649824142456055, -1.1691620349884033, -8.488917350769043, -1.01123046875, 0.20947265625, -0.22900390625, 0, 
93, 1040195885, 0.5288827419281006, 0.48350760340690613, -0.5121780037879944, 0.4734814465045929, 9.967924118041992, 0.43648236989974976, -0.26488062739372253, 15.89833927154541, 2.7438619136810303, -14.993400573730469, -1.01025390625, 0.20166015625, -0.23291015625, 0, 
94, 1040204218, 0.5287153720855713, 0.4848432242870331, -0.5112890005111694, 0.4732632637023926, 9.875777244567871, 0.6284466981887817, 0.050778210163116455, 14.81559944152832, -4.415793418884277, -15.727839469909668, -1.00927734375, 0.19970703125, -0.2294921875, 0, 
95, 1040212551, 0.5284144878387451, 0.4863334596157074, -0.5105611085891724, 0.47285592555999756, 9.617640495300293, 0.5620348453521729, -0.18972331285476685, 14.513313293457031, -8.777348518371582, -16.21183204650879, -1.01171875, 0.1962890625, -0.23046875, 0, 
96, 1040220884, 0.5281601548194885, 0.48763933777809143, -0.5098284482955933, 0.4725855886936188, 9.8319091796875, 0.6257050633430481, -0.5252888798713684, 13.98305892944336, -6.309940814971924, -14.292492866516113, -1.01318359375, 0.1962890625, -0.232421875, 0, 
97, 1040229217, 0.5278210639953613, 0.4888911247253418, -0.5090250372886658, 0.4725373387336731, 9.560812950134277, 0.576173722743988, -0.40858861804008484, 16.047874450683594, -4.540534496307373, -12.187384605407715, -1.00927734375, 0.189453125, -0.22998046875, 0, 
98, 1040237550, 0.527329683303833, 0.49030783772468567, -0.5082103610038757, 0.4724946618080139, 9.427163124084473, 0.852073609828949, -0.38233086466789246, 18.159271240234375, -6.578775882720947, -12.419387817382812, -1.01171875, 0.18994140625, -0.22900390625, 0, 
99, 1040245883, 0.5266671180725098, 0.49200910329818726, -0.5072731375694275, 0.4724723994731903, 9.401212692260742, 1.1468656063079834, -0.592097818851471, 22.53777503967285, -8.57889175415039, -13.94302749633789, -1.015625, 0.18603515625, -0.22705078125, 0, 
100, 1040254216, 0.5256379246711731, 0.49411940574645996, -0.506259024143219, 0.4725041389465332, 9.692193984985352, 1.2163807153701782, -0.5593684911727905, 28.805072784423828, -12.883487701416016, -14.575541496276855, -1.015625, 0.18115234375, -0.2275390625, 0, 
101, 1040262549, 0.5247488021850586, 0.49601900577545166, -0.5053301453590393, 0.4724964499473572, 10.60615062713623, 1.2000737190246582, -0.8698911666870117, 25.553510665893555, -11.411535263061523, -13.69161319732666, -1.01123046875, 0.1787109375, -0.2255859375, 0, 
102, 1040270882, 0.5247215032577515, 0.49718648195266724, -0.504246175289154, 0.4724577069282532, 10.506834030151367, 1.0469086170196533, -1.0689916610717773, 15.310006141662598, 0.23814848065376282, -15.518312454223633, -1.01318359375, 0.173828125, -0.22509765625, 0, 
103, 1040279215, 0.5252649188041687, 0.49789726734161377, -0.5031601786613464, 0.4722629487514496, 10.26754093170166, 0.9978272914886475, -0.6861425638198853, 6.917908668518066, 6.114670753479004, -17.167640686035156, -1.013671875, 0.17333984375, -0.2255859375, 0, 
104, 1040287548, 0.5256528258323669, 0.49877673387527466, -0.5023900866508484, 0.47172310948371887, 10.077428817749023, 0.9062166810035706, -0.3867173194885254, 4.52230978012085, -0.7213738560676575, -17.679000854492188, -1.015625, 0.171875, -0.22998046875, 0, 
105, 1040295881, 0.5257989168167114, 0.5000221729278564, -0.5017955899238586, 0.47087401151657104, 9.825888633728027, 0.6517521142959595, -0.6811657547950745, 5.790317058563232, -8.136824607849121, -19.643768310546875, -1.017578125, 0.16748046875, -0.2236328125, 0, 
106, 1040304214, 0.5260518789291382, 0.5012499690055847, -0.500980794429779, 0.47015276551246643, 9.841687202453613, 0.6219331622123718, -0.8479912281036377, 7.0151143074035645, -4.8322553634643555, -20.829938888549805, -1.01806640625, 0.162109375, -0.2197265625, 0, 
107, 1040312547, 0.5263544321060181, 0.5024239420890808, -0.5000705122947693, 0.4695298671722412, 9.546122550964355, 0.47947561740875244, -0.6105318069458008, 7.7996015548706055, -2.7554266452789307, -20.700918197631836, -1.01513671875, 0.1591796875, -0.22412109375, 0, 
108, 1040320880, 0.5265104174613953, 0.5037829875946045, -0.4992388188838959, 0.4687829613685608, 9.236825942993164, 0.385979562997818, -0.5082602500915527, 8.114785194396973, -6.428075313568115, -21.398296356201172, -1.013671875, 0.15966796875, -0.22412109375, 0, 
109, 1040329213, 0.5264686346054077, 0.5052981376647949, -0.4984809160232544, 0.46800529956817627, 9.231071472167969, 0.39546188712120056, -0.6974482536315918, 10.606820106506348, -9.494637489318848, -20.891773223876953, -1.01708984375, 0.1513671875, -0.22412109375, 0, 
110, 1040337546, 0.5263276696205139, 0.5068482160568237, -0.49765974283218384, 0.4673612117767334, 9.246787071228027, 0.43947699666023254, -0.8081080317497253, 12.738810539245605, -9.02598762512207, -19.99029541015625, -1.01953125, 0.14599609375, -0.22119140625, 0, 
111, 1040345879, 0.5261263847351074, 0.5083749294281006, -0.496794193983078, 0.4668503999710083, 9.195965766906738, 0.5404086709022522, -0.7501109838485718, 14.318672180175781, -8.025187492370605, -18.761655807495117, -1.02099609375, 0.1455078125, -0.22314453125, 0, 
112, 1040354212, 0.5257750153541565, 0.5099385976791382, -0.4960078299045563, 0.46637657284736633, 9.220479011535645, 0.7020925879478455, -0.5502493977546692, 15.548142433166504, -9.593356132507324, -17.260955810546875, -1.017578125, 0.14111328125, -0.22119140625, 0, 
113, 1040362545, 0.5252913236618042, 0.5115430355072021, -0.4953235387802124, 0.46589159965515137, 9.323567390441895, 0.6995254158973694, -0.4907143712043762, 15.872623443603516, -11.583250045776367, -16.023223876953125, -1.02001953125, 0.13671875, -0.21923828125, 0, 
114, 1040370878, 0.524704098701477, 0.5131591558456421, -0.49471592903137207, 0.4654216170310974, 9.380189895629883, 0.7831472158432007, -0.5776385068893433, 16.404682159423828, -12.803512573242188, -14.826423645019531, -1.01953125, 0.1357421875, -0.2197265625, 0, 
115, 1040379211, 0.5240674018859863, 0.5147621631622314, -0.49406081438064575, 0.4650643467903137, 9.377864837646484, 0.8549784421920776, -0.34691423177719116, 17.620210647583008, -11.925919532775879, -13.907821655273438, -1.01904296875, 0.13232421875, -0.2158203125, 0, 
116, 1040387544, 0.5232869982719421, 0.5164409875869751, -0.49346107244491577, 0.4647183120250702, 9.329258918762207, 0.9871083498001099, -0.3300606608390808, 18.739320755004883, -13.721757888793945, -13.055097579956055, -1.02392578125, 0.12939453125, -0.21240234375, 0, 
117, 1040395877, 0.522413969039917, 0.5181498527526855, -0.49296092987060547, 0.4643290340900421, 9.515143394470215, 1.1114827394485474, -0.45175254344940186, 18.850000381469727, -15.549642562866211, -12.246430397033691, -1.02685546875, 0.12890625, -0.20849609375, 0, 
118, 1040404210, 0.5215772390365601, 0.5197656750679016, -0.4925345778465271, 0.46391624212265015, 9.703413963317871, 1.1494985818862915, -0.37449178099632263, 17.29949188232422, -15.410274505615234, -11.520853042602539, -1.0234375, 0.125, -0.21044921875, 0, 
119, 1040412543, 0.5208932757377625, 0.5211487412452698, -0.4921606183052063, 0.4635297954082489, 9.826838493347168, 1.1674686670303345, -0.3221610486507416, 14.376420021057129, -13.07589340209961, -10.326332092285156, -1.0224609375, 0.12158203125, -0.2080078125, 0, 
120, 1040420876, 0.5202663540840149, 0.5223425030708313, -0.4918973743915558, 0.46316906809806824, 9.965304374694824, 1.0298455953598022, -0.1254216879606247, 12.062859535217285, -12.09427547454834, -8.455466270446777, -1.0234375, 0.12060546875, -0.20458984375, 0, 
121, 1040429209, 0.5194305181503296, 0.5235425233840942, -0.49177366495132446, 0.4628836214542389, 10.094380378723145, 0.9602135419845581, -0.24635939300060272, 13.24623966217041, -14.001948356628418, -5.603013515472412, -1.02587890625, 0.11865234375, -0.203125, 0, 
122, 1040437542, 0.5186987519264221, 0.5245113968849182, -0.4916706085205078, 0.4627169072628021, 10.111552238464355, 0.732914388179779, -0.2544172406196594, 11.552214622497559, -11.118911743164062, -3.731482744216919, -1.025390625, 0.1162109375, -0.20166015625, 0, 
123, 1040445875, 0.518288791179657, 0.525170087814331, -0.49161699414253235, 0.4624859690666199, 10.32291030883789, 0.6777828931808472, -0.16367259621620178, 6.235363483428955, -7.785934925079346, -3.7570197582244873, -1.0263671875, 0.11767578125, -0.197265625, 0, 
124, 1040454208, 0.5180824995040894, 0.5256333351135254, -0.49165624380111694, 0.4621492028236389, 10.469910621643066, 0.5887100696563721, -0.09616739302873611, 2.012497901916504, -6.599764823913574, -3.8371922969818115, -1.02685546875, 0.11767578125, -0.1953125, 0, 
125, 1040462541, 0.5177788734436035, 0.5261567831039429, -0.4917323887348175, 0.4618127644062042, 10.103907585144043, 0.5119129419326782, -0.2436661422252655, 2.964553117752075, -7.892873764038086, -3.33392333984375, -1.029296875, 0.11865234375, -0.20068359375, 0, 
126, 1040470874, 0.5174006223678589, 0.5266526937484741, -0.4917152225971222, 0.46168917417526245, 9.96414566040039, 0.45450359582901, -0.36873388290405273, 5.269449710845947, -6.028565883636475, -1.8568015098571777, -1.02783203125, 0.1171875, -0.19921875, 0, 
127, 1040479207, 0.5171133279800415, 0.526938796043396, -0.4916568398475647, 0.4617467522621155, 9.979290962219238, 0.47084659337997437, -0.2634243071079254, 4.6757121086120605, -2.466932535171509, -0.00046105621731840074, -1.02587890625, 0.11572265625, -0.19970703125, 0, 
128, 1040487540, 0.5168477296829224, 0.527050256729126, -0.49165841937065125, 0.4619155526161194, 9.983942985534668, 0.5402122735977173, -0.006091734394431114, 3.7443788051605225, -0.8262384533882141, 2.2340352535247803, -1.02880859375, 0.11474609375, -0.19580078125, 0, 
129, 1040495873, 0.5164288282394409, 0.5271562337875366, -0.491796612739563, 0.46211594343185425, 9.981842994689941, 0.5911008715629578, -0.005738322623074055, 4.06624698638916, -2.574256181716919, 4.492800712585449, -1.02685546875, 0.11328125, -0.193359375, 0, 
130, 1040504206, 0.5158186554908752, 0.5273088216781616, -0.49200302362442017, 0.4624037742614746, 10.12546443939209, 0.681508481502533, -0.15540945529937744, 5.934088706970215, -4.019052982330322, 6.480952739715576, -1.02587890625, 0.11376953125, -0.19580078125, 0, 
131, 1040512539, 0.5150935649871826, 0.5275229811668396, -0.49216681718826294, 0.462793231010437, 10.282078742980957, 0.7597910165786743, -0.3689950108528137, 8.169840812683105, -4.146932125091553, 7.234920501708984, -1.02734375, 0.11474609375, -0.1962890625, 0, 
132, 1040520872, 0.5143672227859497, 0.5277419090270996, -0.49224433302879333, 0.4632687270641327, 10.432426452636719, 0.8280047178268433, -0.4788955748081207, 9.43337631225586, -2.9446635246276855, 7.1610612869262695, -1.02880859375, 0.1171875, -0.19384765625, 0, 
133, 1040529205, 0.5137178301811218, 0.5278846621513367, -0.49218061566352844, 0.46389397978782654, 10.5028657913208, 0.9839615225791931, -0.39932817220687866, 10.161078453063965, 0.14301711320877075, 7.252992630004883, -1.02685546875, 0.11865234375, -0.19580078125, 0, 
134, 1040537538, 0.5130044221878052, 0.5280011892318726, -0.4920925796031952, 0.4646435081958771, 10.51533317565918, 1.1433049440383911, -0.40508705377578735, 11.449409484863281, 0.9478804469108582, 8.5120210647583, -1.03173828125, 0.11962890625, -0.19384765625, 0, 
135, 1040545871, 0.5120925903320312, 0.528160810470581, -0.49207231402397156, 0.46548882126808167, 10.69762897491455, 1.4297915697097778, -0.5371980667114258, 13.397233963012695, -0.4489920437335968, 10.683866500854492, -1.02978515625, 0.1201171875, -0.19482421875, 0, 
136, 1040554204, 0.5112159848213196, 0.5281190872192383, -0.49216052889823914, 0.46640557050704956, 10.930106163024902, 1.7196484804153442, -0.5399609804153442, 11.541790008544922, 0.8314766883850098, 13.080846786499023, -1.02685546875, 0.119140625, -0.1962890625, 0, 
137, 1040562537, 0.5107170343399048, 0.5276771187782288, -0.49230822920799255, 0.4672955274581909, 10.866340637207031, 1.6217644214630127, -0.5796661376953125, 5.391835689544678, 5.34316873550415, 13.64359188079834, -1.02587890625, 0.12158203125, -0.19775390625, 0, 
138, 1040570870, 0.5106838941574097, 0.5268747210502625, -0.49247539043426514, 0.4680604338645935, 10.409162521362305, 1.513728141784668, -0.5904327630996704, -1.4543251991271973, 9.766158103942871, 12.325020790100098, -1.0302734375, 0.1220703125, -0.197265625, 0, 
139, 1040579203, 0.5110394954681396, 0.5258205533027649, -0.49268022179603577, 0.46864205598831177, 10.130746841430664, 1.47904634475708, -0.6470853090286255, -7.558994293212891, 12.427916526794434, 10.5413236618042, -1.0263671875, 0.1240234375, -0.19873046875, 0, 
140, 1040587536, 0.511642336845398, 0.5247023105621338, -0.49288201332092285, 0.4690250754356384, 10.015983581542969, 1.2180715799331665, -0.8844042420387268, -11.102084159851074, 13.10039234161377, 7.937098979949951, -1.0263671875, 0.12890625, -0.19970703125, 0, 
141, 1040595869, 0.5123650431632996, 0.5236545205116272, -0.4930015802383423, 0.46928131580352783, 10.064767837524414, 1.1015998125076294, -1.141649842262268, -11.822842597961426, 13.12377643585205, 5.227444171905518, -1.029296875, 0.1279296875, -0.19921875, 0, 
142, 1040604202, 0.5133278369903564, 0.5225070714950562, -0.49282485246658325, 0.46969395875930786, 10.040616035461426, 1.1501715183258057, -0.9496915936470032, -11.215633392333984, 18.610862731933594, 3.2956440448760986, -1.02294921875, 0.1318359375, -0.205078125, 0, 
143, 1040612535, 0.5144563317298889, 0.521271824836731, -0.492512971162796, 0.47015881538391113, 9.747876167297363, 1.106637716293335, -0.6170293092727661, -11.863776206970215, 21.627965927124023, 2.245537042617798, -1.021484375, 0.130859375, -0.20849609375, 0, 
144, 1040620868, 0.5155482292175293, 0.5201001763343811, -0.4923418164253235, 0.47043895721435547, 9.410527229309082, 1.200008749961853, -0.432978093624115, -13.259598731994629, 18.651744842529297, 1.7297172546386719, -1.02392578125, 0.130859375, -0.2080078125, 0, 
145, 1040629201, 0.516467273235321, 0.5190969705581665, -0.4923819303512573, 0.47049686312675476, 9.273198127746582, 1.2561988830566406, -0.6644155979156494, -13.754487991333008, 13.302358627319336, 1.6656299829483032, -1.02099609375, 0.13232421875, -0.2109375, 0, 
146, 1040637534, 0.5172060132026672, 0.5182371139526367, -0.49253109097480774, 0.47047725319862366, 9.494388580322266, 1.2262436151504517, -1.2087652683258057, -12.610426902770996, 9.82927131652832, 2.065237522125244, -1.02197265625, 0.1318359375, -0.2099609375, 0, 
147, 1040645867, 0.5180367827415466, 0.5172098278999329, -0.49255838990211487, 0.470664918422699, 9.514019966125488, 1.4659384489059448, -1.3126140832901, -12.333821296691895, 13.876708984375, 3.2332217693328857, -1.0205078125, 0.1337890625, -0.21728515625, 0, 
148, 1040654200, 0.5191149115562439, 0.5158583521842957, -0.4926386773586273, 0.4708765149116516, 9.316207885742188, 1.4198331832885742, -1.0144500732421875, -16.577260971069336, 17.4431095123291, 4.35645866394043, -1.017578125, 0.13427734375, -0.21533203125, 0, 
149, 1040662533, 0.5202670097351074, 0.5143617391586304, -0.49300363659858704, 0.4708603024482727, 9.030911445617676, 1.2747474908828735, -1.1524732112884521, -21.530012130737305, 15.234476089477539, 5.273654460906982, -1.02197265625, 0.13525390625, -0.21826171875, 0, 
150, 1040670866, 0.5213608145713806, 0.5127949714660645, -0.49357014894485474, 0.4707656502723694, 8.834230422973633, 1.4344978332519531, -1.2881673574447632, -23.463884353637695, 13.302467346191406, 6.971597194671631, -1.0205078125, 0.1396484375, -0.220703125, 0, 
151, 1040679199, 0.5222809910774231, 0.5112736821174622, -0.49429047107696533, 0.47064459323883057, 9.084275245666504, 1.3307629823684692, -1.5556435585021973, -23.08171844482422, 10.535256385803223, 8.702889442443848, -1.0166015625, 0.142578125, -0.22119140625, 0, 
152, 1040687532, 0.5229650735855103, 0.5098127126693726, -0.4951293468475342, 0.47058790922164917, 9.409934043884277, 1.3370321989059448, -1.6266433000564575, -21.27692222595215, 8.150222778320312, 11.098090171813965, -1.01806640625, 0.14111328125, -0.216796875, 0, 
153, 1040695865, 0.5237498879432678, 0.5080845355987549, -0.4960322976112366, 0.47063326835632324, 9.297049522399902, 1.6952083110809326, -1.3088066577911377, -23.665367126464844, 10.811123847961426, 13.466987609863281, -1.0166015625, 0.14697265625, -0.22216796875, 0, 
154, 1040704198, 0.524526059627533, 0.5061887502670288, -0.49714764952659607, 0.47063490748405457, 9.293938636779785, 1.5014744997024536, -1.236245036125183, -26.5131893157959, 10.007323265075684, 15.818864822387695, -1.01904296875, 0.15234375, -0.22509765625, 0, 
155, 1040712531, 0.5252271294593811, 0.5042626261711121, -0.49844250082969666, 0.4705512225627899, 9.360527038574219, 1.4884567260742188, -1.3094673156738281, -27.926254272460938, 7.796277046203613, 17.16318130493164, -1.017578125, 0.154296875, -0.22265625, 0, 
156, 1040720864, 0.5259060859680176, 0.502307116985321, -0.4998362362384796, 0.4704059958457947, 9.224532127380371, 1.548148274421692, -1.1229732036590576, -29.073833465576172, 6.703445911407471, 17.733842849731445, -1.01611328125, 0.1533203125, -0.2275390625, 0, 
157, 1040729197, 0.5264737010002136, 0.5005205869674683, -0.5014374852180481, 0.4699710011482239, 9.460042953491211, 1.4173399209976196, -1.0690059661865234, -30.388925552368164, 1.3332992792129517, 16.643787384033203, -1.0166015625, 0.16259765625, -0.2236328125, 0, 
158, 1040737530, 0.5270997881889343, 0.4987247884273529, -0.5031129121780396, 0.4693872630596161, 9.541282653808594, 1.3266853094100952, -1.1510982513427734, -32.18058395385742, 0.257372111082077, 15.74959659576416, -1.01513671875, 0.16552734375, -0.2255859375, 0, 
159, 1040745863, 0.5280007123947144, 0.49676987528800964, -0.5046288371086121, 0.46882015466690063, 9.403156280517578, 1.348703384399414, -1.126989722251892, -34.25818634033203, 4.433201789855957, 14.118647575378418, -1.0146484375, 0.1669921875, -0.22216796875, 0, 
160, 1040754196, 0.5289051532745361, 0.4949008822441101, -0.5062190294265747, 0.4680624008178711, 9.443032264709473, 1.002312421798706, -0.9295596480369568, -35.509281158447266, 2.0769455432891846, 12.612860679626465, -1.0166015625, 0.171875, -0.22216796875, 0, 
161, 1040762529, 0.5298086404800415, 0.4931780993938446, -0.5079504251480103, 0.4669821262359619, 9.710071563720703, 0.7586489915847778, -0.8744083046913147, -37.543251037597656, -2.106350898742676, 10.225600242614746, -1.015625, 0.17822265625, -0.22412109375, 0, 
162, 1040770862, 0.5307811498641968, 0.49161481857299805, -0.5095389485359192, 0.4657936692237854, 9.745988845825195, 0.5257861018180847, -0.7357454895973206, -36.607948303222656, -2.3215107917785645, 6.9013285636901855, -1.0166015625, 0.17578125, -0.2236328125, 0, 
163, 1040779195, 0.5317081212997437, 0.490273118019104, -0.5109078884124756, 0.46464967727661133, 10.211343765258789, 0.13527661561965942, -0.5907167792320251, -33.04459762573242, -2.1761364936828613, 4.489808559417725, -1.01171875, 0.18359375, -0.21923828125, 0, 
164, 1040787528, 0.5326440334320068, 0.4889976680278778, -0.511993408203125, 0.46372610330581665, 10.586122512817383, 0.13767693936824799, -0.18785203993320465, -29.061803817749023, 1.0472772121429443, 3.6592392921447754, -1.01708984375, 0.1845703125, -0.21630859375, 0, 
165, 1040795861, 0.5337280631065369, 0.4875607490539551, -0.5129199028015137, 0.4629681706428528, 10.509249687194824, -0.05720815435051918, 0.30788955092430115, -29.259571075439453, 5.374344825744629, 4.003751277923584, -1.0185546875, 0.1845703125, -0.21826171875, 0, 
166, 1040804194, 0.5347956418991089, 0.4860728085041046, -0.5139760971069336, 0.46212878823280334, 10.296374320983887, -0.4766382873058319, 0.4607374966144562, -30.79672622680664, 4.106836318969727, 4.731465816497803, -1.01318359375, 0.1923828125, -0.2197265625, 0, 
167, 1040812527, 0.5357191562652588, 0.4847242534160614, -0.5149354338645935, 0.4614070653915405, 9.833152770996094, -0.7417395114898682, 0.12488429248332977, -27.48794937133789, 3.6775667667388916, 4.889350891113281, -1.01611328125, 0.19091796875, -0.21923828125, 0, 
168, 1040820860, 0.5365686416625977, 0.48344701528549194, -0.5155583620071411, 0.46106430888175964, 9.850238800048828, -0.9920011162757874, 0.021509407088160515, -21.636417388916016, 7.725820064544678, 5.393821716308594, -1.01513671875, 0.19189453125, -0.21826171875, 0, 
169, 1040829193, 0.5374375581741333, 0.48225146532058716, -0.5158931612968445, 0.46092990040779114, 9.591583251953125, -1.0698126554489136, 0.2578842043876648, -17.87459373474121, 10.836503982543945, 4.323774337768555, -1.0126953125, 0.1943359375, -0.220703125, 0, 
170, 1040837526, 0.5378397107124329, 0.4815792441368103, -0.5163876414299011, 0.4606097936630249, 9.157254219055176, -0.9866622090339661, 0.6099238991737366, -13.284517288208008, 1.8142691850662231, 3.241981267929077, -1.015625, 0.197265625, -0.22021484375, 0, 
171, 1040845859, 0.5375213027000427, 0.4815530776977539, -0.5172541737556458, 0.4600360691547394, 9.154912948608398, -0.8699556589126587, 0.6646994948387146, -7.84907341003418, -11.843563079833984, 3.8208117485046387, -1.015625, 0.1962890625, -0.220703125, 0, 
172, 1040854192, 0.537174642086029, 0.48153048753738403, -0.5176838040351868, 0.4599815011024475, 10.075238227844238, -1.0324771404266357, 0.39966443181037903, -1.3951307535171509, -5.391668796539307, 4.904780864715576, -1.015625, 0.19921875, -0.21923828125, 0, 
173, 1040862525, 0.537136971950531, 0.4811113476753235, -0.5177542567253113, 0.4603846073150635, 10.249136924743652, -0.8150403499603271, 0.5134057402610779, -0.6230150461196899, 4.9908952713012695, 6.788937568664551, -1.01708984375, 0.19873046875, -0.2177734375, 0, 
174, 1040870858, 0.5369110703468323, 0.4805415868759155, -0.5178233981132507, 0.461164653301239, 10.606527328491211, -0.6799342036247253, 0.7832295894622803, 2.4458909034729004, 7.135705471038818, 11.806742668151855, -1.013671875, 0.19873046875, -0.22021484375, 0, 
175, 1040879191, 0.5362390279769897, 0.48006078600883484, -0.5179451704025269, 0.4623090624809265, 10.738311767578125, -0.10318710654973984, 0.9484084844589233, 8.066963195800781, 5.386995792388916, 17.061967849731445, -1.01708984375, 0.20166015625, -0.2177734375, 0, 
176, 1040887524, 0.5355223417282104, 0.4794439971446991, -0.5178752541542053, 0.4638558030128479, 10.87417221069336, 0.3900257647037506, 1.112628698348999, 11.111051559448242, 10.006847381591797, 19.998477935791016, -1.0126953125, 0.20458984375, -0.2216796875, 0, 
177, 1040895857, 0.5348063707351685, 0.47873517870903015, -0.5180543661117554, 0.46521198749542236, 10.591877937316895, 0.5877556204795837, 1.3475791215896606, 7.81512451171875, 7.504601955413818, 20.905488967895508, -1.01220703125, 0.20751953125, -0.22265625, 0, 
178, 1040904190, 0.5341887474060059, 0.4780465066432953, -0.5181746482849121, 0.46649396419525146, 10.37913990020752, 0.5384358167648315, 1.104736328125, 7.21085786819458, 8.03471565246582, 19.17862892150879, -1.0126953125, 0.20556640625, -0.220703125, 0, 
179, 1040912523, 0.5338570475578308, 0.4772830307483673, -0.5180870294570923, 0.46775105595588684, 10.084046363830566, 0.600533127784729, 1.1092556715011597, 5.891647815704346, 11.901799201965332, 16.348405838012695, -1.0126953125, 0.2109375, -0.22607421875, 0, 
180, 1040920856, 0.533688485622406, 0.4765310287475586, -0.5179622769355774, 0.46884697675704956, 9.94810962677002, 0.47282105684280396, 1.2670055627822876, 3.72552752494812, 12.209195137023926, 13.771997451782227, -1.009765625, 0.212890625, -0.22607421875, 0, 
181, 1040929189, 0.5336101651191711, 0.47587594389915466, -0.5179580450057983, 0.46960562467575073, 9.909622192382812, 0.34955838322639465, 1.1957793235778809, 0.9378781318664551, 9.12877368927002, 10.832427978515625, -1.00732421875, 0.21435546875, -0.22509765625, 0, 
182, 1040937522, 0.5337010622024536, 0.47526469826698303, -0.5178377628326416, 0.47025343775749207, 9.713703155517578, 0.016569724306464195, 1.0373868942260742, 0.12910859286785126, 10.185157775878906, 7.835844993591309, -1.0078125, 0.21337890625, -0.2314453125, 0, 
183, 1040945855, 0.533698558807373, 0.47490012645721436, -0.5176779627799988, 0.47080036997795105, 9.459634780883789, -0.03745657950639725, 0.9737406373023987, 2.068413496017456, 7.547426700592041, 5.703866481781006, -1.00830078125, 0.21484375, -0.2275390625, 0, 
184, 1040954188, 0.5337622165679932, 0.47464069724082947, -0.5173842310905457, 0.4713122546672821, 9.323412895202637, -0.2616964280605316, 0.904079020023346, 3.176562547683716, 8.101258277893066, 3.375457286834717, -1.0068359375, 0.21923828125, -0.232421875, 0, 
185, 1040962521, 0.5337806940078735, 0.4744381606578827, -0.5171601176261902, 0.47174105048179626, 9.236674308776855, -0.5118393301963806, 0.7600860595703125, 2.6949121952056885, 6.3478102684021, 3.130072593688965, -1.0087890625, 0.216796875, -0.2314453125, 0, 
186, 1040970854, 0.5337483882904053, 0.47418707609176636, -0.516903281211853, 0.47231125831604004, 9.159046173095703, -0.7124350070953369, 0.32339659333229065, 3.6198551654815674, 7.465449810028076, 4.605542182922363, -1.005859375, 0.21826171875, -0.23388671875, 0, 
187, 1040979187, 0.5337259769439697, 0.4738617539405823, -0.5164875388145447, 0.4731176495552063, 8.93649673461914, -0.634663462638855, 0.3734114468097687, 5.990810871124268, 10.72209358215332, 5.787997722625732, -1.00537109375, 0.21728515625, -0.23486328125, 0, 
188, 1040987520, 0.5334344506263733, 0.47375914454460144, -0.5160728693008423, 0.4740004539489746, 9.219682693481445, -0.44105255603790283, 0.5877650380134583, 9.950505256652832, 7.857975006103516, 6.505184650421143, -1.0078125, 0.21826171875, -0.23486328125, 0, 
189, 1040995853, 0.5327364802360535, 0.47401854395866394, -0.515630841255188, 0.47500598430633545, 9.711790084838867, -0.17516662180423737, 0.7247346639633179, 16.266311645507812, 3.608598470687866, 7.326838970184326, -1.00634765625, 0.2197265625, -0.236328125, 0, 
190, 1041004186, 0.5316274166107178, 0.47466713190078735, -0.5150757431983948, 0.4762016534805298, 10.168793678283691, 0.4736117124557495, 0.8241908550262451, 23.68341064453125, 0.2203209549188614, 7.8840532302856445, -1.00439453125, 0.21875, -0.240234375, 0, 
191, 1041012519, 0.5302801728248596, 0.47551429271698, -0.5145537257194519, 0.4774216413497925, 10.615257263183594, 1.0307642221450806, 0.9465796947479248, 26.846412658691406, -2.852146863937378, 8.456917762756348, -1.01025390625, 0.2216796875, -0.23876953125, 0, 
192, 1041020852, 0.5289837121963501, 0.47628432512283325, -0.5142669081687927, 0.4784000813961029, 10.812650680541992, 1.1766088008880615, 0.9790433645248413, 22.688575744628906, -5.2771759033203125, 8.421209335327148, -1.005859375, 0.21923828125, -0.2392578125, 0, 
193, 1041029185, 0.5280736684799194, 0.4767603576183319, -0.5141040086746216, 0.47910594940185547, 10.705755233764648, 1.0614724159240723, 0.7986553907394409, 15.286077499389648, -3.2992935180664062, 6.812094211578369, -1.009765625, 0.21533203125, -0.240234375, 0, 
194, 1041037518, 0.5276327729225159, 0.4769301116466522, -0.5138803720474243, 0.4796619713306427, 10.403402328491211, 0.746832549571991, 0.7729288935661316, 9.443700790405273, 1.4956793785095215, 4.378715515136719, -1.0068359375, 0.21923828125, -0.23828125, 0, 
195, 1041045851, 0.5274741053581238, 0.47695687413215637, -0.5135698914527893, 0.48014214634895325, 10.182244300842285, 0.4640135169029236, 0.8616194725036621, 6.4752397537231445, 4.5654425621032715, 2.426859140396118, -1.0048828125, 0.21923828125, -0.23828125, 0, 
196, 1041054184, 0.5273550152778625, 0.4770260453224182, -0.5132965445518494, 0.4804968237876892, 10.081432342529297, 0.18673041462898254, 1.0125746726989746, 5.296395778656006, 3.468205690383911, 1.1800605058670044, -1.00244140625, 0.216796875, -0.23779296875, 0, 
197, 1041062517, 0.5271678566932678, 0.4772821068763733, -0.5130715370178223, 0.480688214302063, 10.191076278686523, -0.011434393003582954, 0.9742535352706909, 5.721695423126221, 0.33432984352111816, -0.5353887677192688, -1.0087890625, 0.220703125, -0.23681640625, 0, 
198, 1041070850, 0.5269291996955872, 0.47772926092147827, -0.5128210186958313, 0.48077264428138733, 10.250020027160645, -0.15267696976661682, 0.9509245753288269, 7.05650520324707, -1.8096716403961182, -2.5054569244384766, -1.00537109375, 0.21533203125, -0.24169921875, 0, 
199, 1041079183, 0.5267137289047241, 0.47832340002059937, -0.5124632716178894, 0.4807995557785034, 10.345453262329102, -0.2122156322002411, 0.889342725276947, 8.074298858642578, -2.218743324279785, -4.797814846038818, -1.0048828125, 0.2177734375, -0.2392578125, 0, 
200, 1041087516, 0.5264589786529541, 0.47909316420555115, -0.5119951963424683, 0.48081085085868835, 10.429306983947754, -0.25291410088539124, 0.7766665816307068, 10.040998458862305, -2.9660773277282715, -6.637058734893799, -1.0048828125, 0.21435546875, -0.23876953125, 0, 
201, 1041095849, 0.5262491106987, 0.47990915179252625, -0.5114830136299133, 0.4807719886302948, 10.427680969238281, -0.13486164808273315, 0.7928085923194885, 10.202240943908691, -2.960493564605713, -7.889928340911865, -1.0048828125, 0.21142578125, -0.23974609375, 0, 
202, 1041104182, 0.5262187123298645, 0.48063215613365173, -0.5108880400657654, 0.4807157814502716, 10.267985343933105, 0.019719082862138748, 0.7078943848609924, 8.678475379943848, -0.6061353087425232, -9.115877151489258, -1.00390625, 0.21484375, -0.23876953125, 0, 
203, 1041112515, 0.5263891220092773, 0.48130401968955994, -0.5102975964546204, 0.4804839789867401, 9.99925422668457, 0.02311580441892147, 0.6671271324157715, 5.808067798614502, -0.043928422033786774, -11.303513526916504, -1.00341796875, 0.208984375, -0.23681640625, 0, 
204, 1041120848, 0.5266905426979065, 0.4820452332496643, -0.5096167922019958, 0.4801329970359802, 9.896535873413086, 0.023800402879714966, 0.6177738904953003, 5.195887088775635, 0.27531465888023376, -14.136857986450195, -1.00537109375, 0.2109375, -0.2373046875, 0, 
205, 1041129181, 0.5270937085151672, 0.48290202021598816, -0.5087586045265198, 0.47973960638046265, 9.944727897644043, -0.05566543713212013, 0.5477379560470581, 6.242920398712158, 1.23764169216156, -17.08390235900879, -1.00927734375, 0.20361328125, -0.236328125, 0, 
206, 1041137514, 0.5275347828865051, 0.48386237025260925, -0.5078114867210388, 0.47929051518440247, 10.111174583435059, -0.10041216015815735, 0.5798766613006592, 7.033247947692871, 1.0870555639266968, -19.069904327392578, -1.0068359375, 0.20263671875, -0.23779296875, 0, 
207, 1041145847, 0.5279683470726013, 0.4848901033401489, -0.5067710280418396, 0.4788755178451538, 10.142309188842773, -0.06571066379547119, 0.5649592876434326, 8.3298921585083, 1.4998548030853271, -19.845659255981445, -1.00830078125, 0.1982421875, -0.24169921875, 0, 
208, 1041154180, 0.5283398032188416, 0.4858636260032654, -0.5057129859924316, 0.4785974621772766, 10.02962875366211, 0.07853468507528305, 0.6224343180656433, 9.546314239501953, 2.461362361907959, -18.20148277282715, -1.01025390625, 0.19580078125, -0.240234375, 0, 
209, 1041162513, 0.5286040902137756, 0.4868323802947998, -0.5047048926353455, 0.4783852994441986, 9.82441234588623, 0.2215876281261444, 0.46112075448036194, 10.230751991271973, 1.8275123834609985, -16.63068962097168, -1.00634765625, 0.18994140625, -0.23974609375, 0, 
210, 1041170846, 0.5287611484527588, 0.48778536915779114, -0.5037607550621033, 0.47823619842529297, 9.675479888916016, 0.20279161632061005, 0.5507484078407288, 10.978148460388184, 1.1420239210128784, -14.94908618927002, -1.00537109375, 0.1923828125, -0.23974609375, 0, 
211, 1041179179, 0.5288019180297852, 0.48880812525749207, -0.502851128578186, 0.4781043529510498, 9.500259399414062, 0.1987951099872589, 0.5207334756851196, 12.031970024108887, -0.2538115382194519, -14.291953086853027, -1.01220703125, 0.18701171875, -0.240234375, 0, 
212, 1041187512, 0.528616189956665, 0.4900388717651367, -0.5019617080688477, 0.47798407077789307, 9.462522506713867, 0.1400381177663803, 0.41494712233543396, 15.075506210327148, -3.263408660888672, -14.040884017944336, -1.009765625, 0.1826171875, -0.2412109375, 0, 
213, 1041195845, 0.5282387137413025, 0.49135249853134155, -0.5011433362960815, 0.47791165113449097, 9.656291007995605, 0.1840420365333557, 0.12898977100849152, 16.772218704223633, -5.319028377532959, -12.505692481994629, -1.01220703125, 0.1845703125, -0.23974609375, 0, 
214, 1041204178, 0.5277092456817627, 0.4926937222480774, -0.5002790093421936, 0.47802117466926575, 9.761368751525879, 0.13417863845825195, -0.10451365262269974, 19.446426391601562, -5.000643730163574, -10.707368850708008, -1.0087890625, 0.18017578125, -0.2392578125, 0, 
215, 1041212511, 0.5271109342575073, 0.49402207136154175, -0.4993189871311188, 0.4783141016960144, 9.841925621032715, 0.02687855251133442, -0.13650666177272797, 21.81928062438965, -3.4362282752990723, -9.461774826049805, -1.009765625, 0.17724609375, -0.2431640625, 0, 
216, 1041220844, 0.526455819606781, 0.49532920122146606, -0.4983382821083069, 0.4787065088748932, 9.84148120880127, -0.01020287536084652, -0.18554458022117615, 22.85875701904297, -2.871408462524414, -8.383260726928711, -1.0107421875, 0.17236328125, -0.24072265625, 0, 
217, 1041229177, 0.5257250070571899, 0.4966886639595032, -0.4972843825817108, 0.47919705510139465, 9.711606979370117, -0.03798387572169304, -0.2541164755821228, 24.918554306030273, -2.5275373458862305, -8.011395454406738, -1.009765625, 0.1728515625, -0.23876953125, 0, 
218, 1041237510, 0.5248926281929016, 0.4980955719947815, -0.4964556097984314, 0.4795079231262207, 9.572515487670898, -0.04461231827735901, -0.3027002215385437, 23.426420211791992, -6.388885021209717, -7.4500837326049805, -1.009765625, 0.16943359375, -0.2392578125, 0, 
219, 1041245843, 0.5239748358726501, 0.49970191717147827, -0.4956042766571045, 0.4797211289405823, 9.148605346679688, 0.12761378288269043, -0.5631988644599915, 24.750141143798828, -8.79314136505127, -9.083940505981445, -1.0087890625, 0.16552734375, -0.240234375, 0, 
220, 1041254176, 0.522881805896759, 0.501554548740387, -0.4945811629295349, 0.48003634810447693, 9.236233711242676, 0.3832835257053375, -0.7208025455474854, 29.569908142089844, -9.682087898254395, -10.076239585876465, -1.00927734375, 0.16552734375, -0.2373046875, 0, 
221, 1041262509, 0.5218406915664673, 0.5033942461013794, -0.4934253692626953, 0.48043292760849, 9.198005676269531, 0.5957933664321899, -0.7313299775123596, 30.53594970703125, -7.719164848327637, -10.636858940124512, -1.01171875, 0.1630859375, -0.2353515625, 0, 
222, 1041270842, 0.520777702331543, 0.5052725672721863, -0.4924356937408447, 0.480629563331604, 9.41788387298584, 0.8267778158187866, -0.5958001017570496, 28.539762496948242, -10.70521068572998, -11.06380844116211, -1.0126953125, 0.158203125, -0.236328125, 0, 
223, 1041279175, 0.5197052359580994, 0.5071834921836853, -0.4917382597923279, 0.48049187660217285, 9.58385944366455, 0.9881661534309387, -0.5876525640487671, 24.613739013671875, -15.394360542297363, -11.56159782409668, -1.01171875, 0.15380859375, -0.23583984375, 0, 
224, 1041287508, 0.5187033414840698, 0.5092669725418091, -0.4909932315349579, 0.48013246059417725, 9.5785551071167, 1.1600679159164429, -0.6773985624313354, 24.207590103149414, -17.267343521118164, -15.134724617004395, -1.01318359375, 0.15087890625, -0.232421875, 0, 
225, 1041295841, 0.5177558660507202, 0.5115101337432861, -0.4903481900691986, 0.47942933440208435, 9.688592910766602, 1.4302839040756226, -0.5320541262626648, 21.9478759765625, -21.07042121887207, -18.30152130126953, -1.0185546875, 0.14697265625, -0.23095703125, 0, 
226, 1041304174, 0.5169491767883301, 0.513766348361969, -0.4896966218948364, 0.47855228185653687, 9.885049819946289, 1.3234621286392212, -0.953331470489502, 19.868330001831055, -21.39344024658203, -20.621301651000977, -1.01806640625, 0.142578125, -0.228515625, 0, 
227, 1041312507, 0.5163620114326477, 0.5159069895744324, -0.4890143573284149, 0.47757989168167114, 9.954833030700684, 1.2861491441726685, -0.9034939408302307, 17.107213973999023, -19.601415634155273, -22.161434173583984, -1.02099609375, 0.13818359375, -0.22509765625, 0, 
228, 1041320840, 0.5160735845565796, 0.5177912712097168, -0.48842188715934753, 0.47645750641822815, 9.98616886138916, 1.2969423532485962, -1.0058003664016724, 11.480321884155273, -17.621095657348633, -22.845788955688477, -1.02001953125, 0.13671875, -0.224609375, 0, 
229, 1041329173, 0.5160074234008789, 0.5194029808044434, -0.48783445358276367, 0.4753756523132324, 9.91975212097168, 1.204399585723877, -1.046386957168579, 8.290936470031738, -14.077337265014648, -22.130380630493164, -1.02099609375, 0.13427734375, -0.22314453125, 0, 
230, 1041337506, 0.5159065127372742, 0.5209123492240906, -0.4873538017272949, 0.47432535886764526, 9.671832084655762, 0.999319314956665, -0.9009319543838501, 7.3082966804504395, -14.180970191955566, -20.24755096435547, -1.0205078125, 0.130859375, -0.21728515625, 0, 
231, 1041345839, 0.515831708908081, 0.5224019289016724, -0.4869993329048157, 0.4731311500072479, 9.497848510742188, 0.8102577924728394, -0.7736324071884155, 5.212307929992676, -15.796539306640625, -20.383075714111328, -1.02099609375, 0.1259765625, -0.2158203125, 0, 
232, 1041354172, 0.5155507326126099, 0.5240312814712524, -0.48673638701438904, 0.4719045162200928, 9.390119552612305, 0.6661165356636047, -0.7844328284263611, 6.956357002258301, -18.96323013305664, -19.571950912475586, -1.0234375, 0.123046875, -0.2138671875, 0, 
233, 1041362505, 0.5154014229774475, 0.5254063010215759, -0.4864295721054077, 0.47085389494895935, 9.42866039276123, 0.7662892937660217, -0.9253153800964355, 5.582458972930908, -14.859747886657715, -17.771320343017578, -1.02294921875, 0.11865234375, -0.21142578125, 0, 
234, 1041370838, 0.5151119232177734, 0.5267229676246643, -0.4862212836742401, 0.4699139893054962, 9.295849800109863, 0.6957513093948364, -0.753243625164032, 6.362796306610107, -15.309224128723145, -14.997780799865723, -1.02490234375, 0.11865234375, -0.21044921875, 0, 
235, 1041379171, 0.5145220756530762, 0.5280238389968872, -0.48620450496673584, 0.46911704540252686, 9.269416809082031, 0.7938544750213623, -0.7498713135719299, 8.066502571105957, -17.544401168823242, -10.53152847290039, -1.025390625, 0.115234375, -0.20751953125, 0, 
236, 1041387504, 0.5136735439300537, 0.5292654037475586, -0.48630306124687195, 0.4685448408126831, 9.590055465698242, 1.012266993522644, -0.9361394047737122, 10.184595108032227, -18.082502365112305, -6.051364898681641, -1.0263671875, 0.11181640625, -0.205078125, 0, 
237, 1041395837, 0.5129355788230896, 0.5301733016967773, -0.4863872826099396, 0.46823954582214355, 9.702522277832031, 1.1634832620620728, -0.8746876120567322, 8.9995756149292, -13.14181900024414, -2.7380852699279785, -1.02587890625, 0.11328125, -0.203125, 0, 
238, 1041404170, 0.512192964553833, 0.5309008359909058, -0.4866946041584015, 0.4679088592529297, 9.944328308105469, 1.2785619497299194, -0.44077733159065247, 5.953787326812744, -13.786097526550293, -0.06034715846180916, -1.02783203125, 0.11083984375, -0.201171875, 0, 
239, 1041412503, 0.5114248394966125, 0.5315232276916504, -0.48720210790634155, 0.46751439571380615, 10.203737258911133, 1.3904019594192505, -0.4361281096935272, 3.8861796855926514, -15.139859199523926, 1.8249762058258057, -1.02685546875, 0.11181640625, -0.19775390625, 0, 
240, 1041420836, 0.510631263256073, 0.5320885181427002, -0.48780444264411926, 0.46711012721061707, 10.318768501281738, 1.4403783082962036, -0.4339369833469391, 3.082199811935425, -15.670100212097168, 2.9746456146240234, -1.02978515625, 0.11181640625, -0.19775390625, 0, 
241, 1041429169, 0.5098682045936584, 0.5326326489448547, -0.48847874999046326, 0.4666186571121216, 10.590155601501465, 1.2981163263320923, -0.4251340627670288, 1.5751605033874512, -16.48657989501953, 2.856128692626953, -1.0322265625, 0.10986328125, -0.19482421875, 0, 
242, 1041437502, 0.509289562702179, 0.5330916047096252, -0.48908162117004395, 0.4660947322845459, 10.580747604370117, 1.020760416984558, -0.37727177143096924, -0.10335344821214676, -14.429191589355469, 1.4765710830688477, -1.03173828125, 0.1083984375, -0.19140625, 0, 
243, 1041445835, 0.5088887810707092, 0.5334275960922241, -0.48961180448532104, 0.4655912220478058, 10.718926429748535, 0.9144871830940247, -0.2145664393901825, -1.693664789199829, -11.794153213500977, 0.7903914451599121, -1.0283203125, 0.111328125, -0.18896484375, 0, 
244, 1041454168, 0.5087030529975891, 0.5335427522659302, -0.49000126123428345, 0.46525201201438904, 10.494871139526367, 0.7315861582756042, -0.07489775866270065, -2.823892831802368, -6.740411758422852, 1.004859209060669, -1.03173828125, 0.1123046875, -0.18701171875, 0, 
245, 1041462501, 0.5085574984550476, 0.5335526466369629, -0.4903560280799866, 0.465026319026947, 10.305070877075195, 0.4181457459926605, -0.013890910893678665, -2.85483455657959, -4.72165060043335, 2.012395143508911, -1.03125, 0.115234375, -0.18310546875, 0, 
246, 1041470834, 0.5085209608078003, 0.5333787202835083, -0.4906435012817383, 0.4649624228477478, 10.410096168518066, 0.0420776903629303, 0.04236593842506409, -3.461174964904785, -1.1537419557571411, 3.1769208908081055, -1.02783203125, 0.115234375, -0.18798828125, 0, 
247, 1041479167, 0.5085320472717285, 0.5331279635429382, -0.490915983915329, 0.46495023369789124, 10.440299987792969, -0.3323398530483246, 0.12966026365756989, -3.8602192401885986, 0.14270971715450287, 3.657341718673706, -1.03076171875, 0.11572265625, -0.18701171875, 0, 
248, 1041487500, 0.508475661277771, 0.5329369306564331, -0.49108073115348816, 0.465056836605072, 10.329389572143555, -0.4797229468822479, 0.06809680163860321, -1.274000644683838, 0.9452292323112488, 3.6975297927856445, -1.03125, 0.11669921875, -0.185546875, 0, 
249, 1041495833, 0.5083128809928894, 0.5328770875930786, -0.4911104738712311, 0.46527209877967834, 10.28447151184082, -0.5033257007598877, 0.12214726209640503, 1.8374241590499878, 1.1133098602294922, 3.2897512912750244, -1.029296875, 0.1142578125, -0.18505859375, 0, 
250, 1041504166, 0.5080356597900391, 0.5329568982124329, -0.4909822642803192, 0.46561869978904724, 10.133649826049805, -0.38353148102760315, 0.04268330708146095, 5.436762809753418, 1.5025439262390137, 2.828951597213745, -1.0302734375, 0.1162109375, -0.1875, 0, 
251, 1041512499, 0.5076413750648499, 0.5330544710159302, -0.49065330624580383, 0.46628332138061523, 10.002930641174316, -0.032680951058864594, -0.16578622162342072, 9.96497631072998, 4.3424973487854, 4.22123908996582, -1.03076171875, 0.11328125, -0.19189453125, 0, 
252, 1041520832, 0.507314920425415, 0.5329398512840271, -0.4902254045009613, 0.46721887588500977, 10.081954002380371, 0.2030048370361328, -0.06730613857507706, 10.481000900268555, 8.839153289794922, 6.3579277992248535, -1.02978515625, 0.11572265625, -0.1884765625, 0, 
253, 1041529165, 0.5070154666900635, 0.5326756834983826, -0.4898514747619629, 0.46823641657829285, 10.051491737365723, 0.3542148768901825, -0.15519100427627563, 9.41274642944336, 10.20438003540039, 8.185158729553223, -1.02734375, 0.1123046875, -0.1904296875, 0, 
254, 1041537498, 0.5065826177597046, 0.5323858857154846, -0.48948392271995544, 0.46941709518432617, 9.891409873962402, 0.5502257347106934, -0.6244080662727356, 11.268256187438965, 10.619035720825195, 10.378134727478027, -1.02880859375, 0.11865234375, -0.193359375, 0, 
255, 1041545831, 0.5062465071678162, 0.5318810939788818, -0.48893964290618896, 0.4709169864654541, 9.949114799499512, 0.7874975800514221, -0.6310790777206421, 12.353355407714844, 16.227535247802734, 12.154435157775879, -1.0283203125, 0.1171875, -0.193359375, 0, 
256, 1041554164, 0.5061064958572388, 0.5311192870140076, -0.4884277880191803, 0.47245585918426514, 9.937662124633789, 1.0415326356887817, -0.09857657551765442, 9.176342010498047, 19.26935577392578, 13.096551895141602, -1.0263671875, 0.1181640625, -0.197265625, 0, 
257, 1041562497, 0.5060184597969055, 0.5302335619926453, -0.4882633090019226, 0.47371333837509155, 9.775670051574707, 1.141777753829956, 0.02369535341858864, 3.793174982070923, 15.951488494873047, 14.192710876464844, -1.02783203125, 0.12255859375, -0.2001953125, 0, 
258, 1041570830, 0.505783200263977, 0.5293687582015991, -0.4883054792881012, 0.4748866558074951, 9.611775398254395, 1.1563912630081177, -0.5953095555305481, 3.10463809967041, 12.773734092712402, 15.910736083984375, -1.02294921875, 0.123046875, -0.203125, 0, 
259, 1041579163, 0.5056028366088867, 0.5283592939376831, -0.4883475601673126, 0.4761579632759094, 9.715049743652344, 1.3994519710540771, -0.9151174426078796, 2.351963996887207, 14.801460266113281, 17.227846145629883, -1.0244140625, 0.1240234375, -0.20263671875, 0, 
260, 1041587496, 0.505596399307251, 0.5271050930023193, -0.4884939193725586, 0.4774029850959778, 9.701176643371582, 1.5069007873535156, -0.6689763069152832, -1.4256634712219238, 16.659391403198242, 18.28192710876465, -1.0234375, 0.1279296875, -0.203125, 0, 
261, 1041595829, 0.5056042075157166, 0.5258054733276367, -0.4889252185821533, 0.47838538885116577, 9.72693920135498, 1.4836006164550781, -0.7410485148429871, -5.52542781829834, 13.164864540100098, 18.75755500793457, -1.0224609375, 0.1298828125, -0.20947265625, 0, 
262, 1041604162, 0.505714476108551, 0.5243585109710693, -0.48938560485839844, 0.47938525676727295, 9.682039260864258, 1.543704867362976, -1.0224148035049438, -7.329287528991699, 14.749260902404785, 19.3850040435791, -1.02294921875, 0.1357421875, -0.20751953125, 0, 
263, 1041612495, 0.5058959126472473, 0.5228045582771301, -0.4898484945297241, 0.4804171621799469, 9.642436027526855, 1.432211995124817, -0.7097213268280029, -8.422144889831543, 16.146366119384766, 19.89667510986328, -1.02001953125, 0.138671875, -0.21142578125, 0, 
264, 1041620828, 0.5060172080993652, 0.5213020443916321, -0.49048948287963867, 0.481267511844635, 9.78492546081543, 1.2947614192962646, -0.7412272691726685, -10.009867668151855, 12.858339309692383, 19.94639015197754, -1.021484375, 0.14111328125, -0.2109375, 0, 
265, 1041629161, 0.5062372088432312, 0.5196949243545532, -0.4911656975746155, 0.48208409547805786, 9.607904434204102, 1.2738037109375, -0.8120389580726624, -11.928247451782227, 13.72899341583252, 20.035940170288086, -1.02099609375, 0.14404296875, -0.21533203125, 0, 
266, 1041637494, 0.5064504146575928, 0.5181476473808289, -0.49191486835479736, 0.48276129364967346, 9.4928617477417, 0.9659296274185181, -1.0099793672561646, -12.87467098236084, 11.780211448669434, 19.21059799194336, -1.0185546875, 0.14697265625, -0.21728515625, 0, 
267, 1041645827, 0.5067723989486694, 0.5166043639183044, -0.49256646633148193, 0.4834124445915222, 9.676507949829102, 0.848319947719574, -1.2721244096755981, -13.163507461547852, 12.985630989074707, 17.60032081604004, -1.01904296875, 0.1484375, -0.21728515625, 0, 
268, 1041654160, 0.5073463916778564, 0.5148766040802002, -0.4930955171585083, 0.4841136336326599, 9.6024751663208, 0.9821812510490417, -0.8817278742790222, -15.036653518676758, 17.130352020263672, 16.636762619018555, -1.0205078125, 0.15478515625, -0.2197265625, 0, 
269, 1041662493, 0.5078498721122742, 0.5132615566253662, -0.4937629997730255, 0.4846200942993164, 9.546754837036133, 0.7408711910247803, -0.8755007982254028, -16.04283332824707, 13.553986549377441, 15.982781410217285, -1.02001953125, 0.154296875, -0.21923828125, 0, 
270, 1041670826, 0.5083223581314087, 0.5116925835609436, -0.4945340156555176, 0.4849976897239685, 9.507143020629883, 0.7040886878967285, -1.1154788732528687, -17.033451080322266, 11.408906936645508, 15.689919471740723, -1.01708984375, 0.162109375, -0.22412109375, 0, 
271, 1041679159, 0.5089417099952698, 0.5099059343338013, -0.49527227878570557, 0.4854764938354492, 9.349871635437012, 0.7730640769004822, -0.9434762597084045, -18.71474838256836, 14.797137260437012, 16.683908462524414, -1.013671875, 0.1650390625, -0.22265625, 0, 
272, 1041687492, 0.5094573497772217, 0.5081474184989929, -0.4962846636772156, 0.4857454299926758, 9.280838966369629, 0.5595455765724182, -1.02012300491333, -21.04638671875, 10.518044471740723, 17.621030807495117, -1.013671875, 0.16650390625, -0.2255859375, 0, 
273, 1041695825, 0.5098366141319275, 0.5064818859100342, -0.4975055158138275, 0.4858381152153015, 9.154963493347168, 0.7180516719818115, -1.2058980464935303, -22.041784286499023, 6.267949104309082, 18.13692855834961, -1.01611328125, 0.17041015625, -0.22802734375, 0, 
274, 1041704158, 0.5100201964378357, 0.5050035715103149, -0.4987846612930298, 0.4858724772930145, 9.285906791687012, 0.7375782132148743, -1.1673557758331299, -20.115591049194336, 2.8714730739593506, 18.142358779907227, -1.01171875, 0.17724609375, -0.22705078125, 0, 
275, 1041712491, 0.509941577911377, 0.5038694739341736, -0.5001821517944336, 0.48569589853286743, 9.786601066589355, 0.7936443090438843, -1.2759501934051514, -18.156993865966797, -3.528593063354492, 16.89350700378418, -1.0166015625, 0.1796875, -0.224609375, 0, 
276, 1041720824, 0.5101553797721863, 0.502446174621582, -0.5015309453010559, 0.48555487394332886, 10.149162292480469, 0.9727020859718323, -1.1656156778335571, -21.669889450073242, 1.009239912033081, 16.82883071899414, -1.01220703125, 0.18212890625, -0.22412109375, 0, 
277, 1041729157, 0.5108067989349365, 0.5006850957870483, -0.5029048323631287, 0.4852679967880249, 10.147985458374023, 0.8867331147193909, -0.8188157677650452, -28.208213806152344, 5.090692520141602, 15.398970603942871, -1.01220703125, 0.18310546875, -0.224609375, 0, 
278, 1041737490, 0.5116528272628784, 0.4988958239555359, -0.5042986869812012, 0.4847728908061981, 10.13187313079834, 0.49981603026390076, -0.9042858481407166, -31.3236026763916, 5.062133312225342, 12.957396507263184, -1.01123046875, 0.18896484375, -0.224609375, 0, 
279, 1041745823, 0.5126049518585205, 0.49720001220703125, -0.5054702162742615, 0.48428893089294434, 9.95161247253418, 0.36919260025024414, -0.895230770111084, -29.829160690307617, 6.806131362915039, 10.167745590209961, -1.01025390625, 0.19140625, -0.22607421875, 0, 
280, 1041754156, 0.5135565996170044, 0.4956400990486145, -0.5065168738365173, 0.48378604650497437, 10.031339645385742, 0.42022955417633057, -0.5173161625862122, -28.152036666870117, 6.660000324249268, 8.227182388305664, -1.01318359375, 0.193359375, -0.22509765625, 0, 
281, 1041762489, 0.5145406126976013, 0.49408772587776184, -0.5076492428779602, 0.48314112424850464, 9.878053665161133, 0.09650587290525436, -0.42795735597610474, -29.895475387573242, 5.248476028442383, 7.552478313446045, -1.01318359375, 0.19921875, -0.22705078125, 0, 
282, 1041770822, 0.5154799818992615, 0.49265244603157043, -0.5088837742805481, 0.4823058843612671, 9.702072143554688, -0.06465115398168564, -0.45131903886795044, -30.74420928955078, 2.156784772872925, 6.368409633636475, -1.0126953125, 0.20068359375, -0.2216796875, 0, 
283, 1041779155, 0.5162187814712524, 0.4915006160736084, -0.5100908279418945, 0.48141515254974365, 9.685832023620605, 0.16382446885108948, -0.6292681097984314, -27.60883331298828, -1.3213112354278564, 5.14596700668335, -1.013671875, 0.20166015625, -0.21923828125, 0, 
284, 1041787488, 0.5168963074684143, 0.4903726577758789, -0.5113101005554199, 0.48054370284080505, 9.960677146911621, 0.05313991755247116, -0.48327669501304626, -27.051109313964844, -1.8510905504226685, 5.594216346740723, -1.0126953125, 0.20166015625, -0.22314453125, 0, 
285, 1041795821, 0.5173655152320862, 0.48939579725265503, -0.5126155614852905, 0.4796428382396698, 10.102020263671875, 0.16693492233753204, -0.33800962567329407, -25.26966094970703, -5.140113830566406, 6.290436744689941, -1.01123046875, 0.20654296875, -0.2216796875, 0, 
286, 1041804154, 0.5179813504219055, 0.48810532689094543, -0.5139409899711609, 0.4788743257522583, 10.266327857971191, 0.06287193298339844, -0.3455471992492676, -27.63075828552246, -1.2719268798828125, 8.598434448242188, -1.01123046875, 0.20751953125, -0.22021484375, 0, 
287, 1041812487, 0.5185672044754028, 0.4867272973060608, -0.515147864818573, 0.4783458709716797, 10.400726318359375, -0.15791136026382446, -0.3215278387069702, -25.63105583190918, 1.530131459236145, 10.33976936340332, -1.01123046875, 0.21142578125, -0.21875, 0, 
288, 1041820820, 0.5192080736160278, 0.48521924018859863, -0.5159605145454407, 0.4783070385456085, 10.88452434539795, -0.23509803414344788, 0.21432973444461823, -20.825538635253906, 8.883061408996582, 11.740765571594238, -1.0107421875, 0.21533203125, -0.22216796875, 0, 
289, 1041829153, 0.5199289321899414, 0.48366186022758484, -0.5164651274681091, 0.47855690121650696, 11.164384841918945, -0.3467331528663635, 1.1919350624084473, -17.675445556640625, 13.8816556930542, 11.58333969116211, -1.0068359375, 0.21533203125, -0.2236328125, 0, 
290, 1041837486, 0.5205872654914856, 0.48219433426856995, -0.5168411731719971, 0.47891589999198914, 11.280594825744629, -0.7829867601394653, 1.7666560411453247, -15.205567359924316, 14.507387161254883, 11.270486831665039, -1.00927734375, 0.21875, -0.2265625, 0, 
291, 1041845819, 0.5211930274963379, 0.48093104362487793, -0.5170124769210815, 0.4793422818183899, 11.166460037231445, -0.8859049677848816, 2.019568920135498, -11.35830307006836, 14.686426162719727, 9.301159858703613, -1.01171875, 0.22119140625, -0.2275390625, 0, 
292, 1041854152, 0.5217395424842834, 0.4799630641937256, -0.5169031620025635, 0.47983518242836, 11.105168342590332, -0.9505384564399719, 2.0762267112731934, -7.040278434753418, 14.779069900512695, 6.203090190887451, -1.0068359375, 0.22314453125, -0.2275390625, 0, 
293, 1041862485, 0.5222184658050537, 0.47933071851730347, -0.5166289210319519, 0.48024147748947144, 10.97138500213623, -1.227951169013977, 1.9794663190841675, -3.2011396884918213, 12.68561840057373, 2.562307596206665, -1.00634765625, 0.22265625, -0.228515625, 0, 
294, 1041870818, 0.5228244066238403, 0.4788491725921631, -0.5160985589027405, 0.4806331694126129, 10.580852508544922, -1.3868285417556763, 1.6262109279632568, -1.1733882427215576, 14.347442626953125, -1.1562522649765015, -1.00732421875, 0.22314453125, -0.22998046875, 0, 
295, 1041879151, 0.5235572457313538, 0.478548526763916, -0.5151491761207581, 0.4811529517173767, 9.93762493133545, -1.5661396980285645, 1.3716495037078857, 2.7748806476593018, 17.897092819213867, -5.102741241455078, -1.00439453125, 0.22216796875, -0.2314453125, 0, 
296, 1041887484, 0.5240771770477295, 0.4786388874053955, -0.514290988445282, 0.481414794921875, 9.803311347961426, -1.6531403064727783, 1.217505693435669, 4.554941177368164, 11.45339298248291, -7.737471580505371, -1.009765625, 0.22265625, -0.23486328125, 0, 
297, 1041895817, 0.5242059826850891, 0.4791141450405121, -0.5135701298713684, 0.4815715551376343, 9.712942123413086, -1.5522257089614868, 1.0617889165878296, 8.258312225341797, 4.452112674713135, -7.705595016479492, -1.005859375, 0.220703125, -0.23681640625, 0, 
298, 1041904150, 0.5242878198623657, 0.4796690046787262, -0.512292206287384, 0.48229044675827026, 9.759732246398926, -0.9350850582122803, 0.5506224036216736, 16.623838424682617, 11.314184188842773, -7.59641695022583, -1.0068359375, 0.2197265625, -0.2373046875, 0, 
299, 1041912483, 0.5245527029037476, 0.4798017740249634, -0.5104280114173889, 0.4838445782661438, 9.637489318847656, -0.27443304657936096, 0.6158597469329834, 22.322505950927734, 25.136796951293945, -3.6614561080932617, -1.0078125, 0.21435546875, -0.23974609375, 0, 
300, 1041920816, 0.5243571400642395, 0.4800328016281128, -0.5086898803710938, 0.4856545925140381, 9.371211051940918, 0.2469978630542755, 1.1847440004348755, 26.999156951904297, 22.032529830932617, 1.3677886724472046, -1.00341796875, 0.21533203125, -0.24267578125, 0, 
301, 1041929149, 0.5232517719268799, 0.4808346629142761, -0.5075722336769104, 0.48722049593925476, 9.513033866882324, 0.7769264578819275, 1.5094151496887207, 31.295745849609375, 5.768266677856445, 5.808660507202148, -1.00537109375, 0.216796875, -0.24609375, 0, 
302, 1041937482, 0.5216159820556641, 0.48199155926704407, -0.5068973898887634, 0.4885322153568268, 9.631120681762695, 1.041748285293579, 1.2360398769378662, 32.58150863647461, -5.17674446105957, 7.959798336029053, -1.00537109375, 0.21337890625, -0.24853515625, 0, 
303, 1041945815, 0.5199978351593018, 0.48308151960372925, -0.5064704418182373, 0.4896220862865448, 9.599152565002441, 1.1714322566986084, 0.680209219455719, 28.807621002197266, -7.85584020614624, 8.383199691772461, -1.00390625, 0.21337890625, -0.24560546875, 0, 
304, 1041954148, 0.5186341404914856, 0.4839426279067993, -0.5061280131340027, 0.4905712306499481, 9.555075645446777, 1.339643955230713, 0.3864891827106476, 23.88916778564453, -6.084537029266357, 7.798783302307129, -1.00439453125, 0.2119140625, -0.244140625, 0, 
305, 1041962481, 0.5175342559814453, 0.4846886694431305, -0.5058080554008484, 0.49132585525512695, 9.522627830505371, 1.52211594581604, 0.507264256477356, 19.851972579956055, -4.922493934631348, 5.601719379425049, -1.00439453125, 0.212890625, -0.24609375, 0, 
306, 1041970814, 0.5167174339294434, 0.48533427715301514, -0.5055620670318604, 0.49180126190185547, 9.434224128723145, 1.4721009731292725, 0.5817364454269409, 14.702279090881348, -4.667195796966553, 2.8747501373291016, -0.998046875, 0.2109375, -0.24560546875, 0, 
307, 1041979147, 0.5160934329032898, 0.48600250482559204, -0.5053622722625732, 0.4920019209384918, 9.389338493347168, 1.3180146217346191, 0.6767014265060425, 11.457696914672852, -5.6385908126831055, -0.21011358499526978, -1.00537109375, 0.212890625, -0.24462890625, 0, 
308, 1041987480, 0.5155215859413147, 0.48679235577583313, -0.5051965713500977, 0.4919903576374054, 9.405851364135742, 1.1095620393753052, 0.594792902469635, 10.103524208068848, -7.763368129730225, -2.702507257461548, -1.0009765625, 0.21435546875, -0.240234375, 0, 
309, 1041995813, 0.5149528980255127, 0.48773935437202454, -0.5050504803657532, 0.4917982220649719, 9.57997989654541, 0.9712147116661072, 0.42510655522346497, 9.974198341369629, -10.148591995239258, -4.95100212097168, -1.00439453125, 0.2099609375, -0.24169921875, 0, 
310, 1042004146, 0.5145130157470703, 0.4886890947818756, -0.5049785375595093, 0.49138933420181274, 9.892026901245117, 0.7976583242416382, 0.432273268699646, 7.244078159332275, -11.254359245300293, -6.888847351074219, -1.00341796875, 0.20751953125, -0.2421875, 0, 
311, 1042012479, 0.5142917633056641, 0.4895886182785034, -0.5049417614936829, 0.49076318740844727, 10.213786125183105, 0.557378888130188, 0.5366950035095215, 3.5517349243164062, -11.101289749145508, -9.306910514831543, -1.00537109375, 0.20751953125, -0.23876953125, 0, 
312, 1042020812, 0.514304518699646, 0.49046948552131653, -0.504853367805481, 0.4899604320526123, 10.274857521057129, 0.33141133189201355, 0.4921204447746277, 0.8828843832015991, -10.18050765991211, -12.365171432495117, -1.0068359375, 0.20458984375, -0.240234375, 0, 
313, 1042029145, 0.5144314765930176, 0.4914037585258484, -0.5047070384025574, 0.4890407919883728, 10.256072044372559, 0.10297874361276627, 0.41899749636650085, 0.15082943439483643, -10.121031761169434, -14.71125602722168, -1.0078125, 0.20263671875, -0.236328125, 0, 
314, 1042037478, 0.5146158337593079, 0.4924255609512329, -0.5044116973876953, 0.4881229102611542, 10.329895973205566, -0.11460071057081223, 0.255245566368103, 1.5189118385314941, -9.249021530151367, -16.70888900756836, -1.01123046875, 0.201171875, -0.23486328125, 0, 
315, 1042045811, 0.5149234533309937, 0.49343985319137573, -0.5039292573928833, 0.4872719943523407, 10.414076805114746, -0.23802578449249268, 0.2249705195426941, 2.2294256687164307, -6.563138484954834, -18.265134811401367, -1.00830078125, 0.1982421875, -0.2353515625, 0, 
316, 1042054144, 0.5154364109039307, 0.4943696856498718, -0.5031581521034241, 0.4865836799144745, 10.423707962036133, -0.33290553092956543, 0.29535984992980957, 3.0477747917175293, -1.436293125152588, -19.874168395996094, -1.0087890625, 0.193359375, -0.23291015625, 0, 
317, 1042062477, 0.5161903500556946, 0.4951700270175934, -0.5021146535873413, 0.48604848980903625, 10.21045207977295, -0.30454525351524353, 0.5240052342414856, 3.6273231506347656, 4.079747676849365, -21.34857749938965, -1.01171875, 0.19189453125, -0.2373046875, 0, 
318, 1042070810, 0.516979455947876, 0.4959653317928314, -0.5009220242500305, 0.4856288433074951, 9.933978080749512, -0.21820344030857086, 0.5817247629165649, 4.979781150817871, 6.192206382751465, -21.75469398498535, -1.005859375, 0.18505859375, -0.2373046875, 0, 
319, 1042079143, 0.5176505446434021, 0.4968719482421875, -0.49965542554855347, 0.4852919280529022, 9.734085083007812, -0.10075642913579941, 0.5002333521842957, 7.805492401123047, 5.735042572021484, -21.638916015625, -1.00927734375, 0.1845703125, -0.23779296875, 0, 
320, 1042087476, 0.518197774887085, 0.49786576628685, -0.49822938442230225, 0.48515549302101135, 9.597931861877441, 0.042716123163700104, 0.3873005509376526, 11.609464645385742, 6.796650409698486, -21.083980560302734, -1.01171875, 0.18017578125, -0.236328125, 0, 
321, 1042095809, 0.5185915231704712, 0.49892696738243103, -0.4966734051704407, 0.4852399528026581, 9.56384563446045, 0.22818584740161896, 0.4561143219470978, 15.624935150146484, 7.743558883666992, -19.8278865814209, -1.01171875, 0.1787109375, -0.23681640625, 0, 
322, 1042104142, 0.518797755241394, 0.500067949295044, -0.49509763717651367, 0.4854554533958435, 9.587091445922852, 0.2849504351615906, 0.5814502239227295, 18.42511558532715, 6.9603800773620605, -18.333709716796875, -1.00634765625, 0.173828125, -0.2412109375, 0, 
323, 1042112475, 0.518747091293335, 0.5013583302497864, -0.49364563822746277, 0.4856572449207306, 9.672513008117676, 0.31205427646636963, 0.7806582450866699, 20.420486450195312, 3.2475924491882324, -16.87054443359375, -1.0107421875, 0.16845703125, -0.2421875, 0, 
324, 1042120808, 0.5184750556945801, 0.502749502658844, -0.4923345446586609, 0.4858401417732239, 9.655780792236328, 0.35989442467689514, 0.8976947665214539, 21.75048065185547, -0.06672512739896774, -15.252543449401855, -1.01123046875, 0.16650390625, -0.244140625, 0, 
325, 1042129141, 0.5179887413978577, 0.5042818784713745, -0.4912041425704956, 0.4859151840209961, 9.562883377075195, 0.30063560605049133, 0.9404377341270447, 22.147478103637695, -4.492969989776611, -14.283121109008789, -1.0087890625, 0.1630859375, -0.2421875, 0, 
326, 1042137474, 0.5173256397247314, 0.5059780478477478, -0.4901271164417267, 0.48594582080841064, 9.42817497253418, 0.2744235098361969, 0.6056824326515198, 23.751495361328125, -7.484945774078369, -14.166783332824707, -1.0146484375, 0.16259765625, -0.2392578125, 0, 
327, 1042145807, 0.5166671276092529, 0.5076346397399902, -0.4889715015888214, 0.48608285188674927, 9.321829795837402, 0.21808087825775146, 0.3607015311717987, 24.811260223388672, -5.874373435974121, -13.708467483520508, -1.01025390625, 0.15478515625, -0.2431640625, 0, 
328, 1042154140, 0.5160465836524963, 0.5092382431030273, -0.4876852035522461, 0.4863571226596832, 9.198606491088867, 0.08548447489738464, 0.23343616724014282, 25.589393615722656, -3.4073355197906494, -13.555574417114258, -1.01171875, 0.15283203125, -0.24072265625, 0, 
329, 1042162473, 0.5153421759605408, 0.5109126567840576, -0.4864407777786255, 0.4865941107273102, 9.21158218383789, -0.017377475276589394, 0.11666574329137802, 26.52773666381836, -4.972278118133545, -13.427210807800293, -1.00927734375, 0.15185546875, -0.24267578125, 0, 
330, 1042170806, 0.5144473314285278, 0.5126962065696716, -0.48527592420578003, 0.4868277311325073, 9.179476737976074, 0.15150190889835358, -0.06971818953752518, 27.915237426757812, -7.583806037902832, -12.363758087158203, -1.0126953125, 0.1484375, -0.24169921875, 0, 
331, 1042179139, 0.5134487152099609, 0.5144053101539612, -0.4842616617679596, 0.4870889484882355, 9.381522178649902, 0.38645121455192566, -0.2238149642944336, 27.463361740112305, -8.629288673400879, -9.8997802734375, -1.013671875, 0.142578125, -0.23779296875, 0, 
332, 1042187472, 0.5123023986816406, 0.5160725712776184, -0.48342177271842957, 0.4873664379119873, 9.59566879272461, 0.5721395015716553, -0.3799310624599457, 27.32978630065918, -10.451384544372559, -7.299217700958252, -1.013671875, 0.138671875, -0.2392578125, 0, 
333, 1042195805, 0.5111662149429321, 0.5175868272781372, -0.4826815724372864, 0.48768746852874756, 9.720871925354004, 0.725231409072876, -0.5201795697212219, 25.625844955444336, -9.747940063476562, -5.320926189422607, -1.015625, 0.1376953125, -0.236328125, 0, 
334, 1042204138, 0.5098923444747925, 0.5190996527671814, -0.48212796449661255, 0.48796048760414124, 9.696759223937988, 0.7935827374458313, -0.5268951058387756, 24.843021392822266, -12.329549789428711, -3.41066575050354, -1.01171875, 0.13818359375, -0.234375, 0, 
335, 1042212471, 0.5084136128425598, 0.5208171010017395, -0.48182815313339233, 0.4879695773124695, 9.841338157653809, 0.8225671648979187, -0.8097314834594727, 24.4699764251709, -18.700634002685547, -3.416506052017212, -1.01513671875, 0.1328125, -0.23388671875, 0, 
336, 1042220804, 0.5070322751998901, 0.5224476456642151, -0.48141056299209595, 0.48807594180107117, 9.960386276245117, 1.0339025259017944, -1.11375892162323, 24.513263702392578, -15.969334602355957, -3.671598434448242, -1.01416015625, 0.1328125, -0.23046875, 0, 
337, 1042229137, 0.5058881044387817, 0.52390056848526, -0.4808990955352783, 0.4882100224494934, 9.705304145812988, 1.0359028577804565, -0.9225403070449829, 22.470752716064453, -12.337230682373047, -4.557389736175537, -1.01708984375, 0.130859375, -0.22998046875, 0, 
338, 1042237470, 0.5046986937522888, 0.5255255103111267, -0.4805242419242859, 0.4880637526512146, 9.583069801330566, 0.9982538223266602, -0.7607187032699585, 21.299518585205078, -16.7643985748291, -6.371237754821777, -1.015625, 0.12890625, -0.2236328125, 0, 
339, 1042245803, 0.5032418370246887, 0.5275415778160095, -0.4802998900413513, 0.487613707780838, 9.74549388885498, 1.0837103128433228, -0.8110427856445312, 22.84988021850586, -24.39243507385254, -8.16641616821289, -1.01904296875, 0.1279296875, -0.22314453125, 0, 
340, 1042254136, 0.5018024444580078, 0.5297321081161499, -0.4800593852996826, 0.48695871233940125, 10.094548225402832, 1.1948069334030151, -1.0949314832687378, 22.7087459564209, -26.82840347290039, -10.985214233398438, -1.01953125, 0.12744140625, -0.2216796875, 0, 
341, 1042262469, 0.5009421110153198, 0.5316161513328552, -0.47954216599464417, 0.486300528049469, 9.987123489379883, 1.305628776550293, -1.4156060218811035, 18.187467575073242, -19.06118392944336, -14.864646911621094, -1.02001953125, 0.12109375, -0.21923828125, 0, 
342, 1042270802, 0.5004035830497742, 0.5334569215774536, -0.47882455587387085, 0.4855457544326782, 10.007183074951172, 1.351279377937317, -0.9798202514648438, 16.204383850097656, -15.98426628112793, -18.871248245239258, -1.0234375, 0.1201171875, -0.216796875, 0, 
343, 1042279135, 0.5000819563865662, 0.5353102087974548, -0.4781515896320343, 0.4844995141029358, 10.036965370178223, 1.2631694078445435, -0.9845229983329773, 12.516366958618164, -17.075923919677734, -22.068525314331055, -1.02587890625, 0.11279296875, -0.21484375, 0, 
344, 1042287468, 0.49996232986450195, 0.5371013879776001, -0.4773646295070648, 0.4834151566028595, 10.016820907592773, 1.2698746919631958, -1.0475218296051025, 11.11795711517334, -14.835623741149902, -24.119304656982422, -1.0224609375, 0.11181640625, -0.21484375, 0, 
345, 1042295801, 0.4999843239784241, 0.5388287901878357, -0.4764806926250458, 0.4823409914970398, 9.90689468383789, 1.1286364793777466, -0.8730427622795105, 10.338387489318848, -12.735406875610352, -25.277324676513672, -1.0244140625, 0.10693359375, -0.21044921875, 0, 
346, 1042304134, 0.5001701712608337, 0.5404284000396729, -0.4755987823009491, 0.48122796416282654, 9.771981239318848, 0.7698333263397217, -0.8791522979736328, 7.931466579437256, -11.120965957641602, -25.785612106323242, -1.0244140625, 0.103515625, -0.208984375, 0, 
347, 1042312467, 0.5003640055656433, 0.5419319868087769, -0.4748612344264984, 0.48006248474121094, 9.448439598083496, 0.5625736713409424, -0.886495053768158, 5.959603786468506, -11.81147575378418, -24.490633010864258, -1.025390625, 0.09912109375, -0.20947265625, 0, 
348, 1042320800, 0.5005961656570435, 0.5432140231132507, -0.47418656945228577, 0.47903722524642944, 9.216140747070312, 0.4457283020019531, -1.0341508388519287, 4.71856689453125, -9.482831001281738, -21.877256393432617, -1.02392578125, 0.0966796875, -0.203125, 0, 
349, 1042329133, 0.5009104013442993, 0.5441586375236511, -0.47362229228019714, 0.47819429636001587, 8.994736671447754, 0.3373657464981079, -0.7078047394752502, 2.1743030548095703, -6.12551736831665, -18.124635696411133, -1.02490234375, 0.09033203125, -0.2060546875, 0, 
350, 1042337466, 0.50104820728302, 0.5450048446655273, -0.47337785363197327, 0.477327436208725, 8.84092903137207, 0.2559267282485962, -0.8063304424285889, 0.5034222602844238, -9.015532493591309, -14.102109909057617, -1.02587890625, 0.08935546875, -0.20654296875, 0, 
351, 1042345799, 0.5010946393013, 0.5456382036209106, -0.47337573766708374, 0.4765566289424896, 8.999933242797852, 0.4453427493572235, -0.8372138738632202, -1.1883468627929688, -9.157268524169922, -9.632259368896484, -1.02783203125, 0.08740234375, -0.19775390625, 0, 
352, 1042354132, 0.5010255575180054, 0.546147882938385, -0.47352567315101624, 0.4758959412574768, 9.011963844299316, 0.6168064475059509, -0.5742039680480957, -1.3640862703323364, -9.311107635498047, -6.185044288635254, -1.02587890625, 0.08447265625, -0.2001953125, 0, 
353, 1042362465, 0.5005261301994324, 0.5469233393669128, -0.473979115486145, 0.475078821182251, 9.15389633178711, 0.590632438659668, -0.4550968110561371, 0.6051235795021057, -17.127933502197266, -3.8845787048339844, -1.0283203125, 0.0859375, -0.20068359375, 0, 
354, 1042370798, 0.4995262324810028, 0.5480605959892273, -0.4746372699737549, 0.474162757396698, 9.613106727600098, 0.6198548674583435, -0.7734174728393555, 4.908880710601807, -24.904708862304688, -2.125291109085083, -1.02734375, 0.08544921875, -0.19677734375, 0, 
355, 1042379131, 0.4982888698577881, 0.5492793917655945, -0.4752459228038788, 0.47344422340393066, 9.92886734008789, 0.7628157138824463, -0.6948032379150391, 8.838594436645508, -25.159700393676758, -0.11236971616744995, -1.0283203125, 0.08544921875, -0.19091796875, 0, 
356, 1042387464, 0.4968622028827667, 0.5504918098449707, -0.47590896487236023, 0.47286877036094666, 10.522835731506348, 0.9277933835983276, -0.4711330831050873, 10.791810989379883, -25.64716911315918, 2.5416386127471924, -1.02880859375, 0.08251953125, -0.18798828125, 0, 
357, 1042395797, 0.49524521827697754, 0.5517123341560364, -0.4767411947250366, 0.4723038673400879, 10.811909675598145, 1.1199053525924683, -0.4652142822742462, 11.269516944885254, -28.021766662597656, 5.088284969329834, -1.03564453125, 0.0849609375, -0.1806640625, 0, 
358, 1042404130, 0.4936911165714264, 0.5526134967803955, -0.4775250256061554, 0.4720856547355652, 10.923262596130371, 1.3541555404663086, -0.6020017862319946, 11.180503845214844, -22.576885223388672, 8.760905265808105, -1.03564453125, 0.08447265625, -0.1787109375, 0, 
359, 1042412463, 0.49222105741500854, 0.5531872510910034, -0.4782607853412628, 0.4722038209438324, 10.697779655456543, 1.3690743446350098, -0.6361879706382751, 10.865601539611816, -17.01508140563965, 12.290420532226562, -1.03369140625, 0.0849609375, -0.17724609375, 0, 
360, 1042420796, 0.4906524419784546, 0.5536618232727051, -0.47893694043159485, 0.472594678401947, 10.749970436096191, 1.6842972040176392, -1.3005138635635376, 13.130721092224121, -14.53913402557373, 14.963601112365723, -1.03564453125, 0.0859375, -0.17529296875, 0, 
361, 1042429129, 0.4885243773460388, 0.5541826486587524, -0.4788860082626343, 0.47423768043518066, 10.628817558288574, 0.41688236594200134, -0.28011780977249146, 30.666627883911133, -4.0876145362854, 21.220319747924805, -1.03759765625, 0.09033203125, -0.17626953125, 0, 
362, 1042437462, 0.4880458414554596, 0.5540130138397217, -0.4795031249523163, 0.47430503368377686, 10.481100082397461, 0.41817930340766907, -0.5351036787033081, -1.2581329345703125, -5.2146100997924805, 9.502368927001953, -1.03466796875, 0.08935546875, -0.17578125, 0, 
363, 1042445795, 0.4879229664802551, 0.5536049008369446, -0.4800575077533722, 0.47434723377227783, 10.477518081665039, 0.4050649106502533, -0.8877665400505066, -5.3410539627075195, -1.0870680809020996, 8.121978759765625, -1.03564453125, 0.091796875, -0.1728515625, 0, 
364, 1042454128, 0.48794862627983093, 0.5530533790588379, -0.48042407631874084, 0.4745926558971405, 10.331361770629883, 0.12063658982515335, -0.8443637490272522, -4.876323223114014, 3.634096622467041, 8.023404121398926, -1.03466796875, 0.09228515625, -0.17431640625, 0, 
365, 1042462461, 0.4882858693599701, 0.5521973967552185, -0.48075369000434875, 0.47490882873535156, 10.2322998046875, -0.004002585541456938, -0.49213138222694397, -8.57121467590332, 8.468207359313965, 8.205148696899414, -1.0390625, 0.095703125, -0.17431640625, 0, 
366, 1042470794, 0.48871535062789917, 0.5512402653694153, -0.48120713233947754, 0.47511956095695496, 10.210875511169434, -0.091716468334198, -0.28085359930992126, -11.448847770690918, 8.106663703918457, 8.489724159240723, -1.0361328125, 0.09716796875, -0.177734375, 0, 
367, 1042479127, 0.48912695050239563, 0.5503090023994446, -0.48168137669563293, 0.4752950966358185, 10.204611778259277, -0.14290986955165863, -0.43414679169654846, -11.515650749206543, 7.411262512207031, 8.371770858764648, -1.03369140625, 0.09765625, -0.173828125, 0, 
368, 1042487460, 0.4894566833972931, 0.5494223237037659, -0.4820035398006439, 0.4756544828414917, 10.180789947509766, -0.13520357012748718, -0.5707680583000183, -8.373294830322266, 8.992583274841309, 8.678271293640137, -1.03369140625, 0.10009765625, -0.1787109375, 0, 
369, 1042495793, 0.4897017478942871, 0.5486046075820923, -0.48222967982292175, 0.47611671686172485, 10.344674110412598, -0.07791866362094879, -0.6684569716453552, -5.971396446228027, 9.403768539428711, 8.759288787841797, -1.03369140625, 0.10107421875, -0.17822265625, 0, 
370, 1042504126, 0.48997387290000916, 0.5476945042610168, -0.48240455985069275, 0.4767070710659027, 10.295244216918945, 0.1396448314189911, -0.752694845199585, -5.608288764953613, 11.499601364135742, 9.654352188110352, -1.03564453125, 0.10400390625, -0.17919921875, 0, 
371, 1042512459, 0.4902867376804352, 0.5466095209121704, -0.48263484239578247, 0.477397084236145, 10.124703407287598, 0.30109357833862305, -0.6840188503265381, -6.799684524536133, 13.294442176818848, 11.652161598205566, -1.03173828125, 0.103515625, -0.1826171875, 0, 
372, 1042520792, 0.49044567346572876, 0.5455518960952759, -0.4829758405685425, 0.47809842228889465, 9.976356506347656, 0.2894755005836487, -0.965522050857544, -6.123570919036865, 11.429137229919434, 13.375231742858887, -1.03173828125, 0.1083984375, -0.1845703125, 0, 
373, 1042529125, 0.49062398076057434, 0.5444389581680298, -0.4832013249397278, 0.4789556562900543, 9.942895889282227, 0.34207573533058167, -1.2994766235351562, -4.8336896896362305, 13.871330261230469, 13.81362247467041, -1.03125, 0.1083984375, -0.18701171875, 0, 
374, 1042537458, 0.49109065532684326, 0.5429752469062805, -0.4832015633583069, 0.4801371693611145, 9.893759727478027, 0.5983009934425354, -1.0717780590057373, -5.707086086273193, 22.045866012573242, 14.730154991149902, -1.03076171875, 0.11328125, -0.1884765625, 0, 
375, 1042545791, 0.4914036691188812, 0.5414558053016663, -0.4834369421005249, 0.48129451274871826, 9.679590225219727, 0.6958507895469666, -0.6207647919654846, -6.6629838943481445, 19.624422073364258, 17.72481918334961, -1.0283203125, 0.11279296875, -0.19140625, 0, 
376, 1042554124, 0.49111446738243103, 0.5402885675430298, -0.4840370714664459, 0.4822973310947418, 9.714620590209961, 0.638971209526062, -0.9619350433349609, -3.228649854660034, 9.675613403320312, 21.021211624145508, -1.03125, 0.1181640625, -0.19482421875, 0, 
377, 1042562457, 0.49066632986068726, 0.5391873121261597, -0.4846084415912628, 0.48341071605682373, 9.99862003326416, 0.5222719311714172, -1.4992846250534058, -0.6866539120674133, 9.194643020629883, 22.188289642333984, -1.02783203125, 0.12255859375, -0.1943359375, 0, 
378, 1042570790, 0.49063703417778015, 0.5377066731452942, -0.4850238859653473, 0.4846712350845337, 10.099339485168457, 0.6515702605247498, -1.219632625579834, -4.347263336181641, 16.652082443237305, 21.753671646118164, -1.029296875, 0.123046875, -0.19384765625, 0, 
379, 1042579123, 0.49079692363739014, 0.5360318422317505, -0.48558005690574646, 0.4858063757419586, 9.830950736999512, 0.704190731048584, -0.7826389074325562, -8.8187837600708, 17.33033561706543, 21.99712562561035, -1.0263671875, 0.1240234375, -0.1982421875, 0, 
380, 1042587456, 0.4906415641307831, 0.5346002578735352, -0.48638710379600525, 0.486732542514801, 9.55945110321045, 0.7278711199760437, -1.0422422885894775, -7.920029640197754, 10.370095252990723, 22.901277542114258, -1.03271484375, 0.12939453125, -0.20166015625, 0, 
381, 1042595789, 0.49031174182891846, 0.5332782864570618, -0.48713019490242004, 0.48777085542678833, 9.64974594116211, 0.8607400059700012, -1.537322759628296, -4.72470235824585, 9.722234725952148, 23.640840530395508, -1.02880859375, 0.13330078125, -0.2041015625, 0, 
382, 1042604122, 0.49004045128822327, 0.5319794416427612, -0.4877697825431824, 0.48882144689559937, 9.882362365722656, 0.9103943705558777, -1.5609371662139893, -4.199711799621582, 10.75202751159668, 22.396495819091797, -1.02490234375, 0.13232421875, -0.20166015625, 0, 
383, 1042612455, 0.4900822341442108, 0.530470609664917, -0.48827502131462097, 0.48991382122039795, 9.909529685974121, 1.1059192419052124, -1.2163368463516235, -6.7427215576171875, 15.468791961669922, 21.01947784423828, -1.02197265625, 0.1416015625, -0.201171875, 0, 
384, 1042620788, 0.49029454588890076, 0.52888023853302, -0.4887623190879822, 0.4909338057041168, 9.673433303833008, 0.9374412894248962, -1.0452473163604736, -8.888760566711426, 16.763620376586914, 19.78177261352539, -1.0234375, 0.14697265625, -0.208984375, 0, 
385, 1042629121, 0.4905182421207428, 0.5274176001548767, -0.4893921911716461, 0.4916558563709259, 9.621299743652344, 0.799074113368988, -1.2603986263275146, -11.087050437927246, 12.843355178833008, 17.891515731811523, -1.0234375, 0.146484375, -0.21142578125, 0, 
386, 1042637454, 0.4909555912017822, 0.525865375995636, -0.4899432361125946, 0.4923328161239624, 9.574130058288574, 0.9161972403526306, -1.3386436700820923, -13.000229835510254, 15.097383499145508, 16.157634735107422, -1.02294921875, 0.15087890625, -0.208984375, 0, 
387, 1042645787, 0.4914277493953705, 0.5244075655937195, -0.49058473110198975, 0.49277764558792114, 9.722151756286621, 0.6312164068222046, -1.4833332300186157, -14.804291725158691, 12.39638614654541, 14.38991641998291, -1.01953125, 0.15576171875, -0.21142578125, 0, 
388, 1042654120, 0.49189671874046326, 0.5230785012245178, -0.49132412672042847, 0.49298539757728577, 9.746443748474121, 0.7256641983985901, -1.56120765209198, -16.161256790161133, 9.141379356384277, 12.632932662963867, -1.0185546875, 0.15625, -0.21044921875, 0, 
389, 1042662453, 0.49269193410873413, 0.521478533744812, -0.49205282330513, 0.49315977096557617, 9.65615463256836, 0.9438807368278503, -1.1867550611495972, -20.504465103149414, 13.004240036010742, 11.961357116699219, -1.01904296875, 0.1591796875, -0.2119140625, 0, 
390, 1042670786, 0.4935283064842224, 0.5199443697929382, -0.493036687374115, 0.4929606020450592, 9.71059799194336, 0.6929939389228821, -1.1251617670059204, -24.61153221130371, 8.441882133483887, 10.523473739624023, -1.0185546875, 0.15869140625, -0.21533203125, 0, 
391, 1042679119, 0.4943268895149231, 0.5184779167175293, -0.4941564202308655, 0.492583692073822, 9.536287307739258, 0.6987366676330566, -1.3149627447128296, -26.00835609436035, 5.521729469299316, 10.09848403930664, -1.0185546875, 0.1650390625, -0.21435546875, 0, 
392, 1042687452, 0.49513742327690125, 0.5170636177062988, -0.49533069133758545, 0.4920763671398163, 9.241463661193848, 0.7408108115196228, -1.3284542560577393, -27.006540298461914, 3.9623589515686035, 9.154085159301758, -1.017578125, 0.16650390625, -0.212890625, 0, 
393, 1042695785, 0.49566414952278137, 0.5159319639205933, -0.4968004822731018, 0.49125146865844727, 9.732630729675293, 0.5271797180175781, -1.5116502046585083, -27.214963912963867, -4.1679253578186035, 9.099910736083984, -1.0205078125, 0.17041015625, -0.21435546875, 0, 
394, 1042704118, 0.4964326024055481, 0.5145469903945923, -0.4981531500816345, 0.49055787920951843, 9.969176292419434, 0.5449283719062805, -1.5064711570739746, -28.996540069580078, 0.9412853717803955, 9.251317024230957, -1.01953125, 0.1728515625, -0.21240234375, 0, 
395, 1042712451, 0.49754536151885986, 0.5127614140510559, -0.49934858083724976, 0.49008452892303467, 9.709917068481445, 0.5786486268043518, -1.079512357711792, -31.570343017578125, 8.618980407714844, 10.074844360351562, -1.01806640625, 0.177734375, -0.212890625, 0, 
396, 1042720784, 0.49862217903137207, 0.5109057426452637, -0.5007349252700806, 0.4895133972167969, 9.679207801818848, 0.22216302156448364, -0.7840921878814697, -33.78879928588867, 6.86466121673584, 11.464956283569336, -1.01513671875, 0.17724609375, -0.21484375, 0, 
397, 1042729117, 0.499556303024292, 0.5091007947921753, -0.5022549033164978, 0.488883912563324, 9.553805351257324, 0.27284806966781616, -0.8837930560112, -33.707000732421875, 4.198254585266113, 12.626141548156738, -1.0185546875, 0.18408203125, -0.2158203125, 0, 
398, 1042737450, 0.5003412961959839, 0.5073667168617249, -0.5037434101104736, 0.4883521795272827, 9.452032089233398, 0.4574008584022522, -0.7687766551971436, -31.29762840270996, 3.611316680908203, 13.579259872436523, -1.0205078125, 0.18798828125, -0.2138671875, 0, 
399, 1042745783, 0.5010674595832825, 0.5056833624839783, -0.5054278373718262, 0.487612783908844, 9.622841835021973, 0.11631079018115997, -0.5383604168891907, -33.28299331665039, 0.047066204249858856, 13.571063995361328, -1.01708984375, 0.1875, -0.21240234375, 0, 
400, 1042754116, 0.5022855997085571, 0.5037844777107239, -0.507566511631012, 0.4861009120941162, 9.930517196655273, 0.23830612003803253, -0.6608872413635254, -46.546180725097656, -3.568941116333008, 9.597609519958496, -1.01708984375, 0.1904296875, -0.2119140625, 0, 
401, 1042762449, 0.5035281777381897, 0.5016997456550598, -0.5093574523925781, 0.4850969910621643, 9.672996520996094, 0.5526222586631775, -0.7593993544578552, -42.1868896484375, 3.7424633502960205, 11.839186668395996, -1.0146484375, 0.19384765625, -0.2080078125, 0, 
402, 1042770782, 0.5047018527984619, 0.4997291564941406, -0.5110539197921753, 0.484126478433609, 9.681568145751953, 0.2673307955265045, -0.6254040598869324, -40.198707580566406, 3.4049692153930664, 11.076495170593262, -1.02001953125, 0.19921875, -0.2138671875, 0, 
403, 1042779115, 0.5054219365119934, 0.4980447292327881, -0.5125719308853149, 0.4835059642791748, 9.98603630065918, 0.5153260827064514, -0.5031705498695374, -31.305889129638672, 1.9352854490280151, 13.290239334106445, -1.01904296875, 0.20361328125, -0.2109375, 0, 
404, 1042787448, 0.5059475302696228, 0.4963625967502594, -0.5138359665870667, 0.48334401845932007, 10.426834106445312, 0.4117929935455322, 0.2842075228691101, -25.01105308532715, 5.478556156158447, 16.005094528198242, -1.015625, 0.20556640625, -0.20849609375, 0, 
405, 1042795781, 0.5065353512763977, 0.4946596622467041, -0.514807939529419, 0.48343995213508606, 10.680291175842285, 0.07513046264648438, 0.6450774669647217, -21.8435001373291, 9.824615478515625, 15.550655364990234, -1.013671875, 0.20947265625, -0.2099609375, 0, 
406, 1042804114, 0.5071841478347778, 0.4930577874183655, -0.5154524445533752, 0.48370930552482605, 10.992919921875, -0.26231712102890015, 1.0503876209259033, -18.10561180114746, 13.06904411315918, 13.400593757629395, -1.01220703125, 0.21240234375, -0.2119140625, 0, 
407, 1042812447, 0.5078940391540527, 0.49144309759140015, -0.5159261226654053, 0.48410236835479736, 11.200307846069336, -0.6291362643241882, 1.3574801683425903, -16.64078140258789, 15.592840194702148, 12.798760414123535, -1.01318359375, 0.21630859375, -0.2138671875, 0, 
408, 1042820780, 0.5085753798484802, 0.49005353450775146, -0.5162879824638367, 0.48440980911254883, 11.268438339233398, -0.9532128572463989, 1.3338608741760254, -14.839177131652832, 14.115486145019531, 10.033214569091797, -1.0107421875, 0.22021484375, -0.212890625, 0, 
409, 1042829113, 0.5092284679412842, 0.48891884088516235, -0.5163323879241943, 0.48482275009155273, 11.166238784790039, -1.8670127391815186, 1.1183992624282837, -9.901005744934082, 15.126965522766113, 7.0131659507751465, -1.01318359375, 0.22265625, -0.21728515625, 0, 
410, 1042837446, 0.5097551941871643, 0.4880727231502533, -0.5161353349685669, 0.4853314161300659, 11.053641319274902, -1.9538218975067139, 0.8979542255401611, -4.449628829956055, 14.6565580368042, 4.842410087585449, -1.01025390625, 0.2216796875, -0.2177734375, 0, 
411, 1042845779, 0.5104418396949768, 0.4872644543647766, -0.5154640674591064, 0.4861348867416382, 10.896476745605469, -1.952588677406311, 0.9006601572036743, -0.2910546362400055, 20.827953338623047, 2.402500629425049, -1.01123046875, 0.2177734375, -0.220703125, 0, 
412, 1042854112, 0.511183500289917, 0.48653948307037354, -0.5144739151000977, 0.4871295392513275, 10.461519241333008, -1.994156837463379, 0.9427160620689392, 3.2545595169067383, 24.19459342956543, 0.6383199691772461, -1.0107421875, 0.22216796875, -0.22412109375, 0, 
413, 1042862445, 0.5116679072380066, 0.48605847358703613, -0.513502836227417, 0.48812487721443176, 9.964120864868164, -1.7556370496749878, 1.1077123880386353, 6.723674774169922, 20.594606399536133, 0.7805044054985046, -1.0078125, 0.2216796875, -0.2275390625, 0, 
414, 1042870778, 0.5119668245315552, 0.48569244146347046, -0.5123600959777832, 0.4893748462200165, 9.676114082336426, -0.7579941153526306, 0.760269045829773, 11.663434028625488, 21.4355525970459, 1.84195876121521, -1.009765625, 0.21875, -0.2314453125, 0, 
415, 1042879111, 0.5122455954551697, 0.4853348731994629, -0.5114498734474182, 0.49038881063461304, 9.877538681030273, -0.6185511350631714, 0.9555214643478394, 8.688825607299805, 18.01049041748047, 1.8246692419052124, -1.00634765625, 0.21826171875, -0.23388671875, 0, 
416, 1042887444, 0.5123002529144287, 0.48505860567092896, -0.5105539560317993, 0.4915372431278229, 9.774237632751465, 0.18297362327575684, 0.6071448922157288, 11.772985458374023, 16.693584442138672, 3.7892818450927734, -1.00634765625, 0.21923828125, -0.236328125, 0, 
417, 1042895777, 0.5119661092758179, 0.48493582010269165, -0.5095744132995605, 0.4930206537246704, 9.711100578308105, 0.5633891224861145, 0.9802313446998596, 18.197372436523438, 15.73858642578125, 7.159041404724121, -1.00341796875, 0.22216796875, -0.23681640625, 0, 
418, 1042904110, 0.511135458946228, 0.48514631390571594, -0.5088775157928467, 0.4943934381008148, 9.591185569763184, 0.9420834183692932, 1.1450788974761963, 21.11765480041504, 7.284090518951416, 9.27744197845459, -1.00390625, 0.22314453125, -0.2392578125, 0, 
419, 1042912443, 0.5098366141319275, 0.48581045866012573, -0.5085331797599792, 0.49543577432632446, 9.897358894348145, 1.1841650009155273, 1.2021820545196533, 22.767852783203125, -3.7710320949554443, 9.333614349365234, -1.00244140625, 0.22265625, -0.2392578125, 0, 
420, 1042920776, 0.5086672306060791, 0.4864994287490845, -0.508444607257843, 0.49605220556259155, 10.138145446777344, 1.1603755950927734, 0.8299353122711182, 17.563095092773438, -7.666304111480713, 6.984286785125732, -1.00341796875, 0.22265625, -0.24169921875, 0, 
421, 1042929109, 0.5079630613327026, 0.4870365858078003, -0.5081686973571777, 0.4965290129184723, 10.10935115814209, 0.9597522020339966, 0.3716886341571808, 13.483875274658203, -3.0070736408233643, 2.6590147018432617, -1.00732421875, 0.2197265625, -0.23876953125, 0, 
422, 1042937442, 0.5077036023139954, 0.4873614013195038, -0.5077966451644897, 0.4968562722206116, 9.756451606750488, 1.0589797496795654, 0.15472735464572906, 8.632291793823242, 1.225346565246582, -0.5968886017799377, -1.0048828125, 0.2197265625, -0.24169921875, 0, 
423, 1042945775, 0.5077391266822815, 0.48749464750289917, -0.5074970126152039, 0.4969954788684845, 9.595808029174805, 1.15194571018219, 0.1583012491464615, 3.511852264404297, 2.823777198791504, -2.087611436843872, -1.00537109375, 0.2197265625, -0.2421875, 0, 
424, 1042954108, 0.5081169009208679, 0.48742231726646423, -0.5071967244148254, 0.49698683619499207, 9.512350082397461, 0.8423295617103577, 0.22436904907226562, -1.2449285984039307, 5.6351447105407715, -4.040619850158691, -1.00634765625, 0.2216796875, -0.244140625, 0, 
425, 1042962441, 0.5087124705314636, 0.4872041642665863, -0.506922721862793, 0.49687108397483826, 9.51517105102539, 0.7051852345466614, 0.4700195789337158, -4.652185440063477, 7.243180751800537, -5.071080207824707, -1.00341796875, 0.21826171875, -0.23876953125, 0, 
426, 1042970774, 0.5092760324478149, 0.4871334135532379, -0.5067721605300903, 0.49651655554771423, 9.507028579711914, 0.6750755310058594, 0.6694229245185852, -5.923151016235352, 3.5565106868743896, -6.7356343269348145, -1.00341796875, 0.220703125, -0.23974609375, 0, 
427, 1042979107, 0.5097364187240601, 0.48726731538772583, -0.5067452788352966, 0.49593982100486755, 9.646302223205566, 0.5671668648719788, 0.5534831881523132, -6.182662010192871, -0.9204220175743103, -8.172222137451172, -1.005859375, 0.21728515625, -0.23974609375, 0, 
428, 1042987440, 0.5102168917655945, 0.4875172972679138, -0.5067493319511414, 0.49519532918930054, 9.750722885131836, 0.4147103726863861, 0.5415315628051758, -6.967931270599365, -2.909278154373169, -10.098631858825684, -1.0029296875, 0.21533203125, -0.23974609375, 0, 
429, 1042995773, 0.5107817649841309, 0.48783499002456665, -0.5067431330680847, 0.4943056106567383, 9.913615226745605, 0.24295330047607422, 0.5058771371841431, -7.915762424468994, -3.6859021186828613, -12.221746444702148, -1.0029296875, 0.216796875, -0.2421875, 0, 
430, 1043004106, 0.5114344954490662, 0.48816317319869995, -0.5066514611244202, 0.4933996796607971, 10.043392181396484, 0.06354982405900955, 0.518433153629303, -8.236258506774902, -2.6524057388305664, -13.588276863098145, -1.00634765625, 0.21533203125, -0.240234375, 0, 
431, 1043012439, 0.5121649503707886, 0.4884515702724457, -0.5064539909362793, 0.4925585985183716, 10.17997932434082, -0.12562426924705505, 0.6274116039276123, -7.596721649169922, -0.6661750674247742, -14.083322525024414, -1.0048828125, 0.21337890625, -0.2392578125, 0, 
432, 1043020772, 0.5129473805427551, 0.4886856973171234, -0.506199061870575, 0.4917736053466797, 10.24721622467041, -0.2921488583087921, 0.6936780214309692, -7.53109884262085, 0.8506104946136475, -14.05960464477539, -1.00537109375, 0.2119140625, -0.23876953125, 0, 
433, 1043029105, 0.5137298703193665, 0.48895809054374695, -0.5057665705680847, 0.4911308288574219, 10.313474655151367, -0.46032288670539856, 0.6256678700447083, -5.087499618530273, 2.797574520111084, -14.505011558532715, -1.005859375, 0.2119140625, -0.23779296875, 0, 
434, 1043037438, 0.5145800709724426, 0.48912155628204346, -0.5051224231719971, 0.4907405972480774, 10.293318748474121, -0.48416921496391296, 0.7076698541641235, -3.268428325653076, 7.1962056159973145, -13.853743553161621, -1.00390625, 0.21142578125, -0.2392578125, 0, 
435, 1043045771, 0.5154327750205994, 0.4891916513442993, -0.5043401122093201, 0.49058032035827637, 10.185547828674316, -0.4086942970752716, 0.9455406069755554, -1.274180293083191, 10.367606163024902, -12.514195442199707, -1.00537109375, 0.20751953125, -0.24072265625, 0, 
436, 1043054104, 0.5162162184715271, 0.48927047848701477, -0.5035597681999207, 0.4904797673225403, 10.214349746704102, -0.41297394037246704, 1.207251787185669, -0.091468445956707, 10.218045234680176, -11.680298805236816, -1.00537109375, 0.2060546875, -0.24169921875, 0, 
437, 1043062437, 0.5169591307640076, 0.489402711391449, -0.5027594566345215, 0.490386426448822, 10.065058708190918, -0.3642841875553131, 1.2761448621749878, 0.49170371890068054, 9.765542984008789, -11.851273536682129, -1.005859375, 0.20361328125, -0.24365234375, 0, 
438, 1043070770, 0.5177012085914612, 0.4895697236061096, -0.5018380284309387, 0.4903807044029236, 9.761210441589355, -0.3431418836116791, 1.1703598499298096, 2.2709970474243164, 10.976587295532227, -12.286460876464844, -1.00537109375, 0.20068359375, -0.24462890625, 0, 
439, 1043079103, 0.5183683633804321, 0.4898598790168762, -0.500754714012146, 0.4904937744140625, 9.49771785736084, -0.3471956253051758, 1.1836581230163574, 5.459765911102295, 11.58128833770752, -12.867801666259766, -1.00341796875, 0.1962890625, -0.24609375, 0, 
440, 1043087436, 0.518871545791626, 0.4903606176376343, -0.4995935559272766, 0.49064505100250244, 9.481536865234375, -0.40342140197753906, 1.0690231323242188, 8.838796615600586, 9.839493751525879, -13.475346565246582, -1.00341796875, 0.1982421875, -0.24755859375, 0, 
441, 1043095769, 0.5191729664802551, 0.4911075234413147, -0.49853429198265076, 0.4906564950942993, 9.69875431060791, -0.2924240529537201, 0.980670690536499, 10.321732521057129, 5.127369403839111, -14.103279113769531, -1.005859375, 0.19287109375, -0.2490234375, 0, 
442, 1043104102, 0.5194031596183777, 0.4919034242630005, -0.4975215792655945, 0.49064356088638306, 9.781502723693848, -0.15625569224357605, 0.8719325661659241, 10.753026008605957, 3.8060076236724854, -13.830692291259766, -1.00341796875, 0.19189453125, -0.25048828125, 0, 
443, 1043112435, 0.5194987058639526, 0.4927695393562317, -0.49650660157203674, 0.49070143699645996, 9.556215286254883, -0.025244588032364845, 0.7693766355514526, 12.582520484924316, 2.9125053882598877, -12.899971008300781, -1.00341796875, 0.1865234375, -0.2529296875, 0, 
444, 1043120768, 0.5194350481033325, 0.4937450885772705, -0.4955570101737976, 0.49074816703796387, 9.39702033996582, 0.1682806760072708, 0.671431303024292, 13.946328163146973, 0.5358371734619141, -12.221170425415039, -1.0048828125, 0.1865234375, -0.25146484375, 0, 
445, 1043129101, 0.5192358493804932, 0.49483340978622437, -0.49471381306648254, 0.49071353673934937, 9.454808235168457, 0.32044413685798645, 0.5265210866928101, 14.38007926940918, -2.454228639602661, -11.923481941223145, -1.00390625, 0.18359375, -0.2490234375, 0, 
446, 1043137434, 0.5190479159355164, 0.4958948791027069, -0.4939982295036316, 0.49056148529052734, 9.530073165893555, 0.23724734783172607, 0.4817367196083069, 12.481013298034668, -3.9130876064300537, -11.798457145690918, -1.0048828125, 0.181640625, -0.2509765625, 0, 
447, 1043145767, 0.5188696980476379, 0.4969595968723297, -0.4933445453643799, 0.49033042788505554, 9.55345344543457, 0.05365685746073723, 0.36589324474334717, 11.454804420471191, -4.843217849731445, -12.014436721801758, -1.0048828125, 0.18115234375, -0.2509765625, 0, 
448, 1043154100, 0.5186914205551147, 0.49802759289741516, -0.492664098739624, 0.4901195764541626, 9.406474113464355, -0.06331206113100052, 0.26937544345855713, 11.826260566711426, -4.544478416442871, -12.088050842285156, -1.00439453125, 0.17626953125, -0.25244140625, 0, 
449, 1043162433, 0.5183836817741394, 0.4992040991783142, -0.49195706844329834, 0.48995843529701233, 9.266602516174316, 0.0071414257399737835, 0.1629084199666977, 13.973810195922852, -5.613412380218506, -11.766618728637695, -1.00732421875, 0.17431640625, -0.25, 0, 
