PacketCounter,SampleTimeFine,Quat_W,Quat_X,Quat_Y,Quat_Z,Acc_X,Acc_Y,Acc_Z,Gyr_X,Gyr_Y,Gyr_Z,Mag_X,Mag_Y,Mag_Z,Status,
0, 1006755556, 0.5544030666351318, 0.4435802698135376, -0.5495356917381287, 0.4403315484523773, 0, 0, 0, 0, 0, 0, -1.01220703125, 0.23681640625, -0.21337890625, 0, 
1, 1006763889, 0.5544496774673462, 0.44357830286026, -0.5495499968528748, 0.4402570128440857, 9.880050659179688, 0.12296463549137115, -0.0005724753136746585, -1.1516159772872925, 0.2552330493927002, -0.6267803311347961, -1.01025390625, 0.23486328125, -0.2138671875, 0, 
2, 1006772222, 0.5544838905334473, 0.4435836672782898, -0.5495704412460327, 0.4401828646659851, 9.87773323059082, 0.11565420031547546, 0.012539315037429333, -1.0537183284759521, 0.1468079835176468, -0.5286521911621094, -1.0107421875, 0.2353515625, -0.2119140625, 0, 
3, 1006780555, 0.5545074343681335, 0.4436085522174835, -0.5495977401733398, 0.4400941729545593, 9.897396087646484, 0.12184152752161026, 0.01982768066227436, -0.9920265078544617, -0.26629838347435, -0.7198495864868164, -1.0107421875, 0.2353515625, -0.2119140625, 0, 
4, 1006788888, 0.5545250177383423, 0.4436536431312561, -0.5496093034744263, 0.44001200795173645, 9.916888236999512, 0.12372280657291412, 0.002453808905556798, -0.6549175381660461, -0.20157121121883392, -0.8439505696296692, -1.01318359375, 0.2314453125, -0.212890625, 0, 
5, 1006797221, 0.5545315742492676, 0.44370293617248535, -0.5496228933334351, 0.4399370551109314, 9.911422729492188, 0.11863705515861511, -0.030027635395526886, -0.5161781311035156, -0.3551925718784332, -0.7797741293907166, -1.009765625, 0.23486328125, -0.21533203125, 0, 
6, 1006805554, 0.5545231103897095, 0.4437626004219055, -0.5496301054954529, 0.4398786425590515, 9.89474105834961, 0.10800083726644516, -0.006873721722513437, -0.17760908603668213, -0.3076525628566742, -0.6408937573432922, -1.013671875, 0.2353515625, -0.2119140625, 0, 
7, 1006813887, 0.5545001029968262, 0.443816602230072, -0.5496393442153931, 0.4398415684700012, 9.907746315002441, 0.12087589502334595, 0.02990603633224964, 0.012922382913529873, -0.34195002913475037, -0.3742240071296692, -1.01171875, 0.23193359375, -0.21435546875, 0, 
8, 1006822220, 0.5544676780700684, 0.4438711404800415, -0.5496593117713928, 0.43980246782302856, 9.90630054473877, 0.11537536978721619, 0.017603153362870216, -0.003227393375709653, -0.4383363723754883, -0.23324322700500488, -1.0146484375, 0.23291015625, -0.20947265625, 0, 
9, 1006830553, 0.5544213652610779, 0.443936824798584, -0.5496892929077148, 0.43975698947906494, 9.933181762695312, 0.09501121193170547, -0.016329940408468246, 0.05628727748990059, -0.797832190990448, -0.2588062286376953, -1.01416015625, 0.236328125, -0.21435546875, 0, 
10, 1006838886, 0.5543785095214844, 0.4439988136291504, -0.5497153401374817, 0.4397159814834595, 9.96345329284668, 0.06747282296419144, -0.017674658447504044, 0.06458628922700882, -0.6203255653381348, -0.20493948459625244, -1.01025390625, 0.23388671875, -0.2109375, 0, 
11, 1006847219, 0.5543521046638489, 0.4440518319606781, -0.5497137308120728, 0.43969786167144775, 9.946070671081543, 0.07104919105768204, -0.008776538074016571, 0.2359967827796936, -0.1638798862695694, -0.26700279116630554, -1.01220703125, 0.23486328125, -0.2158203125, 0, 
12, 1006855552, 0.5543333292007446, 0.44409826397895813, -0.5497034192085266, 0.4396872818470001, 9.955033302307129, 0.060334231704473495, 0.0007009786204434931, 0.2501358091831207, 0.11842741072177887, -0.22333049774169922, -1.0126953125, 0.234375, -0.21142578125, 0, 
13, 1006863885, 0.5543056130409241, 0.44414475560188293, -0.5496991276741028, 0.43968063592910767, 9.946815490722656, 0.07935357093811035, 0.0022457647137343884, 0.29745811223983765, -0.04263489320874214, -0.1383552849292755, -1.0107421875, 0.232421875, -0.21044921875, 0, 
14, 1006872218, 0.554283857345581, 0.44418853521347046, -0.5496900081634521, 0.4396752715110779, 9.931679725646973, 0.10439573973417282, -0.023747438564896584, 0.2784266769886017, 0.1333220899105072, -0.13679280877113342, -1.0126953125, 0.23388671875, -0.21240234375, 0, 
15, 1006880551, 0.5542573928833008, 0.444222092628479, -0.5496848821640015, 0.43968111276626587, 9.905936241149902, 0.12682665884494781, -0.01646597869694233, 0.2910289168357849, 0.1292494237422943, 0.040701013058423996, -1.01220703125, 0.2333984375, -0.2138671875, 0, 
16, 1006888884, 0.5542245507240295, 0.44427481293678284, -0.5496746301651001, 0.43968215584754944, 9.888519287109375, 0.14372918009757996, -0.009777813218533993, 0.47054630517959595, 0.04153347760438919, -0.09630951285362244, -1.01220703125, 0.232421875, -0.212890625, 0, 
17, 1006897217, 0.5541920065879822, 0.4443318545818329, -0.5496643781661987, 0.43967825174331665, 9.887961387634277, 0.16349241137504578, 0.0004718272830359638, 0.4638865888118744, -0.08007009327411652, -0.20406858623027802, -1.01220703125, 0.232421875, -0.21240234375, 0, 
18, 1006905550, 0.5541616678237915, 0.44440537691116333, -0.549644947052002, 0.4396666884422302, 9.896086692810059, 0.1722547709941864, -0.01748870126903057, 0.573502779006958, -0.07106669992208481, -0.42139261960983276, -1.01416015625, 0.23388671875, -0.20947265625, 0, 
19, 1006913883, 0.5541303157806396, 0.4444738030433655, -0.5496347546577454, 0.4396497309207916, 9.897682189941406, 0.18244756758213043, -0.04089280217885971, 0.4443429112434387, -0.22128136456012726, -0.3972511291503906, -1.0146484375, 0.23486328125, -0.21240234375, 0, 
20, 1006922216, 0.5541052222251892, 0.4445398449897766, -0.5496160984039307, 0.43963783979415894, 9.921879768371582, 0.1599876433610916, -0.03436225652694702, 0.477718323469162, 0.007236022036522627, -0.39271748065948486, -1.01318359375, 0.2333984375, -0.212890625, 0, 
21, 1006930549, 0.5540881156921387, 0.4445995092391968, -0.5495874285697937, 0.43963488936424255, 9.922022819519043, 0.14199107885360718, -0.03709464520215988, 0.5079943537712097, 0.1666078120470047, -0.4246840476989746, -1.0087890625, 0.232421875, -0.21240234375, 0, 
22, 1006938882, 0.5540850162506104, 0.44464239478111267, -0.5495597124099731, 0.43963003158569336, 9.947122573852539, 0.10858730971813202, -0.02163735032081604, 0.2742900252342224, 0.42451751232147217, -0.3518371284008026, -1.0146484375, 0.23486328125, -0.20849609375, 0, 
23, 1006947215, 0.5540838837623596, 0.44468265771865845, -0.5495302081108093, 0.4396275281906128, 9.914727210998535, 0.13698409497737885, -0.0330890528857708, 0.27034541964530945, 0.4120177626609802, -0.3748130798339844, -1.0146484375, 0.23193359375, -0.21142578125, 0, 
24, 1006955548, 0.5540762543678284, 0.44472628831863403, -0.5495143532752991, 0.43961289525032043, 9.90195083618164, 0.1440870612859726, -0.015278780832886696, 0.16361092031002045, 0.23768727481365204, -0.3342401683330536, -1.01220703125, 0.2353515625, -0.2119140625, 0, 
25, 1006963881, 0.5540620684623718, 0.44476428627967834, -0.5495083332061768, 0.43959981203079224, 9.886880874633789, 0.16019506752490997, -0.03732353448867798, 0.11125542223453522, 0.08384820073843002, -0.21541573107242584, -1.00927734375, 0.23193359375, -0.21337890625, 0, 
26, 1006972214, 0.5540481209754944, 0.44480761885643005, -0.5495086312294006, 0.4395732283592224, 9.864251136779785, 0.17118901014328003, -0.02515651471912861, 0.010822013951838017, -0.005609516985714436, -0.28616222739219666, -1.0126953125, 0.23291015625, -0.21337890625, 0, 
27, 1006980547, 0.5540319681167603, 0.4448535740375519, -0.5495167374610901, 0.4395369589328766, 9.853828430175781, 0.1538648009300232, -0.05376791954040527, -0.07638164609670639, -0.22768491506576538, -0.35583293437957764, -1.01220703125, 0.232421875, -0.212890625, 0, 
28, 1006988880, 0.5540115833282471, 0.4449083209037781, -0.5495234131813049, 0.4394989609718323, 9.882110595703125, 0.1583925485610962, -0.04905419796705246, 0.013690808787941933, -0.24159345030784607, -0.3797566294670105, -1.01318359375, 0.23291015625, -0.2119140625, 0, 
29, 1006997213, 0.554007351398468, 0.44494396448135376, -0.5495196580886841, 0.439473032951355, 9.88125228881836, 0.15641836822032928, -0.044590823352336884, -0.07802096754312515, 0.07662498205900192, -0.3425903916358948, -1.013671875, 0.23193359375, -0.21142578125, 0, 
30, 1007005546, 0.5539986491203308, 0.44498422741889954, -0.5495263934135437, 0.4394345283508301, 9.904012680053711, 0.15135416388511658, -0.0028825956396758556, -0.17429207265377045, -0.06863334774971008, -0.3446267545223236, -1.01171875, 0.2333984375, -0.212890625, 0, 
31, 1007013879, 0.553982138633728, 0.4450291097164154, -0.5495532155036926, 0.4393764138221741, 9.909383773803711, 0.14438728988170624, 0.008719315752387047, -0.36046913266181946, -0.5012449622154236, -0.39604732394218445, -1.0126953125, 0.23095703125, -0.21240234375, 0, 
32, 1007022212, 0.5539619326591492, 0.44507884979248047, -0.5495980978012085, 0.4392954707145691, 9.907903671264648, 0.1524127721786499, -0.016952237114310265, -0.5809308290481567, -0.7641494274139404, -0.4376448094844818, -1.01318359375, 0.23095703125, -0.20947265625, 0, 
33, 1007030545, 0.5539423227310181, 0.4451228976249695, -0.5496570467948914, 0.43920189142227173, 9.885844230651855, 0.1661963015794754, -0.04854634404182434, -0.8096659779548645, -0.981178879737854, -0.44522660970687866, -1.01318359375, 0.23193359375, -0.21044921875, 0, 
34, 1007038878, 0.553911566734314, 0.4451955258846283, -0.5497244596481323, 0.43908247351646423, 9.926758766174316, 0.14786314964294434, -0.035471271723508835, -0.7684526443481445, -1.3897771835327148, -0.7018812298774719, -1.01171875, 0.232421875, -0.20947265625, 0, 
35, 1007047211, 0.5538682341575623, 0.4452778100967407, -0.5497971177101135, 0.4389626979827881, 9.93579387664795, 0.1507030874490738, -0.046646736562252045, -0.6550072431564331, -1.6556018590927124, -0.7054929733276367, -1.01416015625, 0.232421875, -0.20947265625, 0, 
36, 1007055544, 0.5538274645805359, 0.4453619718551636, -0.5498536825180054, 0.4388580918312073, 9.932952880859375, 0.12087589502334595, -0.0579022653400898, -0.4413332939147949, -1.3622418642044067, -0.68172287940979, -1.01220703125, 0.22998046875, -0.21142578125, 0, 
37, 1007063877, 0.5537991523742676, 0.44542521238327026, -0.5499009490013123, 0.4387704133987427, 9.935104370117188, 0.089546799659729, -0.0708630159497261, -0.49563539028167725, -1.0378376245498657, -0.5629496574401855, -1.01220703125, 0.228515625, -0.2119140625, 0, 
38, 1007072210, 0.5537844896316528, 0.44547194242477417, -0.5499442219734192, 0.43868714570999146, 9.949190139770508, 0.09508274495601654, -0.05205123871564865, -0.6465545892715454, -0.7066199779510498, -0.47588691115379333, -1.013671875, 0.23193359375, -0.21240234375, 0, 
39, 1007080543, 0.5537723898887634, 0.4455025792121887, -0.5499763488769531, 0.4386311173439026, 9.928561210632324, 0.1196172907948494, -0.0616072416305542, -0.5130787491798401, -0.4101095497608185, -0.26587575674057007, -1.013671875, 0.23095703125, -0.2099609375, 0, 
40, 1007088876, 0.5537371039390564, 0.4455447196960449, -0.5500298142433167, 0.4385657012462616, 9.91917610168457, 0.13664764165878296, -0.06416819244623184, -0.481598824262619, -0.8018279671669006, -0.11928549408912659, -1.0107421875, 0.23486328125, -0.2099609375, 0, 
41, 1007097209, 0.5536841750144958, 0.4455966055393219, -0.550097644329071, 0.4384947121143341, 9.935585021972656, 0.166840061545372, -0.1059693694114685, -0.4292689263820648, -1.2106056213378906, -0.07517778128385544, -1.01513671875, 0.2314453125, -0.20556640625, 0, 
42, 1007105542, 0.5536293983459473, 0.44564706087112427, -0.5501641631126404, 0.4384292960166931, 9.937881469726562, 0.18844164907932281, -0.12950222194194794, -0.3781685531139374, -1.1000031232833862, 0.01709749922156334, -1.01708984375, 0.2314453125, -0.20654296875, 0, 
43, 1007113875, 0.5535777807235718, 0.4457016885280609, -0.5502157211303711, 0.43837428092956543, 9.91950511932373, 0.19355593621730804, -0.13998828828334808, -0.19681978225708008, -0.9940884709358215, -0.08439891040325165, -1.0107421875, 0.23291015625, -0.208984375, 0, 
44, 1007122208, 0.5534917116165161, 0.44579002261161804, -0.5502793192863464, 0.4383130967617035, 9.950878143310547, 0.20432095229625702, -0.13449490070343018, 0.152174174785614, -1.5179123878479004, -0.06714772433042526, -1.0107421875, 0.23193359375, -0.20751953125, 0, 
45, 1007130541, 0.553395688533783, 0.4458855390548706, -0.5503407716751099, 0.4382600486278534, 9.959595680236816, 0.19412080943584442, -0.11545403301715851, 0.34119442105293274, -1.6401820182800293, -0.0487695038318634, -1.0126953125, 0.23193359375, -0.20703125, 0, 
46, 1007138874, 0.5533125996589661, 0.44597354531288147, -0.5503994822502136, 0.43820178508758545, 9.974037170410156, 0.16609607636928558, -0.11263581365346909, 0.1832314133644104, -1.437317132949829, -0.08944490551948547, -1.013671875, 0.2333984375, -0.20849609375, 0, 
47, 1007147207, 0.553243100643158, 0.44605734944343567, -0.550446093082428, 0.4381456971168518, 9.96614933013916, 0.152427077293396, -0.10868744552135468, 0.15695121884346008, -1.272412657737732, -0.23613762855529785, -1.01416015625, 0.23388671875, -0.20703125, 0, 
48, 1007155540, 0.5531740188598633, 0.44612839818000793, -0.5505021810531616, 0.43808993697166443, 9.987194061279297, 0.12820039689540863, -0.08977534621953964, 0.0024717734195291996, -1.1958261728286743, -0.04213541001081467, -1.01416015625, 0.22900390625, -0.20654296875, 0, 
49, 1007163873, 0.5531210899353027, 0.44617748260498047, -0.5505468249320984, 0.4380505383014679, 9.965611457824707, 0.12304328382015228, -0.0770861878991127, -0.07107950747013092, -0.8214228749275208, 0.04283980652689934, -1.01318359375, 0.23046875, -0.2060546875, 0, 
50, 1007172206, 0.5530721545219421, 0.4462071657180786, -0.5505979657173157, 0.4380180239677429, 9.952753067016602, 0.1428563892841339, -0.0840100571513176, -0.2307586371898651, -0.6137939095497131, 0.2947045862674713, -1.0146484375, 0.2314453125, -0.2080078125, 0, 
51, 1007180539, 0.5530301928520203, 0.4462222158908844, -0.5506474375724792, 0.43799343705177307, 9.926121711730957, 0.14669765532016754, -0.154265359044075, -0.31336453557014465, -0.47942161560058594, 0.3772336542606354, -1.01416015625, 0.2333984375, -0.2080078125, 0, 
52, 1007188872, 0.5529851913452148, 0.4462367296218872, -0.5506982803344727, 0.4379715323448181, 9.888440132141113, 0.1456676423549652, -0.1429281085729599, -0.28775033354759216, -0.4239412248134613, 0.4657052457332611, -1.01513671875, 0.234375, -0.20703125, 0, 
53, 1007197205, 0.5529564619064331, 0.44624143838882446, -0.5507365465164185, 0.4379550516605377, 9.904047966003418, 0.17314887046813965, -0.139973983168602, -0.34466513991355896, -0.18283440172672272, 0.3680381178855896, -1.01416015625, 0.22900390625, -0.20849609375, 0, 
54, 1007205538, 0.5529458522796631, 0.44624820351600647, -0.5507627129554749, 0.4379286468029022, 9.881552696228027, 0.14697661995887756, -0.12204180657863617, -0.4435873031616211, 0.04283980652689934, 0.13192610442638397, -1.0146484375, 0.23095703125, -0.20654296875, 0, 
55, 1007213871, 0.5529558658599854, 0.44624555110931396, -0.5507627129554749, 0.43791863322257996, 9.912195205688477, 0.149859219789505, -0.12619760632514954, -0.36016175150871277, 0.4859660565853119, 0.004905125591903925, -1.01416015625, 0.23193359375, -0.20556640625, 0, 
56, 1007222204, 0.5529578328132629, 0.44626423716545105, -0.5507637858390808, 0.4378955066204071, 9.924935340881348, 0.1574845314025879, -0.1164771318435669, -0.25309422612190247, 0.27800410985946655, -0.16462267935276031, -1.013671875, 0.23291015625, -0.20361328125, 0, 
57, 1007230537, 0.5529565811157227, 0.44627922773361206, -0.5507767200469971, 0.43786561489105225, 9.936650276184082, 0.16828493773937225, -0.08056247234344482, -0.3841750919818878, 0.07425566017627716, -0.1333092898130417, -1.01513671875, 0.228515625, -0.2060546875, 0, 
58, 1007238870, 0.5529495477676392, 0.44628751277923584, -0.5508002638816833, 0.4378364682197571, 9.952343940734863, 0.13753476738929749, -0.07794459909200668, -0.4588789939880371, 0.06312627345323563, 0.06207609549164772, -1.01513671875, 0.22705078125, -0.20556640625, 0, 
59, 1007247203, 0.5529595613479614, 0.4462810158729553, -0.5508041381835938, 0.43782544136047363, 9.930447578430176, 0.14117510616779327, -0.10062624514102936, -0.4200734794139862, 0.4733639061450958, 0.05103636905550957, -1.01171875, 0.232421875, -0.20556640625, 0, 
60, 1007255536, 0.5529599189758301, 0.44627976417541504, -0.5508239269256592, 0.4378015697002411, 9.914405822753906, 0.16359303891658783, -0.11114073544740677, -0.5145387649536133, 0.23889115452766418, 0.10556906461715698, -1.01513671875, 0.23388671875, -0.20751953125, 0, 
61, 1007263869, 0.5529482960700989, 0.44627031683921814, -0.55085688829422, 0.4377843141555786, 9.908103942871094, 0.1767038255929947, -0.15655426681041718, -0.5315209627151489, 0.06758315116167068, 0.33356133103370667, -1.0166015625, 0.23193359375, -0.20703125, 0, 
62, 1007272202, 0.5529413819313049, 0.4462668299674988, -0.550879955291748, 0.43776750564575195, 9.887045860290527, 0.15970152616500854, -0.19113826751708984, -0.4526803493499756, 0.21496745944023132, 0.24076099693775177, -1.01171875, 0.23095703125, -0.2041015625, 0, 
63, 1007280535, 0.5529419779777527, 0.4462500214576721, -0.5509054660797119, 0.43775174021720886, 9.909412384033203, 0.18631725013256073, -0.1678486168384552, -0.607339084148407, 0.2694745659828186, 0.2830756902694702, -1.0126953125, 0.2333984375, -0.20654296875, 0, 
64, 1007288868, 0.5529488325119019, 0.446239173412323, -0.5509209036827087, 0.43773484230041504, 9.922566413879395, 0.20665279030799866, -0.13958773016929626, -0.5460442900657654, 0.42129015922546387, 0.16540393233299255, -1.01318359375, 0.23388671875, -0.20654296875, 0, 
65, 1007297201, 0.5529448986053467, 0.44623568654060364, -0.5509543418884277, 0.4377012252807617, 9.949991226196289, 0.21624474227428436, -0.1681133508682251, -0.660309374332428, -0.013293787837028503, 0.12052777409553528, -1.013671875, 0.2333984375, -0.2041015625, 0, 
66, 1007305534, 0.5529237389564514, 0.44624367356300354, -0.5509968996047974, 0.43766626715660095, 9.969059944152832, 0.18676787614822388, -0.15578891336917877, -0.531853973865509, -0.22051294147968292, 0.22085873782634735, -1.0126953125, 0.22998046875, -0.205078125, 0, 
67, 1007313867, 0.5529183149337769, 0.44624221324920654, -0.5510286092758179, 0.4376346170902252, 9.939032554626465, 0.16842800378799438, -0.15198342502117157, -0.611591100692749, -0.01316571794450283, 0.11998988687992096, -1.01513671875, 0.2294921875, -0.205078125, 0, 
68, 1007322200, 0.5529100298881531, 0.4462418258190155, -0.551063060760498, 0.43760231137275696, 9.910728454589844, 0.1501024067401886, -0.18325583636760712, -0.6053411960601807, 0.0048795114271342754, 0.17782683670520782, -1.01416015625, 0.23388671875, -0.208984375, 0, 
69, 1007330533, 0.5529007911682129, 0.446239173412323, -0.5511119365692139, 0.43755510449409485, 9.884599685668945, 0.1374993771314621, -0.13705576956272125, -0.8178625106811523, -0.2589086890220642, 0.13940547406673431, -1.0146484375, 0.2314453125, -0.2060546875, 0, 
70, 1007338866, 0.5528857111930847, 0.4462335407733917, -0.5511854290962219, 0.43748739361763, 9.860823631286621, 0.1359540820121765, -0.1743934601545334, -1.1068936586380005, -0.5299585461616516, 0.22639141976833344, -1.013671875, 0.22998046875, -0.2060546875, 0, 
71, 1007347199, 0.5528773069381714, 0.44622939825057983, -0.5512588620185852, 0.4374096989631653, 9.889806747436523, 0.1337939202785492, -0.15988749265670776, -1.2125521898269653, -0.6164066195487976, 0.06433016061782837, -1.01416015625, 0.232421875, -0.20654296875, 0, 
72, 1007355532, 0.5528762340545654, 0.4462292492389679, -0.5513116717338562, 0.4373447597026825, 9.90485668182373, 0.17700442671775818, -0.1471625715494156, -1.0077664852142334, -0.28426676988601685, -0.002663880353793502, -1.013671875, 0.23046875, -0.2060546875, 0, 
73, 1007363865, 0.5528682470321655, 0.4462340772151947, -0.551347017288208, 0.43730539083480835, 9.934261322021484, 0.1742718666791916, -0.1299099326133728, -0.6265754103660583, -0.14413130283355713, 0.049909334629774094, -1.0146484375, 0.22998046875, -0.2060546875, 0, 
74, 1007372198, 0.5528502464294434, 0.4462365508079529, -0.551386833190918, 0.43727511167526245, 9.935041427612305, 0.1538218855857849, -0.15190492570400238, -0.543482780456543, -0.11575072258710861, 0.2622513473033905, -1.013671875, 0.23046875, -0.20458984375, 0, 
75, 1007380531, 0.5528408288955688, 0.4462238550186157, -0.5514138340950012, 0.4372660517692566, 9.943281173706055, 0.12609747052192688, -0.13432323932647705, -0.47148117423057556, 0.1988304853439331, 0.37134233117103577, -1.01220703125, 0.2294921875, -0.201171875, 0, 
76, 1007388864, 0.5528383255004883, 0.4462073743343353, -0.5514500737190247, 0.43724027276039124, 9.942294120788574, 0.14160482585430145, -0.12644796073436737, -0.7228593230247498, 0.17290887236595154, 0.32587704062461853, -1.015625, 0.23193359375, -0.20458984375, 0, 
77, 1007397197, 0.5528448224067688, 0.44617536664009094, -0.5514822602272034, 0.43722426891326904, 9.936529159545898, 0.13583944737911224, -0.13697001338005066, -0.7992665767669678, 0.3542576730251312, 0.40169522166252136, -1.01513671875, 0.23388671875, -0.20458984375, 0, 
78, 1007405530, 0.5528457164764404, 0.44615405797958374, -0.5515275001525879, 0.4371878504753113, 9.90806770324707, 0.1496804654598236, -0.1484713852405548, -0.9183471202850342, 0.09309493005275726, 0.31399208307266235, -1.01611328125, 0.232421875, -0.2041015625, 0, 
79, 1007413863, 0.5528355836868286, 0.4461405277252197, -0.5515871047973633, 0.43713927268981934, 9.912552833557129, 0.1720258742570877, -0.09287966787815094, -0.9698061943054199, -0.29023492336273193, 0.2835111916065216, -1.01220703125, 0.2294921875, -0.20458984375, 0, 
80, 1007422196, 0.5528220534324646, 0.4461320638656616, -0.551654577255249, 0.4370797574520111, 9.92419719696045, 0.17204733192920685, -0.11339402198791504, -1.0403733253479004, -0.40432071685791016, 0.2649920582771301, -1.0146484375, 0.23193359375, -0.20556640625, 0, 
81, 1007430529, 0.5528051257133484, 0.4461255371570587, -0.5517213344573975, 0.43702366948127747, 9.90654468536377, 0.1614682823419571, -0.12870825827121735, -0.9740068912506104, -0.48487743735313416, 0.2546183168888092, -1.015625, 0.2314453125, -0.20556640625, 0, 
82, 1007438862, 0.5527902245521545, 0.44613751769065857, -0.551777720451355, 0.43695899844169617, 9.913304328918457, 0.16001597046852112, -0.1001397967338562, -0.8497778177261353, -0.4860557019710541, 0.012794310227036476, -1.01220703125, 0.232421875, -0.205078125, 0, 
83, 1007447195, 0.5527754426002502, 0.44615620374679565, -0.5518209338188171, 0.43690401315689087, 9.899169921875, 0.14588938653469086, -0.13730597496032715, -0.6460422277450562, -0.4341868758201599, -0.08263151347637177, -1.01416015625, 0.236328125, -0.205078125, 0, 
84, 1007455528, 0.552764892578125, 0.4461766481399536, -0.5518566370010376, 0.4368513822555542, 9.895872116088867, 0.1265266388654709, -0.12506745755672455, -0.5968884825706482, -0.27486634254455566, -0.11388088017702103, -1.013671875, 0.2333984375, -0.2080078125, 0, 
85, 1007463861, 0.5527595281600952, 0.4461871087551117, -0.551884114742279, 0.43681269884109497, 9.923661231994629, 0.1321202963590622, -0.10724248737096786, -0.548528790473938, -0.09472143650054932, -0.05115162581205368, -1.01513671875, 0.23583984375, -0.2021484375, 0, 
86, 1007472194, 0.5527542233467102, 0.4462023675441742, -0.5519044399261475, 0.4367782175540924, 9.913454055786133, 0.12367980927228928, -0.10178495198488235, -0.4368763864040375, 0.026625996455550194, -0.06288294494152069, -1.0166015625, 0.23193359375, -0.2041015625, 0, 
87, 1007480527, 0.5527476072311401, 0.44620922207832336, -0.5519183874130249, 0.4367620646953583, 9.92629337310791, 0.11254969239234924, -0.11523956805467606, -0.3155929744243622, 0.15910281240940094, 0.07239863276481628, -1.01220703125, 0.23095703125, -0.20556640625, 0, 
88, 1007488860, 0.5527443885803223, 0.44620901346206665, -0.5519242882728577, 0.43675875663757324, 9.900471687316895, 0.12990278005599976, -0.12772831320762634, -0.2446671724319458, 0.4359670579433441, 0.19127428531646729, -1.01416015625, 0.232421875, -0.20263671875, 0, 
89, 1007497193, 0.5527412295341492, 0.4462026357650757, -0.5519298911094666, 0.4367621839046478, 9.916481018066406, 0.15659034252166748, -0.1407749503850937, -0.23882712423801422, 0.44772401452064514, 0.24985402822494507, -1.015625, 0.23291015625, -0.20556640625, 0, 
90, 1007505526, 0.5527340769767761, 0.4461963474750519, -0.5519377589225769, 0.4367678761482239, 9.931915283203125, 0.17552360892295837, -0.15096789598464966, -0.21052341163158417, 0.481688529253006, 0.34162989258766174, -1.01611328125, 0.2314453125, -0.20458984375, 0, 
91, 1007513859, 0.5527389645576477, 0.44617927074432373, -0.5519279837608337, 0.43679139018058777, 9.92926025390625, 0.18597377836704254, -0.1330643594264984, -0.12448518723249435, 0.8143917322158813, 0.34014421701431274, -1.013671875, 0.228515625, -0.20361328125, 0, 
92, 1007522192, 0.5527350306510925, 0.4461827874183655, -0.5519297122955322, 0.43679049611091614, 9.91511344909668, 0.18598821759223938, -0.12641219794750214, -0.1675427258014679, 0.4531542956829071, 0.15956389904022217, -1.01708984375, 0.232421875, -0.20361328125, 0, 
93, 1007530525, 0.5527305603027344, 0.44618916511535645, -0.5519332885742188, 0.43678510189056396, 9.930054664611816, 0.17869913578033447, -0.14644736051559448, -0.18731689453125, 0.3241865932941437, 0.0802621990442276, -1.01611328125, 0.234375, -0.205078125, 0, 
94, 1007538858, 0.5527356863021851, 0.44618895649909973, -0.5519375801086426, 0.4367733597755432, 9.95327377319336, 0.1670832633972168, -0.13193418085575104, -0.35073572397232056, 0.4583538770675659, 0.06847965717315674, -1.01220703125, 0.23291015625, -0.2041015625, 0, 
95, 1007547191, 0.5527395009994507, 0.4461941421031952, -0.5519421696662903, 0.43675750494003296, 9.92921257019043, 0.12529605627059937, -0.18063069880008698, -0.33295947313308716, 0.3221118450164795, -0.03358026593923569, -1.01611328125, 0.22998046875, -0.20556640625, 0, 
96, 1007555524, 0.5527434349060059, 0.4462036192417145, -0.5519498586654663, 0.4367331266403198, 9.935276985168457, 0.09878791123628616, -0.13936598598957062, -0.38434162735939026, 0.2879680395126343, -0.0742044448852539, -1.015625, 0.23291015625, -0.205078125, 0, 
97, 1007563857, 0.552761971950531, 0.44619858264923096, -0.5519484877586365, 0.4367164969444275, 9.953166961669922, 0.10727118700742722, -0.19078777730464935, -0.47137874364852905, 0.534658670425415, -0.08711400628089905, -1.0166015625, 0.232421875, -0.20166015625, 0, 
98, 1007572190, 0.5527724623680115, 0.4462032616138458, -0.5519434213638306, 0.4367050528526306, 9.962016105651855, 0.10612716525793076, -0.1583854705095291, -0.2884162664413452, 0.5432394742965698, -0.05647938698530197, -1.0166015625, 0.23193359375, -0.2041015625, 0, 
99, 1007580523, 0.5527920722961426, 0.4461987614631653, -0.5519410371780396, 0.4366879165172577, 9.976041793823242, 0.10149204730987549, -0.1674266755580902, -0.4725057780742645, 0.5445458292961121, -0.10570994764566422, -1.01220703125, 0.232421875, -0.20361328125, 0, 
100, 1007588856, 0.552810549736023, 0.4461946487426758, -0.5519288182258606, 0.4366840422153473, 9.950671195983887, 0.13227783143520355, -0.1506389081478119, -0.30278587341308594, 0.7580148577690125, -0.02610090561211109, -1.015625, 0.23291015625, -0.20556640625, 0, 
101, 1007597189, 0.5528205037117004, 0.44619205594062805, -0.5519132614135742, 0.4366936683654785, 9.923124313354492, 0.13139057159423828, -0.14368630945682526, -0.11572510749101639, 0.7249467968940735, 0.057926587760448456, -1.01416015625, 0.2294921875, -0.20556640625, 0, 
102, 1007605522, 0.5528149604797363, 0.44619667530059814, -0.5519114136695862, 0.43669843673706055, 9.882917404174805, 0.1458105891942978, -0.11894464492797852, -0.08506487309932709, 0.4964678883552551, 0.18143843114376068, -1.015625, 0.2314453125, -0.2041015625, 0, 
103, 1007613855, 0.552801251411438, 0.4462091028690338, -0.5519005060195923, 0.43671682476997375, 9.887395858764648, 0.1532854288816452, -0.13430893421173096, 0.18204036355018616, 0.4739145338535309, 0.18198911845684052, -1.01318359375, 0.232421875, -0.2041015625, 0, 
104, 1007622188, 0.5527811050415039, 0.44622868299484253, -0.551897406578064, 0.43672624230384827, 9.853261947631836, 0.16269171237945557, -0.11702747642993927, 0.1611647605895996, 0.33436819911003113, 0.18467862904071808, -1.013671875, 0.232421875, -0.2041015625, 0, 
105, 1007630521, 0.552749752998352, 0.44625332951545715, -0.5518959760665894, 0.4367423951625824, 9.845595359802246, 0.14322853088378906, -0.13227751851081848, 0.30802398920059204, 0.17964543402194977, 0.2371237576007843, -1.01513671875, 0.232421875, -0.20751953125, 0, 
106, 1007638854, 0.5527201294898987, 0.4462868571281433, -0.551878809928894, 0.43676745891571045, 9.848799705505371, 0.15435092151165009, -0.10021860897541046, 0.5276147723197937, 0.3809220790863037, 0.16745305061340332, -1.0126953125, 0.22900390625, -0.2041015625, 0, 
107, 1007647187, 0.5527008175849915, 0.4463154077529907, -0.5518401265144348, 0.436811625957489, 9.859914779663086, 0.12462398409843445, -0.08469681441783905, 0.7006773948669434, 0.7024959325790405, 0.12133462727069855, -1.01318359375, 0.232421875, -0.20263671875, 0, 
108, 1007655520, 0.552680253982544, 0.4463532567024231, -0.551800549030304, 0.43684905767440796, 9.878011703491211, 0.13690507411956787, -0.14102546870708466, 0.7338863015174866, 0.669466495513916, 0.0348481647670269, -1.01513671875, 0.23193359375, -0.20361328125, 0, 
109, 1007663853, 0.5526513457298279, 0.4463920295238495, -0.5517575740814209, 0.43690019845962524, 9.9155855178833, 0.1515333652496338, -0.13964486122131348, 0.9156191945075989, 0.645209789276123, 0.12759730219841003, -1.01416015625, 0.2314453125, -0.205078125, 0, 
110, 1007672186, 0.5526164174079895, 0.44644060730934143, -0.5517150163650513, 0.4369485378265381, 9.92190170288086, 0.13281399011611938, -0.118772953748703, 1.0067802667617798, 0.5872447490692139, 0.10613257437944412, -1.01220703125, 0.232421875, -0.2041015625, 0, 
111, 1007680519, 0.5525729656219482, 0.44648706912994385, -0.5516917705535889, 0.4369853138923645, 9.939132690429688, 0.12951625883579254, -0.14174094796180725, 0.8359588980674744, 0.24934177100658417, 0.16619795560836792, -1.01123046875, 0.22998046875, -0.20458984375, 0, 
112, 1007688852, 0.5525124073028564, 0.4465489089488983, -0.5516771674156189, 0.4370172321796417, 9.941364288330078, 0.15134698152542114, -0.14748431742191315, 0.9708948731422424, -0.0005378989735618234, 0.20515723526477814, -1.0146484375, 0.2294921875, -0.203125, 0, 
113, 1007697185, 0.5524641275405884, 0.446605384349823, -0.5516608357429504, 0.43704113364219666, 9.949905395507812, 0.1672048568725586, -0.19194653630256653, 0.8029422760009766, 0.020324893295764923, 0.06535471975803375, -1.0166015625, 0.23291015625, -0.20263671875, 0, 
114, 1007705518, 0.5524128079414368, 0.44667142629623413, -0.5516432523727417, 0.4370606541633606, 9.983137130737305, 0.16976557672023773, -0.1420411616563797, 0.8684378266334534, -0.00832462590187788, 0.006032152101397514, -1.01708984375, 0.23046875, -0.205078125, 0, 
115, 1007713851, 0.55234295129776, 0.4467427134513855, -0.5516518354415894, 0.4370652437210083, 9.95960521697998, 0.16859938204288483, -0.14542439579963684, 0.7518674731254578, -0.5396918654441833, 0.08825384080410004, -1.0126953125, 0.22900390625, -0.20361328125, 0, 
116, 1007722184, 0.5522587299346924, 0.4468247890472412, -0.5516877174377441, 0.43704259395599365, 9.967771530151367, 0.19447825849056244, -0.1925187110900879, 0.5512567758560181, -1.019113540649414, 0.09063597023487091, -1.01513671875, 0.232421875, -0.203125, 0, 
117, 1007730517, 0.5521945953369141, 0.44689422845840454, -0.5517092943191528, 0.43702539801597595, 9.949583053588867, 0.17146079242229462, -0.22187402844429016, 0.4595065414905548, -0.7185817956924438, -0.017545752227306366, -1.01318359375, 0.23095703125, -0.201171875, 0, 
118, 1007738850, 0.5521471500396729, 0.44696754217147827, -0.5517081022262573, 0.43701186776161194, 9.919075965881348, 0.18662482500076294, -0.19792631268501282, 0.5505139231681824, -0.35019782185554504, -0.22333049774169922, -1.0146484375, 0.2333984375, -0.2021484375, 0, 
119, 1007747183, 0.5521108508110046, 0.447025865316391, -0.5517110228538513, 0.4369943141937256, 9.908733367919922, 0.17462235689163208, -0.1676483303308487, 0.3130955994129181, -0.3008904457092285, -0.2177722454071045, -1.0126953125, 0.22998046875, -0.20458984375, 0, 
120, 1007755516, 0.5520879030227661, 0.44708251953125, -0.5517195463180542, 0.43695467710494995, 9.903855323791504, 0.18112429976463318, -0.18312707543373108, 0.017840316519141197, -0.29812413454055786, -0.38318896293640137, -1.015625, 0.23193359375, -0.2041015625, 0, 
121, 1007763849, 0.5520798563957214, 0.4471328556537628, -0.5517133474349976, 0.43692106008529663, 9.909906387329102, 0.149859219789505, -0.1783418357372284, 0.011206227354705334, -0.06695561110973358, -0.5041906237602234, -1.0166015625, 0.23095703125, -0.2021484375, 0, 
122, 1007772182, 0.5520861148834229, 0.44717133045196533, -0.5516946911811829, 0.43689730763435364, 9.911429405212402, 0.14738433063030243, -0.1630919724702835, -0.017571361735463142, 0.3342529237270355, -0.46635833382606506, -1.013671875, 0.2294921875, -0.2041015625, 0, 
123, 1007780515, 0.5520955920219421, 0.44720572233200073, -0.5516741275787354, 0.4368760287761688, 9.896852493286133, 0.13983093202114105, -0.18558765947818756, -0.03826766461133957, 0.3468807637691498, -0.4850567877292633, -1.01123046875, 0.2294921875, -0.20654296875, 0, 
124, 1007788848, 0.5521090626716614, 0.4472368359565735, -0.5516520738601685, 0.43685516715049744, 9.890758514404297, 0.11840100586414337, -0.16570991277694702, -0.07282126694917679, 0.4796905517578125, -0.4514508545398712, -1.0146484375, 0.23193359375, -0.20361328125, 0, 
125, 1007797181, 0.5521199703216553, 0.4472534954547882, -0.551628828048706, 0.43685370683670044, 9.916515350341797, 0.10553304851055145, -0.19140292704105377, -0.014574499800801277, 0.6058919429779053, -0.22463686764240265, -1.01611328125, 0.22998046875, -0.20263671875, 0, 
126, 1007805514, 0.552136242389679, 0.44727659225463867, -0.5515918135643005, 0.43685582280158997, 9.929291725158691, 0.11374437808990479, -0.16174720227718353, 0.11111456155776978, 0.8015462756156921, -0.3263894021511078, -1.01416015625, 0.22900390625, -0.20263671875, 0, 
127, 1007813847, 0.5521354079246521, 0.4473133087158203, -0.551554262638092, 0.4368667006492615, 9.952537536621094, 0.1382000744342804, -0.18784795701503754, 0.3902584910392761, 0.5816224813461304, -0.29821375012397766, -1.0146484375, 0.232421875, -0.20361328125, 0, 
128, 1007822180, 0.5521228313446045, 0.4473586678504944, -0.5515276193618774, 0.4368699789047241, 9.96310806274414, 0.15992367267608643, -0.19345606863498688, 0.40385961532592773, 0.377989262342453, -0.2499052882194519, -1.0146484375, 0.232421875, -0.205078125, 0, 
129, 1007830513, 0.5521027445793152, 0.4474022388458252, -0.5515043139457703, 0.4368802607059479, 9.967543601989746, 0.1548304408788681, -0.1901225596666336, 0.4706488251686096, 0.281385213136673, -0.15286575257778168, -1.01416015625, 0.23193359375, -0.20361328125, 0, 
130, 1007838846, 0.5520854592323303, 0.4474472999572754, -0.5514719486236572, 0.4368968605995178, 9.950749397277832, 0.13465942442417145, -0.16083882749080658, 0.5642943978309631, 0.46980348229408264, -0.15324996411800385, -1.015625, 0.23291015625, -0.20654296875, 0, 
131, 1007847179, 0.5520740747451782, 0.44749146699905396, -0.5514285564422607, 0.43692073225975037, 9.941850662231445, 0.1141522228717804, -0.16359266638755798, 0.6451328992843628, 0.5807387232780457, -0.2292730212211609, -1.0166015625, 0.23193359375, -0.205078125, 0, 
132, 1007855512, 0.5520563721656799, 0.44753438234329224, -0.5513935685157776, 0.4369432330131531, 9.944668769836426, 0.11725609749555588, -0.1594010293483734, 0.6132944822311401, 0.5358626246452332, -0.10658083111047745, -1.013671875, 0.22705078125, -0.2021484375, 0, 
133, 1007863845, 0.5520411729812622, 0.4475669264793396, -0.5513638257980347, 0.4369666576385498, 9.926258087158203, 0.1318909078836441, -0.1612250655889511, 0.4945468306541443, 0.5163701772689819, -0.039573993533849716, -1.0146484375, 0.232421875, -0.2041015625, 0, 
134, 1007872178, 0.5520281195640564, 0.44758376479148865, -0.5513404011726379, 0.43699514865875244, 9.91295337677002, 0.13960203528404236, -0.14970900118350983, 0.36432406306266785, 0.6767408847808838, 0.18151527643203735, -1.015625, 0.234375, -0.2041015625, 0, 
135, 1007880511, 0.5520097017288208, 0.44759806990623474, -0.5513238906860352, 0.4370245337486267, 9.914191246032715, 0.1549377292394638, -0.13468803465366364, 0.3417579233646393, 0.536272406578064, 0.2451922446489334, -1.013671875, 0.2314453125, -0.2021484375, 0, 
136, 1007888844, 0.5519843697547913, 0.4476097822189331, -0.5513082146644592, 0.4370644688606262, 9.890908241271973, 0.17079558968544006, -0.1518334001302719, 0.4395914375782013, 0.6266522407531738, 0.42786017060279846, -1.01708984375, 0.22900390625, -0.2041015625, 0, 
137, 1007897177, 0.5519566535949707, 0.44762900471687317, -0.5512951016426086, 0.4370962679386139, 9.870115280151367, 0.20364144444465637, -0.15721233189105988, 0.4345070421695709, 0.4257213771343231, 0.3036951422691345, -1.017578125, 0.22802734375, -0.20361328125, 0, 
138, 1007905510, 0.5519164800643921, 0.44765371084213257, -0.5512950420379639, 0.4371218681335449, 9.901537895202637, 0.19116687774658203, -0.14694085717201233, 0.427053302526474, 0.22710859775543213, 0.40566542744636536, -1.0126953125, 0.22705078125, -0.203125, 0, 
139, 1007913843, 0.5518798232078552, 0.4476799964904785, -0.5512926578521729, 0.4371442496776581, 9.931171417236328, 0.20950676500797272, -0.15304937958717346, 0.40626734495162964, 0.17627714574337006, 0.29807284474372864, -1.01513671875, 0.2314453125, -0.2041015625, 0, 
140, 1007922176, 0.5518639087677002, 0.44769904017448425, -0.5512827038764954, 0.437157541513443, 9.91457748413086, 0.18280521035194397, -0.17518027126789093, 0.20137910544872284, 0.4471476674079895, 0.14902363717556, -1.0185546875, 0.2314453125, -0.205078125, 0, 
141, 1007930509, 0.5518408417701721, 0.447723925113678, -0.5512694716453552, 0.4371778666973114, 9.933868408203125, 0.1893858164548874, -0.1403101682662964, 0.3624286651611328, 0.3559226393699646, 0.14560411870479584, -1.0166015625, 0.22998046875, -0.2060546875, 0, 
142, 1007938842, 0.5518179535865784, 0.44775572419166565, -0.5512600541114807, 0.4371858239173889, 9.935749053955078, 0.13858632743358612, -0.19548004865646362, 0.29672810435295105, 0.2790798842906952, 0.0570300929248333, -1.01611328125, 0.232421875, -0.20068359375, 0, 
143, 1007947175, 0.5518126487731934, 0.44777238368988037, -0.551244854927063, 0.4371947944164276, 9.940633773803711, 0.09571234881877899, -0.19373472034931183, 0.11673688888549805, 0.4849415123462677, 0.002548616612330079, -1.01611328125, 0.22998046875, -0.20556640625, 0, 
144, 1007955508, 0.5518175363540649, 0.4477830231189728, -0.5512209534645081, 0.43720802664756775, 9.92396068572998, 0.09772223979234695, -0.1627986878156662, 0.08971386402845383, 0.7592700123786926, -0.00020491390023380518, -1.01513671875, 0.228515625, -0.20556640625, 0, 
145, 1007963841, 0.551819384098053, 0.44777628779411316, -0.5512088537216187, 0.43722790479660034, 9.934232711791992, 0.11086191236972809, -0.15714795887470245, -0.040829092264175415, 0.7246907353401184, 0.23978766798973083, -1.01611328125, 0.232421875, -0.2041015625, 0, 
146, 1007972174, 0.551823616027832, 0.4477679133415222, -0.551193118095398, 0.4372507929801941, 9.952237129211426, 0.15615370869636536, -0.14490944147109985, -0.026510732248425484, 0.8655434250831604, 0.2722664773464203, -1.01513671875, 0.22900390625, -0.2021484375, 0, 
147, 1007980507, 0.5518249273300171, 0.4477638900279999, -0.5511671304702759, 0.43728601932525635, 9.969868659973145, 0.1656741499900818, -0.1485716998577118, 0.18341071903705597, 0.9055015444755554, 0.2506480813026428, -1.0126953125, 0.2275390625, -0.20654296875, 0, 
148, 1007988840, 0.5518093109130859, 0.4477745592594147, -0.5511488914489746, 0.4373178780078888, 9.952094078063965, 0.2101147621870041, -0.15544557571411133, 0.3248525559902191, 0.6745124459266663, 0.3013642728328705, -1.01611328125, 0.22802734375, -0.20556640625, 0, 
149, 1007997173, 0.5517871975898743, 0.4477740526199341, -0.5511369705200195, 0.43736129999160767, 9.939438819885254, 0.22932758927345276, -0.15614628791809082, 0.33146101236343384, 0.6489750146865845, 0.5142953991889954, -1.017578125, 0.23095703125, -0.20556640625, 0, 
150, 1008005506, 0.5517635941505432, 0.4477674961090088, -0.5511327385902405, 0.43740326166152954, 9.910027503967285, 0.2183619886636734, -0.14417985081672668, 0.23663711547851562, 0.6735903024673462, 0.6425971388816833, -1.01611328125, 0.22900390625, -0.20263671875, 0, 
151, 1008013839, 0.5517585873603821, 0.447750061750412, -0.5511119961738586, 0.43745341897010803, 9.924368858337402, 0.19434989988803864, -0.12211333215236664, 0.2004185914993286, 0.9886197447776794, 0.5379117727279663, -1.017578125, 0.23291015625, -0.2041015625, 0, 
152, 1008022172, 0.5517687797546387, 0.4477177560329437, -0.5510967969894409, 0.43749287724494934, 9.919140815734863, 0.1961667239665985, -0.13840751349925995, -0.11838900297880173, 1.1539597511291504, 0.5475171208381653, -1.01318359375, 0.23046875, -0.20458984375, 0, 
153, 1008030505, 0.5518004894256592, 0.4476752281188965, -0.551080584526062, 0.43751680850982666, 9.884039878845215, 0.17115305364131927, -0.10340152680873871, -0.4415381848812103, 1.2221192121505737, 0.33407366275787354, -1.01806640625, 0.23291015625, -0.20556640625, 0, 
154, 1008038838, 0.5518560409545898, 0.4476199746131897, -0.551058828830719, 0.437530517578125, 9.891698837280273, 0.13417211174964905, -0.1577514410018921, -0.729595959186554, 1.5252124071121216, 0.21238045394420624, -1.01513671875, 0.2314453125, -0.20263671875, 0, 
155, 1008047171, 0.5519401431083679, 0.4475497603416443, -0.5510122776031494, 0.4375549852848053, 9.854741096496582, 0.1229330524802208, -0.13982565701007843, -0.7872278094291687, 2.01990008354187, 0.04780896380543709, -1.0107421875, 0.23583984375, -0.20654296875, 0, 
156, 1008055504, 0.5520257949829102, 0.44748401641845703, -0.5509688258171082, 0.4375688433647156, 9.884486198425293, 0.12322501093149185, -0.16989178955554962, -0.8636351227760315, 1.982836127281189, -0.021644027903676033, -1.01416015625, 0.23095703125, -0.20458984375, 0, 
157, 1008063837, 0.5520956516265869, 0.44743412733078003, -0.5509381294250488, 0.4375704824924469, 9.893874168395996, 0.14383557438850403, -0.09758224338293076, -0.8123042583465576, 1.5280556678771973, -0.09728287160396576, -1.013671875, 0.22998046875, -0.2060546875, 0, 
158, 1008072170, 0.5521447062492371, 0.44740980863571167, -0.5509252548217773, 0.4375494420528412, 9.895164489746094, 0.14533860981464386, -0.109717458486557, -0.7721667289733887, 1.0103150606155396, -0.19231165945529938, -1.015625, 0.2294921875, -0.2041015625, 0, 
159, 1008080503, 0.552169919013977, 0.44740039110183716, -0.5509205460548401, 0.43753325939178467, 9.922382354736328, 0.18344943225383759, -0.1420913189649582, -0.5229658484458923, 0.6394978165626526, -0.11065348982810974, -1.0126953125, 0.23046875, -0.20654296875, 0, 
160, 1008088836, 0.5521775484085083, 0.44740983843803406, -0.5509260892868042, 0.4375068247318268, 9.951865196228027, 0.18043726682662964, -0.12913012504577637, -0.410237580537796, 0.31873074173927307, -0.12527921795845032, -1.0166015625, 0.232421875, -0.20556640625, 0, 
161, 1008097169, 0.5521790981292725, 0.44741809368133545, -0.5509318113327026, 0.43748918175697327, 9.949762344360352, 0.18093831837177277, -0.1211906149983406, -0.3173860013484955, 0.26599106192588806, -0.049025651067495346, -1.0146484375, 0.22998046875, -0.20263671875, 0, 
162, 1008105502, 0.5521686673164368, 0.44743508100509644, -0.55094313621521, 0.4374706745147705, 9.944926261901855, 0.16934356093406677, -0.11315082013607025, -0.21667081117630005, 0.14206935465335846, 0.02196420542895794, -1.01416015625, 0.23291015625, -0.20556640625, 0, 
163, 1008113835, 0.5521723628044128, 0.44743913412094116, -0.5509459376335144, 0.437458336353302, 9.915464401245117, 0.14972330629825592, -0.1320987045764923, -0.30501431226730347, 0.3612503707408905, -0.008631996810436249, -1.01513671875, 0.22802734375, -0.203125, 0, 
164, 1008122168, 0.5521895885467529, 0.44742852449417114, -0.5509402751922607, 0.4374547600746155, 9.911014556884766, 0.1326923966407776, -0.12180576473474503, -0.3816520869731903, 0.7392140030860901, 0.07334636151790619, -1.01416015625, 0.23046875, -0.20654296875, 0, 
165, 1008130501, 0.5522177219390869, 0.44739943742752075, -0.5509297251701355, 0.4374624192714691, 9.892268180847168, 0.12079037725925446, -0.10937408357858658, -0.47419634461402893, 0.9698446393013, 0.16688956320285797, -1.01708984375, 0.2294921875, -0.20263671875, 0, 
166, 1008138834, 0.5522644519805908, 0.4473678767681122, -0.5509016513824463, 0.4374709129333496, 9.923337936401367, 0.14086070656776428, -0.1126215010881424, -0.4955841898918152, 1.335487723350525, 0.0059040808118879795, -1.0146484375, 0.22900390625, -0.2021484375, 0, 
167, 1008147167, 0.5523090958595276, 0.4473370909690857, -0.550862193107605, 0.43749579787254333, 9.922795295715332, 0.13337190449237823, -0.07418929040431976, -0.2844460606575012, 1.431182622909546, 0.03374675288796425, -1.01318359375, 0.23046875, -0.205078125, 0, 
168, 1008155500, 0.5523380637168884, 0.44732189178466797, -0.5508264303207397, 0.43751975893974304, 9.900205612182617, 0.13907264173030853, -0.08994698524475098, -0.09963937103748322, 1.252318263053894, 0.06018064543604851, -1.0146484375, 0.23486328125, -0.20703125, 0, 
169, 1008163833, 0.552366316318512, 0.4473111927509308, -0.5507970452308655, 0.4375321865081787, 9.928661346435547, 0.16503039002418518, -0.12516044080257416, -0.1853189915418625, 1.0359036922454834, -0.05348252132534981, -1.0185546875, 0.22900390625, -0.20556640625, 0, 
170, 1008172166, 0.5523781180381775, 0.4473150968551636, -0.5507795214653015, 0.43753552436828613, 9.932509422302246, 0.1428065150976181, -0.11448124796152115, -0.1118701696395874, 0.7400464415550232, -0.026113709434866905, -1.017578125, 0.23291015625, -0.2060546875, 0, 
171, 1008180499, 0.5523722171783447, 0.44732338190078735, -0.5507628917694092, 0.43755531311035156, 9.963509559631348, 0.14046037197113037, -0.13912279903888702, 0.14665430784225464, 0.6096315979957581, 0.14365744590759277, -1.01513671875, 0.2275390625, -0.20703125, 0, 
172, 1008188832, 0.5523558855056763, 0.44733282923698425, -0.5507532954216003, 0.43757790327072144, 9.93368911743164, 0.14023149013519287, -0.08563383668661118, 0.19865117967128754, 0.5521019697189331, 0.2960365116596222, -1.0146484375, 0.23193359375, -0.2041015625, 0, 
173, 1008197165, 0.5523281693458557, 0.44734129309654236, -0.5507609844207764, 0.4375945031642914, 9.909584045410156, 0.11270734667778015, -0.09235035628080368, 0.11174209415912628, 0.2393265813589096, 0.3984678089618683, -1.01416015625, 0.2294921875, -0.20458984375, 0, 
174, 1008205498, 0.5522950887680054, 0.4473581314086914, -0.550776481628418, 0.43759995698928833, 9.913734436035156, 0.1070065051317215, -0.13103309273719788, 0.07845640182495117, 0.08483434468507767, 0.3655407428741455, -1.015625, 0.2294921875, -0.20166015625, 0, 
175, 1008213831, 0.5522594451904297, 0.4473668336868286, -0.5507828593254089, 0.43762803077697754, 9.911665916442871, 0.09310140460729599, -0.12017491459846497, 0.25840920209884644, 0.25935694575309753, 0.52162104845047, -1.01708984375, 0.23046875, -0.20361328125, 0, 
176, 1008222164, 0.5522241592407227, 0.4473801255226135, -0.5507715344429016, 0.43767309188842773, 9.920706748962402, 0.1174137219786644, -0.10211418569087982, 0.5252326726913452, 0.5374763011932373, 0.5429320931434631, -1.01513671875, 0.23095703125, -0.203125, 0, 
177, 1008230497, 0.5521629452705383, 0.44741156697273254, -0.5507763028144836, 0.43771228194236755, 9.931722640991211, 0.14606820046901703, -0.11875093728303909, 0.6817613244056702, 0.008875332772731781, 0.5780492424964905, -1.01611328125, 0.23291015625, -0.20703125, 0, 
178, 1008238830, 0.5521001815795898, 0.44744065403938293, -0.5507861971855164, 0.43774932622909546, 9.93209457397461, 0.13984523713588715, -0.11662710458040237, 0.6262552738189697, 0.02334737405180931, 0.6564031839370728, -1.0126953125, 0.2314453125, -0.20458984375, 0, 
179, 1008247163, 0.5520548224449158, 0.447456032037735, -0.5507777333259583, 0.4378012716770172, 9.904885292053223, 0.15058164298534393, -0.1454530656337738, 0.6373205780982971, 0.4030783772468567, 0.6213885545730591, -1.01611328125, 0.2294921875, -0.20751953125, 0, 
180, 1008255496, 0.5520155429840088, 0.4474603533744812, -0.5507684946060181, 0.43785804510116577, 9.910493850708008, 0.15522362291812897, -0.13813598453998566, 0.557839572429657, 0.6175463199615479, 0.7360377907752991, -1.0126953125, 0.2314453125, -0.20361328125, 0, 
181, 1008263829, 0.5519874095916748, 0.44745492935180664, -0.5507569313049316, 0.4379136562347412, 9.937581062316895, 0.14728419482707977, -0.1261761486530304, 0.42116203904151917, 0.7058899402618408, 0.6821966767311096, -1.01611328125, 0.234375, -0.2080078125, 0, 
182, 1008272162, 0.5519703030586243, 0.4474446773529053, -0.5507425665855408, 0.4379637837409973, 9.92039966583252, 0.16254836320877075, -0.14417985081672668, 0.29160523414611816, 0.8710504770278931, 0.6309170722961426, -1.01318359375, 0.23046875, -0.2099609375, 0, 
183, 1008280495, 0.5519601702690125, 0.4474264979362488, -0.5507328510284424, 0.4380073547363281, 9.923381805419922, 0.16883569955825806, -0.10153460502624512, 0.11174209415912628, 0.8298884630203247, 0.5916247963905334, -1.013671875, 0.23291015625, -0.205078125, 0, 
184, 1008288828, 0.5519497990608215, 0.44740480184555054, -0.5507423877716064, 0.43803033232688904, 9.908905029296875, 0.17357821762561798, -0.1168057844042778, -0.18841831386089325, 0.64198237657547, 0.6168804168701172, -1.0146484375, 0.2294921875, -0.2060546875, 0, 
185, 1008297161, 0.5519431829452515, 0.4473896622657776, -0.5507558584213257, 0.43803727626800537, 9.886981010437012, 0.18630312383174896, -0.10291492938995361, -0.3043995499610901, 0.43863093852996826, 0.41173604130744934, -1.01416015625, 0.23388671875, -0.2080078125, 0, 
186, 1008305494, 0.5519381165504456, 0.44737887382507324, -0.5507713556289673, 0.43803519010543823, 9.8900785446167, 0.19688916206359863, -0.11399485915899277, -0.3640039265155792, 0.4175505042076111, 0.3493141233921051, -1.0146484375, 0.2314453125, -0.20751953125, 0, 
187, 1008313827, 0.5519397854804993, 0.4473671019077301, -0.5507827997207642, 0.43803080916404724, 9.890243530273438, 0.2006300985813141, -0.10902363061904907, -0.40303999185562134, 0.426412969827652, 0.23704694211483002, -1.01611328125, 0.22998046875, -0.20361328125, 0, 
188, 1008322160, 0.5519279837608337, 0.4473758339881897, -0.5508050322532654, 0.43800872564315796, 9.87911319732666, 0.1848294585943222, -0.07455408573150635, -0.36515653133392334, 0.07393549382686615, 0.1321822553873062, -1.0146484375, 0.228515625, -0.20703125, 0, 
189, 1008330493, 0.5519129037857056, 0.4473974108695984, -0.550826370716095, 0.4379788637161255, 9.874464988708496, 0.17244097590446472, -0.08242212980985641, -0.2999427020549774, -0.13365507125854492, -0.046028781682252884, -1.01171875, 0.2314453125, -0.20703125, 0, 
190, 1008338826, 0.5519020557403564, 0.4474259614944458, -0.550841748714447, 0.43794408440589905, 9.900328636169434, 0.14539600908756256, -0.09570452570915222, -0.2749304175376892, -0.06379224359989166, -0.16412320733070374, -1.013671875, 0.22998046875, -0.20458984375, 0, 
191, 1008347159, 0.551888644695282, 0.44744956493377686, -0.5508555173873901, 0.4379195272922516, 9.89785385131836, 0.13764216005802155, -0.08718600124120712, -0.2088841050863266, -0.04380034655332565, -0.07684271782636642, -1.01513671875, 0.232421875, -0.20654296875, 0, 
192, 1008355492, 0.5518685579299927, 0.4474751651287079, -0.550864040851593, 0.43790799379348755, 9.884906768798828, 0.13548199832439423, -0.060734789818525314, -0.02356509491801262, 0.08185028284788132, 0.04885915294289589, -1.013671875, 0.23388671875, -0.20458984375, 0, 
193, 1008363825, 0.5518544316291809, 0.4474927484989166, -0.5508666038513184, 0.43790459632873535, 9.886429786682129, 0.13635453581809998, -0.08850929886102676, -0.023616326972842216, 0.20128947496414185, 0.062460314482450485, -1.015625, 0.22998046875, -0.203125, 0, 
194, 1008372158, 0.5518444180488586, 0.44750353693962097, -0.5508748292922974, 0.43789583444595337, 9.904648780822754, 0.1267412304878235, -0.06963292509317398, -0.17520137131214142, 0.26586294174194336, 0.11945197731256485, -1.015625, 0.23095703125, -0.205078125, 0, 
195, 1008380491, 0.5518384575843811, 0.4475099444389343, -0.5508705973625183, 0.4379020035266876, 9.868148803710938, 0.14129017293453217, -0.09684232622385025, -0.04456876218318939, 0.44165343046188354, 0.13051731884479523, -1.013671875, 0.23046875, -0.2041015625, 0, 
196, 1008388824, 0.5518385171890259, 0.4475169777870178, -0.5508537292480469, 0.4379160404205322, 9.903218269348145, 0.15232694149017334, -0.10061904042959213, 0.058720629662275314, 0.692467987537384, 0.10615818202495575, -1.017578125, 0.232421875, -0.205078125, 0, 
197, 1008397157, 0.5518381595611572, 0.44752854108810425, -0.5508156418800354, 0.4379526972770691, 9.898919105529785, 0.15289917588233948, -0.09864486008882523, 0.39626502990722656, 0.9001225829124451, 0.08069764822721481, -1.013671875, 0.2294921875, -0.20361328125, 0, 
198, 1008405490, 0.5518285036087036, 0.44754865765571594, -0.5507890582084656, 0.4379776120185852, 9.90054988861084, 0.17638911306858063, -0.10415969789028168, 0.3563452661037445, 0.6796994209289551, 0.08957298845052719, -1.01318359375, 0.23388671875, -0.2021484375, 0, 
199, 1008413823, 0.5518122911453247, 0.44756925106048584, -0.5507727265357971, 0.4379974603652954, 9.92168140411377, 0.19199621677398682, -0.09379533678293228, 0.3030291497707367, 0.4556899964809418, 0.1133301854133606, -1.0146484375, 0.2314453125, -0.20458984375, 0, 
200, 1008422156, 0.5517829656600952, 0.44760018587112427, -0.5507706999778748, 0.43800532817840576, 9.917581558227539, 0.19201090931892395, -0.10779334604740143, 0.2828707993030548, 0.17439451813697815, 0.14657743275165558, -1.01611328125, 0.23046875, -0.20654296875, 0, 
201, 1008430489, 0.5517467856407166, 0.4476279020309448, -0.5507832765579224, 0.43800681829452515, 9.886680603027344, 0.19835548102855682, -0.12514613568782806, 0.1671200692653656, -0.07056721299886703, 0.21950118243694305, -1.01611328125, 0.2314453125, -0.205078125, 0, 
202, 1008438822, 0.5517174601554871, 0.44766491651535034, -0.5507936477661133, 0.4379929304122925, 9.898075103759766, 0.19955036044120789, -0.09019024670124054, 0.08669137954711914, -0.08893261104822159, 0.011564826592803001, -1.01904296875, 0.23095703125, -0.205078125, 0, 
203, 1008447155, 0.5516841411590576, 0.44769108295440674, -0.5508226156234741, 0.4379718005657196, 9.940977096557617, 0.19274787604808807, -0.132177472114563, -0.13337332010269165, -0.3036567270755768, 0.14260724186897278, -1.0107421875, 0.22900390625, -0.205078125, 0, 
204, 1008455488, 0.5516635775566101, 0.44773051142692566, -0.5508397817611694, 0.4379357695579529, 9.92786693572998, 0.17237655818462372, -0.10720664262771606, -0.15227662026882172, -0.22450874745845795, -0.18608741462230682, -1.01171875, 0.23095703125, -0.2021484375, 0, 
205, 1008463821, 0.5516549348831177, 0.4477505087852478, -0.5508434176445007, 0.4379217028617859, 9.947880744934082, 0.16342100501060486, -0.11851545423269272, -0.1253560483455658, 0.1554911881685257, -0.061755917966365814, -1.015625, 0.23193359375, -0.2041015625, 0, 
206, 1008472154, 0.551650881767273, 0.4477616548538208, -0.5508421659469604, 0.4379170536994934, 9.93505573272705, 0.18379229307174683, -0.08056962490081787, -0.12225673347711563, 0.4047689437866211, 0.05608236417174339, -1.01513671875, 0.23046875, -0.20068359375, 0, 
207, 1008480487, 0.5516598224639893, 0.44775691628456116, -0.5508350133895874, 0.4379196763038635, 9.951329231262207, 0.19687466323375702, -0.05255195498466492, -0.23034879565238953, 0.6221057772636414, 0.07931447774171829, -1.015625, 0.23193359375, -0.203125, 0, 
208, 1008488820, 0.5516631007194519, 0.4477614164352417, -0.5508405566215515, 0.43790388107299805, 9.940699577331543, 0.2117241472005844, -0.09884513914585114, -0.34684237837791443, 0.37866804003715515, 0.01689258962869644, -1.0166015625, 0.2294921875, -0.2041015625, 0, 
209, 1008497153, 0.5516729354858398, 0.44776132702827454, -0.5508389472961426, 0.4378936290740967, 9.941429138183594, 0.19628116488456726, -0.12798582017421722, -0.3311152160167694, 0.4804590344429016, -0.024307912215590477, -1.015625, 0.232421875, -0.20703125, 0, 
210, 1008505486, 0.5516918897628784, 0.4477540850639343, -0.550829291343689, 0.43788933753967285, 9.908310890197754, 0.1898149996995926, -0.11443118005990982, -0.34527987241744995, 0.7555046677589417, 0.005366182420402765, -1.0126953125, 0.2294921875, -0.203125, 0, 
211, 1008513819, 0.5517096519470215, 0.4477570652961731, -0.5508151054382324, 0.4378819465637207, 9.901595115661621, 0.2005084902048111, -0.14039599895477295, -0.2595234513282776, 0.6347848773002625, -0.15158505737781525, -1.0146484375, 0.2314453125, -0.20654296875, 0, 
212, 1008522152, 0.551723301410675, 0.4477694630622864, -0.5508038997650146, 0.4378660023212433, 9.913067817687988, 0.18378514051437378, -0.12114769965410233, -0.244026780128479, 0.5355551242828369, -0.20716790854930878, -1.01708984375, 0.23095703125, -0.20361328125, 0, 
213, 1008530485, 0.5517405271530151, 0.4477750360965729, -0.5507894158363342, 0.4378567934036255, 9.903947830200195, 0.173048734664917, -0.09780082106590271, -0.24902160465717316, 0.6056357622146606, -0.18383337557315826, -1.01416015625, 0.23291015625, -0.20263671875, 0, 
214, 1008538818, 0.551755964756012, 0.44778239727020264, -0.5507636070251465, 0.4378620982170105, 9.900406837463379, 0.16314204037189484, -0.10154891014099121, -0.045516494661569595, 0.819898784160614, -0.11098647117614746, -1.013671875, 0.2294921875, -0.205078125, 0, 
215, 1008547151, 0.5517769455909729, 0.44778668880462646, -0.5507293343544006, 0.43787434697151184, 9.887683868408203, 0.14219136536121368, -0.0963917225599289, -0.00017929963360074908, 0.9246353507041931, -0.15322434902191162, -1.0146484375, 0.2294921875, -0.2021484375, 0, 
216, 1008555484, 0.5517910718917847, 0.44780153036117554, -0.5506991744041443, 0.4378793239593506, 9.872361183166504, 0.14091816544532776, -0.0930870994925499, 0.04499140381813049, 0.7964106202125549, -0.18811093270778656, -1.015625, 0.22900390625, -0.2060546875, 0, 
217, 1008563817, 0.5517998337745667, 0.44781479239463806, -0.5506671667098999, 0.43789488077163696, 9.899391174316406, 0.13425171375274658, -0.10460317879915237, 0.15454347431659698, 0.7813750505447388, -0.11088401824235916, -1.01416015625, 0.23046875, -0.2060546875, 0, 
218, 1008572150, 0.5518110394477844, 0.4478214979171753, -0.5506302714347839, 0.4379205107688904, 9.906737327575684, 0.15873588621616364, -0.08577689528465271, 0.19712716341018677, 1.0005688667297363, 0.007812341675162315, -1.013671875, 0.23046875, -0.20556640625, 0, 
219, 1008580483, 0.5518224835395813, 0.44782477617263794, -0.550586462020874, 0.4379577040672302, 9.910407066345215, 0.15947262942790985, -0.1336437165737152, 0.2973044216632843, 1.0852751731872559, 0.04090593382716179, -1.0126953125, 0.22998046875, -0.20263671875, 0, 
220, 1008588816, 0.5518209338188171, 0.44783759117126465, -0.5505523681640625, 0.4379894435405731, 9.908075332641602, 0.15566711127758026, -0.09531166404485703, 0.35082539916038513, 0.8840880990028381, 0.09944726526737213, -1.0146484375, 0.232421875, -0.20263671875, 0, 
221, 1008597149, 0.5518110990524292, 0.447848379611969, -0.5505310893058777, 0.43801748752593994, 9.904156684875488, 0.17360639572143555, -0.10760745406150818, 0.280975341796875, 0.6513571739196777, 0.18143843114376068, -1.01416015625, 0.23046875, -0.20361328125, 0, 
222, 1008605482, 0.551795244216919, 0.4478667974472046, -0.5505185127258301, 0.4380345344543457, 9.913516998291016, 0.17024514079093933, -0.09398107975721359, 0.23997977375984192, 0.4880536198616028, 0.16569849848747253, -1.01513671875, 0.22998046875, -0.20654296875, 0, 
223, 1008613815, 0.551785945892334, 0.44787827134132385, -0.5505046248435974, 0.4380520284175873, 9.920000076293945, 0.20994286239147186, -0.07376734912395477, 0.1582319289445877, 0.5298944711685181, 0.13807353377342224, -1.0166015625, 0.22705078125, -0.2041015625, 0, 
224, 1008622148, 0.5517714023590088, 0.4478926658630371, -0.5505038499832153, 0.438056617975235, 9.906044006347656, 0.23247455060482025, -0.09996813535690308, 0.039266619831323624, 0.35575610399246216, 0.16687673330307007, -1.01513671875, 0.228515625, -0.203125, 0, 
225, 1008630481, 0.551756739616394, 0.4478974938392639, -0.5505186915397644, 0.4380514621734619, 9.928553581237793, 0.22653034329414368, -0.11928820610046387, -0.20276229083538055, 0.17210203409194946, 0.22619929909706116, -1.01416015625, 0.2314453125, -0.2060546875, 0, 
226, 1008638814, 0.5517457723617554, 0.4479038715362549, -0.5505365133285522, 0.4380362629890442, 9.940070152282715, 0.2136339545249939, -0.08645641058683395, -0.30685853958129883, 0.1667102426290512, 0.16978396475315094, -1.015625, 0.2314453125, -0.2060546875, 0, 
227, 1008647147, 0.5517421960830688, 0.44790196418762207, -0.5505491495132446, 0.4380268454551697, 9.908267974853516, 0.2175396829843521, -0.11300761997699738, -0.3416938781738281, 0.286636084318161, 0.16343161463737488, -1.015625, 0.23095703125, -0.20654296875, 0, 
228, 1008655480, 0.5517371296882629, 0.447908878326416, -0.5505663156509399, 0.4380045533180237, 9.889714241027832, 0.20036543905735016, -0.12708456814289093, -0.3862370252609253, 0.17206361889839172, 0.07347442954778671, -1.01318359375, 0.2314453125, -0.205078125, 0, 
229, 1008663813, 0.5517338514328003, 0.44791656732559204, -0.5505815744400024, 0.43798163533210754, 9.889778137207031, 0.1728055328130722, -0.10635562241077423, -0.3882605731487274, 0.12803274393081665, 0.0026254591066390276, -1.01708984375, 0.23291015625, -0.20556640625, 0, 
230, 1008672146, 0.5517429113388062, 0.44791388511657715, -0.5505915284156799, 0.4379604160785675, 9.89660930633545, 0.166354238986969, -0.13628309965133667, -0.5015267729759216, 0.39677733182907104, 0.024679316207766533, -1.01416015625, 0.23095703125, -0.20556640625, 0, 
231, 1008680479, 0.5517697930335999, 0.4479048252105713, -0.5505834817886353, 0.4379458725452423, 9.872968673706055, 0.151847705245018, -0.11626946181058884, -0.4979150891304016, 0.6858339309692383, -0.13140103220939636, -1.0146484375, 0.23095703125, -0.20654296875, 0, 
232, 1008688812, 0.5518082976341248, 0.44789665937423706, -0.5505593419075012, 0.43793606758117676, 9.886137008666992, 0.15854276716709137, -0.13738465309143066, -0.42962753772735596, 0.9825491905212402, -0.23590710759162903, -1.015625, 0.2314453125, -0.2060546875, 0, 
233, 1008697145, 0.5518514513969421, 0.4478819966316223, -0.5505281686782837, 0.43793588876724243, 9.899361610412598, 0.16061678528785706, -0.09270792454481125, -0.3936651945114136, 1.1053950786590576, -0.21959085762500763, -1.01513671875, 0.23388671875, -0.20458984375, 0, 
234, 1008705478, 0.5518923997879028, 0.44787317514419556, -0.5505026578903198, 0.4379253387451172, 9.9244966506958, 0.15839938819408417, -0.10176341235637665, -0.4469683766365051, 1.011185884475708, -0.25977954268455505, -1.01513671875, 0.22802734375, -0.20458984375, 0, 
235, 1008713811, 0.551937460899353, 0.4478544592857361, -0.5504739284515381, 0.437923789024353, 9.941736221313477, 0.16968689858913422, -0.1214052066206932, -0.4604927599430084, 1.1179718971252441, -0.19710156321525574, -1.01708984375, 0.2294921875, -0.2060546875, 0, 
236, 1008722144, 0.55198073387146, 0.4478246569633484, -0.5504565834999084, 0.4379216730594635, 9.961135864257812, 0.19425737857818604, -0.1516045182943344, -0.6056100726127625, 1.1428557634353638, 0.0005635131383314729, -1.015625, 0.23291015625, -0.20458984375, 0, 
237, 1008730477, 0.5520403981208801, 0.4477754533290863, -0.5504374504089355, 0.43792083859443665, 9.973859786987305, 0.20181746780872345, -0.16456545889377594, -0.8343068361282349, 1.3452467918395996, 0.010873242281377316, -1.01025390625, 0.23193359375, -0.2080078125, 0, 
238, 1008738810, 0.5520952343940735, 0.44772300124168396, -0.5504266619682312, 0.4379188120365143, 9.973302841186523, 0.20761166512966156, -0.13513147830963135, -0.8948588967323303, 1.3167892694473267, 0.1438879668712616, -1.01611328125, 0.23486328125, -0.20556640625, 0, 
239, 1008747143, 0.5521406531333923, 0.44766390323638916, -0.5504429340362549, 0.43790146708488464, 9.94104290008545, 0.2170172482728958, -0.09073381125926971, -1.1592745780944824, 0.9257368445396423, 0.26304537057876587, -1.015625, 0.22900390625, -0.2060546875, 0, 
240, 1008755476, 0.5521685481071472, 0.4476137161254883, -0.5504767298698425, 0.43787509202957153, 9.917888641357422, 0.1922469586133957, -0.13955196738243103, -1.1581732034683228, 0.6123722791671753, 0.3779508173465729, -1.0146484375, 0.22998046875, -0.20556640625, 0, 
241, 1008763809, 0.5522058606147766, 0.4475581645965576, -0.5505098700523376, 0.4378432631492615, 9.897817611694336, 0.17369963228702545, -0.13515296578407288, -1.2939542531967163, 0.6243597865104675, 0.2790542542934418, -1.01318359375, 0.22998046875, -0.20703125, 0, 
242, 1008772142, 0.5522578954696655, 0.4474923610687256, -0.5505286455154419, 0.4378213584423065, 9.866007804870605, 0.15895487368106842, -0.13280488550662994, -1.295362949371338, 1.0308064222335815, 0.29408982396125793, -1.01318359375, 0.22998046875, -0.2060546875, 0, 
243, 1008780475, 0.5523161292076111, 0.4474365711212158, -0.5505273938179016, 0.4378065764904022, 9.841167449951172, 0.14701281487941742, -0.10667748004198074, -1.0889123678207397, 1.1507322788238525, 0.07244985550642014, -1.01416015625, 0.22900390625, -0.2041015625, 0, 
244, 1008788808, 0.5523790121078491, 0.44738924503326416, -0.5505228042602539, 0.4377811551094055, 9.845430374145508, 0.1414760798215866, -0.05456188693642616, -1.1141679286956787, 1.156982183456421, -0.08327187597751617, -1.0166015625, 0.232421875, -0.20458984375, 0, 
245, 1008797141, 0.5524237751960754, 0.44735464453697205, -0.5505256056785583, 0.4377565085887909, 9.84853458404541, 0.12555384635925293, -0.07202912867069244, -0.9427574872970581, 0.8310410976409912, -0.05553165823221207, -1.0166015625, 0.2314453125, -0.20654296875, 0, 
246, 1008805474, 0.5524563789367676, 0.44733187556266785, -0.5505343079566956, 0.43772780895233154, 9.880980491638184, 0.15216243267059326, -0.09126312285661697, -0.8452953100204468, 0.6586572527885437, -0.029891809448599815, -1.01416015625, 0.2294921875, -0.203125, 0, 
247, 1008813807, 0.5524865984916687, 0.4473148584365845, -0.5505306124687195, 0.43771159648895264, 9.887175559997559, 0.15184025466442108, -0.09705688804388046, -0.6183531880378723, 0.715930700302124, -0.07735498249530792, -1.0126953125, 0.23193359375, -0.2060546875, 0, 
248, 1008822140, 0.5525115728378296, 0.44730424880981445, -0.5505222678184509, 0.43770137429237366, 9.888748168945312, 0.17571674287319183, -0.09288682043552399, -0.4624650180339813, 0.7703096270561218, -0.041443832218647, -1.017578125, 0.22998046875, -0.20849609375, 0, 
249, 1008830473, 0.5525362491607666, 0.4472852945327759, -0.5505133271217346, 0.4377007484436035, 9.901001930236816, 0.15699750185012817, -0.09243620187044144, -0.4492736756801605, 0.8206928372383118, 0.05746553838253021, -1.01904296875, 0.2294921875, -0.20556640625, 0, 
250, 1008838806, 0.5525655746459961, 0.4472738206386566, -0.5504985451698303, 0.43769437074661255, 9.89648723602295, 0.1443374902009964, -0.08127778023481369, -0.4321250021457672, 0.8826408386230469, -0.07122038304805756, -1.01220703125, 0.2333984375, -0.20751953125, 0, 
251, 1008847139, 0.5525975227355957, 0.4472522437572479, -0.550483763217926, 0.4376945197582245, 9.897231101989746, 0.13844327628612518, -0.10337288677692413, -0.4734022915363312, 0.9409773349761963, 0.002394930925220251, -1.01416015625, 0.22998046875, -0.20703125, 0, 
252, 1008855472, 0.5526100397109985, 0.447254478931427, -0.5504816174507141, 0.4376792311668396, 9.906787872314453, 0.1394089162349701, -0.09478232264518738, -0.3605203628540039, 0.5213009119033813, -0.06360013782978058, -1.015625, 0.2314453125, -0.20556640625, 0, 
253, 1008863805, 0.5526043772697449, 0.4472692608833313, -0.5504850149154663, 0.4376670718193054, 9.942996978759766, 0.14368672668933868, -0.10528276115655899, -0.16818304359912872, 0.22390682995319366, -0.027791442349553108, -1.01123046875, 0.2314453125, -0.205078125, 0, 
254, 1008872138, 0.5525869727134705, 0.4472876787185669, -0.5504915714263916, 0.43766188621520996, 9.990583419799805, 0.1675124317407608, -0.10783626139163971, -0.03793467953801155, 0.19273430109024048, 0.12383200973272324, -1.0146484375, 0.232421875, -0.2080078125, 0, 
255, 1008880471, 0.5525720119476318, 0.4472954273223877, -0.5504850149154663, 0.4376811981201172, 9.986455917358398, 0.1679559051990509, -0.140252947807312, 0.13423138856887817, 0.46322059631347656, 0.2610730826854706, -1.01123046875, 0.2314453125, -0.20849609375, 0, 
256, 1008888804, 0.5525432229042053, 0.4473123550415039, -0.5504918694496155, 0.4376915693283081, 9.970948219299316, 0.180423304438591, -0.16302044689655304, 0.13913653790950775, 0.2103441059589386, 0.3227137625217438, -1.01318359375, 0.2314453125, -0.20361328125, 0, 
257, 1008897137, 0.5525052547454834, 0.4473385810852051, -0.5505173206329346, 0.4376806616783142, 9.91708755493164, 0.17928600311279297, -0.12209902703762054, -0.004661790560930967, -0.24781769514083862, 0.2259303629398346, -1.013671875, 0.23193359375, -0.20458984375, 0, 
258, 1008905470, 0.5524553656578064, 0.44736987352371216, -0.5505660772323608, 0.43765032291412354, 9.896601676940918, 0.17495138943195343, -0.06888187676668167, -0.17881296575069427, -0.6068779826164246, 0.2884034514427185, -1.0166015625, 0.232421875, -0.20556640625, 0, 
259, 1008913803, 0.5524176359176636, 0.44739240407943726, -0.5506156086921692, 0.43761247396469116, 9.885636329650879, 0.16814903914928436, -0.12079005688428879, -0.38348352909088135, -0.5747706890106201, 0.19689662754535675, -1.01904296875, 0.228515625, -0.2080078125, 0, 
260, 1008922136, 0.5523906946182251, 0.44741007685661316, -0.5506551861763, 0.4375786781311035, 9.880829811096191, 0.16990114748477936, -0.14106819033622742, -0.3955605924129486, -0.3006598949432373, 0.17208923399448395, -1.013671875, 0.232421875, -0.20361328125, 0, 
261, 1008930469, 0.5523887872695923, 0.4474164545536041, -0.5506781935691833, 0.437545508146286, 9.883633613586426, 0.17704007029533386, -0.15174762904644012, -0.5320076942443848, 0.025063531473279, -0.026228979229927063, -1.01220703125, 0.2314453125, -0.20263671875, 0, 
262, 1008938802, 0.5523897409439087, 0.4474343955516815, -0.5506904721260071, 0.43751072883605957, 9.918904304504395, 0.17352081835269928, -0.08873817324638367, -0.40485864877700806, 0.10854033380746841, -0.17223013937473297, -1.0146484375, 0.2314453125, -0.2060546875, 0, 
263, 1008947135, 0.5523914694786072, 0.44744938611984253, -0.5506967902183533, 0.4374852180480957, 9.925614356994629, 0.17686119675636292, -0.10250023752450943, -0.3295527398586273, 0.1752653867006302, -0.1570664793252945, -1.01318359375, 0.2294921875, -0.205078125, 0, 
264, 1008955468, 0.5523967742919922, 0.4474646747112274, -0.5506994128227234, 0.4374594986438751, 9.954561233520508, 0.17011606693267822, -0.07873134315013885, -0.328784316778183, 0.28732767701148987, -0.16874657571315765, -1.01123046875, 0.2333984375, -0.2041015625, 0, 
265, 1008963801, 0.5524211525917053, 0.44745880365371704, -0.550678551197052, 0.43746107816696167, 9.929769515991211, 0.1680774986743927, -0.12137658894062042, -0.2598308324813843, 0.8447191119194031, -0.095643550157547, -1.01171875, 0.22998046875, -0.2041015625, 0, 
266, 1008972134, 0.552436113357544, 0.44745928049087524, -0.5506592988967896, 0.43746575713157654, 9.94737434387207, 0.1554672122001648, -0.12220633774995804, -0.14290180802345276, 0.8000221848487854, -0.02003033086657524, -1.01171875, 0.22900390625, -0.20263671875, 0, 
267, 1008980467, 0.552442193031311, 0.4474497437477112, -0.550663411617279, 0.43746262788772583, 9.931593894958496, 0.1598016619682312, -0.13928015530109406, -0.36000803112983704, 0.5098641514778137, 0.1597944051027298, -1.013671875, 0.23193359375, -0.20849609375, 0, 
268, 1008988800, 0.5524402856826782, 0.447437047958374, -0.5506839752197266, 0.43745213747024536, 9.915027618408203, 0.13815715909004211, -0.14116135239601135, -0.48369917273521423, 0.3583815395832062, 0.3129931390285492, -1.015625, 0.23291015625, -0.203125, 0, 
269, 1008997133, 0.5524538159370422, 0.4474199116230011, -0.5507012605667114, 0.43743085861206055, 9.902267456054688, 0.17594562470912933, -0.13952335715293884, -0.6813130378723145, 0.39885205030441284, 0.11568669229745865, -1.0166015625, 0.2294921875, -0.20458984375, 0, 
270, 1009005466, 0.5524539351463318, 0.44740360975265503, -0.5507408380508423, 0.43739762902259827, 9.880815505981445, 0.17410019040107727, -0.09833013266324997, -0.8102166652679443, 0.10942400991916656, 0.2718694806098938, -1.0166015625, 0.23095703125, -0.20556640625, 0, 
271, 1009013799, 0.552444338798523, 0.44739896059036255, -0.5507784485816956, 0.4373670816421509, 9.877668380737305, 0.19493639469146729, -0.12460950762033463, -0.6367186307907104, -0.06178152933716774, 0.21250848472118378, -1.01416015625, 0.23193359375, -0.203125, 0, 
272, 1009022132, 0.5524343848228455, 0.4474022090435028, -0.550818681716919, 0.437325656414032, 9.876180648803711, 0.17016613483428955, -0.08190720528364182, -0.6677119135856628, -0.1381375789642334, 0.1270337998867035, -1.01708984375, 0.228515625, -0.20703125, 0, 
273, 1009030465, 0.5524272918701172, 0.44740575551986694, -0.5508495569229126, 0.4372920095920563, 9.894083976745605, 0.17059530317783356, -0.11693467944860458, -0.5723756551742554, -0.05973239243030548, 0.07219371944665909, -1.01611328125, 0.232421875, -0.20556640625, 0, 
274, 1009038798, 0.5524281859397888, 0.4474143087863922, -0.5508668422698975, 0.4372607171535492, 9.911079406738281, 0.16825632750988007, -0.11919497698545456, -0.48354554176330566, 0.1467311531305313, -0.04328806325793266, -1.01513671875, 0.2333984375, -0.20556640625, 0, 
275, 1009047131, 0.5524321794509888, 0.447426438331604, -0.5508652925491333, 0.4372452199459076, 9.907360076904297, 0.13548915088176727, -0.09721428900957108, -0.24228502810001373, 0.3306669592857361, -0.121385857462883, -1.015625, 0.2314453125, -0.20751953125, 0, 
276, 1009055464, 0.5524290800094604, 0.44744452834129333, -0.5508715510368347, 0.43722259998321533, 9.921464920043945, 0.1401456594467163, -0.10990343242883682, -0.24484646320343018, 0.1963202953338623, -0.09377370029687881, -1.01318359375, 0.2333984375, -0.2060546875, 0, 
277, 1009063797, 0.5524192452430725, 0.44745633006095886, -0.5508769154548645, 0.43721604347229004, 9.94021987915039, 0.1115986555814743, -0.14310692250728607, -0.1331043839454651, 0.23040005564689636, 0.07361530512571335, -1.01220703125, 0.22802734375, -0.2041015625, 0, 
278, 1009072130, 0.552426278591156, 0.4474633038043976, -0.550864577293396, 0.43721556663513184, 9.940749168395996, 0.11495333909988403, -0.14995220303535461, -0.12216708809137344, 0.6171749830245972, -0.016175389289855957, -1.01220703125, 0.2314453125, -0.201171875, 0, 
279, 1009080463, 0.5524402260780334, 0.44746747612953186, -0.5508402585983276, 0.4372243881225586, 9.944676399230957, 0.128229022026062, -0.09984653443098068, -0.04285261407494545, 0.7770718336105347, -0.07699639350175858, -1.01953125, 0.23193359375, -0.2041015625, 0, 
280, 1009088796, 0.5524435043334961, 0.4474828839302063, -0.5508180856704712, 0.43723225593566895, 9.955462455749512, 0.13567513227462769, -0.09766491502523422, 0.10162447392940521, 0.6638056635856628, -0.05568534508347511, -1.013671875, 0.2294921875, -0.20751953125, 0, 
281, 1009097129, 0.5524418354034424, 0.4474964737892151, -0.5507981777191162, 0.43724560737609863, 9.942373275756836, 0.14709821343421936, -0.07350261509418488, 0.1323871910572052, 0.595518171787262, 0.0079532191157341, -1.01318359375, 0.23095703125, -0.203125, 0, 
282, 1009105462, 0.5524309277534485, 0.4475080370903015, -0.5507861971855164, 0.43726271390914917, 9.937244415283203, 0.1545228660106659, -0.09421009570360184, 0.18133597075939178, 0.5610925555229187, 0.19071078300476074, -1.01220703125, 0.22998046875, -0.20458984375, 0, 
283, 1009113795, 0.552425742149353, 0.4475143849849701, -0.5507689118385315, 0.4372846484184265, 9.930604934692383, 0.1559249609708786, -0.10709946602582932, 0.14753800630569458, 0.644018828868866, 0.16539113223552704, -1.0126953125, 0.2294921875, -0.203125, 0, 
284, 1009122128, 0.55242520570755, 0.4475039839744568, -0.5507557988166809, 0.43731221556663513, 9.946335792541504, 0.18855608999729156, -0.12983840703964233, 0.02991742640733719, 0.8428107500076294, 0.369434118270874, -1.0126953125, 0.22998046875, -0.20556640625, 0, 
285, 1009130461, 0.5524435639381409, 0.44746845960617065, -0.550733745098114, 0.4373531937599182, 9.914326667785645, 0.17891405522823334, -0.1227356344461441, -0.142312690615654, 1.2282154560089111, 0.4564840793609619, -1.015625, 0.23193359375, -0.2021484375, 0, 
286, 1009138794, 0.5524619817733765, 0.4474360942840576, -0.5507175922393799, 0.4373835325241089, 9.913676261901855, 0.2025613635778427, -0.11444548517465591, -0.22788985073566437, 1.160568118095398, 0.42195606231689453, -1.01806640625, 0.2353515625, -0.20703125, 0, 
287, 1009147127, 0.5524533987045288, 0.4474092125892639, -0.5507388710975647, 0.4373951256275177, 9.891880989074707, 0.19225411117076874, -0.09897388517856598, -0.3932937681674957, 0.46354082226753235, 0.5963250398635864, -1.01611328125, 0.23046875, -0.203125, 0, 
288, 1009155460, 0.552440881729126, 0.4473876953125, -0.550765872001648, 0.4373989701271057, 9.91504192352295, 0.1841570883989334, -0.0935162678360939, -0.40585750341415405, 0.36883217096328735, 0.589447557926178, -1.01611328125, 0.23193359375, -0.2041015625, 0, 
289, 1009163793, 0.5524341464042664, 0.44736167788505554, -0.5507820844650269, 0.43741360306739807, 9.883606910705566, 0.17383581399917603, -0.15037395060062408, -0.34527987241744995, 0.5290235877037048, 0.5720043182373047, -1.01611328125, 0.232421875, -0.2041015625, 0, 
290, 1009172126, 0.5524399280548096, 0.4473314583301544, -0.5507819652557373, 0.43743735551834106, 9.903667449951172, 0.15917204320430756, -0.14684078097343445, -0.27181825041770935, 0.8871105909347534, 0.5291773080825806, -1.01171875, 0.23046875, -0.2060546875, 0, 
291, 1009180459, 0.552457332611084, 0.44729673862457275, -0.5507675409317017, 0.4374689757823944, 9.887675285339355, 0.14420846104621887, -0.10918814688920975, -0.2461271733045578, 1.1019115447998047, 0.4331238865852356, -1.01416015625, 0.22900390625, -0.20166015625, 0, 
292, 1009188792, 0.5524693727493286, 0.44727689027786255, -0.5507542490959167, 0.4374910593032837, 9.880921363830566, 0.1360110640525818, -0.0940098762512207, -0.18006809055805206, 0.962211549282074, 0.3203188180923462, -1.01416015625, 0.22998046875, -0.20458984375, 0, 
293, 1009197125, 0.5524680018424988, 0.44725990295410156, -0.5507503151893616, 0.4375148117542267, 9.899971008300781, 0.14723411202430725, -0.11360860615968704, -0.11997708678245544, 0.7251518368721008, 0.41634660959243774, -1.015625, 0.232421875, -0.20654296875, 0, 
294, 1009205458, 0.552470862865448, 0.4472438097000122, -0.5507439374923706, 0.4375358819961548, 9.905220985412598, 0.15768441557884216, -0.12178430706262589, -0.1360372006893158, 0.8114461302757263, 0.3825613856315613, -1.01513671875, 0.23193359375, -0.20751953125, 0, 
295, 1009213791, 0.5524750351905823, 0.44721901416778564, -0.5507410764694214, 0.4375595450401306, 9.897509574890137, 0.16039523482322693, -0.07755834609270096, -0.21930906176567078, 0.8042485117912292, 0.4466225802898407, -1.01416015625, 0.2314453125, -0.205078125, 0, 
296, 1009222124, 0.552484393119812, 0.4471948742866516, -0.5507340431213379, 0.43758121132850647, 9.890973091125488, 0.16118931770324707, -0.08601293712854385, -0.23186005651950836, 0.9171048998832703, 0.405486136674881, -1.017578125, 0.23388671875, -0.20556640625, 0, 
297, 1009230457, 0.5524908304214478, 0.44716763496398926, -0.5507424473762512, 0.43759050965309143, 9.884099006652832, 0.17233344912528992, -0.11414507031440735, -0.42775771021842957, 0.6625761985778809, 0.4123251438140869, -1.01220703125, 0.2314453125, -0.2060546875, 0, 
298, 1009238790, 0.552495539188385, 0.44715458154678345, -0.5507474541664124, 0.43759122490882874, 9.888405799865723, 0.17204762995243073, -0.16413617134094238, -0.3670775890350342, 0.5941861867904663, 0.2642236351966858, -1.0166015625, 0.2333984375, -0.20361328125, 0, 
299, 1009247123, 0.5525014400482178, 0.44714784622192383, -0.5507503747940063, 0.4375869631767273, 9.896758079528809, 0.18321245908737183, -0.08882410079240799, -0.3392861485481262, 0.4935222566127777, 0.12168043851852417, -1.0146484375, 0.232421875, -0.20361328125, 0, 
300, 1009255456, 0.5524932146072388, 0.44715866446495056, -0.5507466197013855, 0.4375910460948944, 9.921564102172852, 0.19063037633895874, -0.10453163832426071, -0.017135925590991974, 0.4417559504508972, 0.1320798099040985, -1.0166015625, 0.234375, -0.20263671875, 0, 
301, 1009263789, 0.5524826049804688, 0.44716939330101013, -0.5507450699806213, 0.4375953674316406, 9.92065143585205, 0.2063237875699997, -0.106105275452137, -0.014010986313223839, 0.34944218397140503, 0.12874995172023773, -1.0146484375, 0.232421875, -0.2060546875, 0, 
302, 1009272122, 0.552464485168457, 0.4471840262413025, -0.5507550239562988, 0.43759089708328247, 9.897038459777832, 0.21502161026000977, -0.1349097639322281, -0.08022379130125046, 0.18584409356117249, 0.1838717758655548, -1.01806640625, 0.23388671875, -0.20556640625, 0, 
303, 1009280455, 0.5524579286575317, 0.44719427824020386, -0.550758421421051, 0.43758437037467957, 9.87523078918457, 0.1861889809370041, -0.09584801644086838, -0.1526864618062973, 0.2790798842906952, 0.05559569597244263, -1.01318359375, 0.22998046875, -0.20361328125, 0, 
304, 1009288788, 0.5524397492408752, 0.44723087549209595, -0.5507705807685852, 0.4375546872615814, 9.8844633102417, 0.18829144537448883, -0.11847969144582748, -0.10066394507884979, -0.1187731996178627, -0.1632651388645172, -1.01123046875, 0.23046875, -0.2021484375, 0, 
305, 1009297121, 0.5524173378944397, 0.4472654163837433, -0.5507851839065552, 0.4375292658805847, 9.875480651855469, 0.18123126029968262, -0.09759360551834106, -0.0809922069311142, -0.18639476597309113, -0.1066320538520813, -1.0126953125, 0.232421875, -0.20947265625, 0, 
306, 1009305454, 0.552392840385437, 0.44729676842689514, -0.5508068799972534, 0.43750104308128357, 9.895915031433105, 0.14344310760498047, -0.08189290016889572, -0.14901083707809448, -0.1998806893825531, -0.014254323206841946, -1.015625, 0.232421875, -0.20556640625, 0, 
307, 1009313787, 0.552374541759491, 0.4473237693309784, -0.5508179664611816, 0.4374825954437256, 9.93674373626709, 0.11903046071529388, -0.10351594537496567, -0.09040544182062149, -0.04255804792046547, -0.043736301362514496, -1.01513671875, 0.232421875, -0.20751953125, 0, 
308, 1009322120, 0.5523678064346313, 0.4473339915275574, -0.5508189797401428, 0.43747931718826294, 9.942294120788574, 0.10183502733707428, -0.103995181620121, -0.1165703758597374, 0.37510767579078674, 0.10083043575286865, -1.01513671875, 0.23095703125, -0.20556640625, 0, 
309, 1009330453, 0.5523681044578552, 0.44734036922454834, -0.550807535648346, 0.4374867081642151, 9.960433959960938, 0.06413239240646362, -0.07017654180526733, -0.03123655915260315, 0.5515256524085999, 0.0575551837682724, -1.015625, 0.2314453125, -0.20361328125, 0, 
310, 1009338786, 0.5523654222488403, 0.44736018776893616, -0.5508049726486206, 0.4374731481075287, 9.944411277770996, 0.09669212996959686, -0.09644893556833267, -0.11065348982810974, 0.3120710253715515, -0.09487512707710266, -1.0146484375, 0.23046875, -0.20654296875, 0, 
311, 1009347119, 0.5523424744606018, 0.4473855495452881, -0.5508214831352234, 0.437455415725708, 9.93315315246582, 0.14540299773216248, -0.09256494045257568, -0.10194464772939682, -0.10481344163417816, 0.03438710793852806, -1.013671875, 0.232421875, -0.20556640625, 0, 
312, 1009355452, 0.5522934198379517, 0.4474329948425293, -0.5508497357368469, 0.43743324279785156, 9.906929016113281, 0.15094627439975739, -0.1172708123922348, 0.11691617965698242, -0.493765652179718, 0.09880691766738892, -1.0146484375, 0.23486328125, -0.20361328125, 0, 
313, 1009363785, 0.5522453784942627, 0.44747859239578247, -0.5508689284324646, 0.43742311000823975, 9.891796112060547, 0.14033137261867523, -0.1503741294145584, 0.24844522774219513, -0.389310747385025, 0.10585082322359085, -1.01611328125, 0.22998046875, -0.20556640625, 0, 
314, 1009372118, 0.5522016882896423, 0.44752761721611023, -0.5508728623390198, 0.43742287158966064, 9.890235900878906, 0.1571694165468216, -0.13583248853683472, 0.3829200267791748, -0.14405447244644165, 0.07024703919887543, -1.01416015625, 0.2294921875, -0.20361328125, 0, 
315, 1009380451, 0.5521582365036011, 0.4475683569908142, -0.5508699417114258, 0.4374397397041321, 9.913819313049316, 0.12586857378482819, -0.13201315701007843, 0.5215698480606079, 0.009515686891973019, 0.18476825952529907, -1.015625, 0.232421875, -0.20556640625, 0, 
316, 1009388784, 0.5521184206008911, 0.447610080242157, -0.5508615970611572, 0.43745797872543335, 9.919390678405762, 0.13067546486854553, -0.10717077553272247, 0.5365285873413086, 0.13543526828289032, 0.16904114186763763, -1.015625, 0.2294921875, -0.20703125, 0, 
317, 1009397117, 0.5521101951599121, 0.4476272761821747, -0.5508332848548889, 0.43748635053634644, 9.933202743530273, 0.13104723393917084, -0.11871573328971863, 0.36424720287323, 0.6815050840377808, 0.08336152136325836, -1.015625, 0.23388671875, -0.205078125, 0, 
318, 1009405450, 0.5520960688591003, 0.4476517140865326, -0.5508052110671997, 0.43751460313796997, 9.922216415405273, 0.13317878544330597, -0.11654127389192581, 0.4546782672405243, 0.6460934281349182, 0.09820497781038284, -1.01708984375, 0.22802734375, -0.20458984375, 0, 
319, 1009413783, 0.5520796775817871, 0.44767168164253235, -0.5507873296737671, 0.437537282705307, 9.934720993041992, 0.14988738298416138, -0.09999687969684601, 0.3295143246650696, 0.4880920350551605, 0.13026118278503418, -1.0146484375, 0.23095703125, -0.20458984375, 0, 
320, 1009422116, 0.5520601272583008, 0.44769126176834106, -0.5507633686065674, 0.43757200241088867, 9.96665096282959, 0.16810569167137146, -0.09873802214860916, 0.46877893805503845, 0.643263041973114, 0.24316871166229248, -1.01806640625, 0.22998046875, -0.20263671875, 0, 
321, 1009430449, 0.5520465970039368, 0.44769471883773804, -0.5507326126098633, 0.4376242160797119, 9.948381423950195, 0.17756932973861694, -0.09681373089551926, 0.48811766505241394, 0.8882375955581665, 0.38358595967292786, -1.02099609375, 0.23193359375, -0.2060546875, 0, 
322, 1009438782, 0.5520296096801758, 0.4476960301399231, -0.5507098436355591, 0.4376729726791382, 9.933753967285156, 0.18278375267982483, -0.07844522595405579, 0.43225300312042236, 0.8495857119560242, 0.480202853679657, -1.01318359375, 0.2294921875, -0.203125, 0, 
323, 1009447115, 0.551994800567627, 0.4476979374885559, -0.550711989402771, 0.43771231174468994, 9.904205322265625, 0.19052311778068542, -0.08758655935525894, 0.3108799457550049, 0.4059343636035919, 0.6288551092147827, -1.01513671875, 0.23046875, -0.20556640625, 0, 
324, 1009455448, 0.5519639253616333, 0.4477001428604126, -0.550722062587738, 0.4377362132072449, 9.883784294128418, 0.18678927421569824, -0.12126224488019943, 0.12073269486427307, 0.3373010456562042, 0.5695965886116028, -1.017578125, 0.2333984375, -0.20458984375, 0, 
325, 1009463781, 0.5519278049468994, 0.44770801067352295, -0.5507502555847168, 0.437738299369812, 9.89854907989502, 0.17028774321079254, -0.11224231123924255, -0.07358969002962112, -0.06421488523483276, 0.46844592690467834, -1.01318359375, 0.23388671875, -0.2080078125, 0, 
326, 1009472114, 0.551910400390625, 0.44770750403404236, -0.5507723093032837, 0.43773317337036133, 9.900114059448242, 0.1704595386981964, -0.1024642288684845, -0.2497899979352951, 0.18602338433265686, 0.36317139863967896, -1.015625, 0.23291015625, -0.20458984375, 0, 
327, 1009480447, 0.5519031882286072, 0.4476998746395111, -0.550771951675415, 0.43775054812431335, 9.88721752166748, 0.15874303877353668, -0.12400884181261063, -0.082042396068573, 0.5569431185722351, 0.35315626859664917, -1.01416015625, 0.23046875, -0.20703125, 0, 
328, 1009488780, 0.5518990755081177, 0.4476955235004425, -0.5507626533508301, 0.4377717971801758, 9.882568359375, 0.14591799676418304, -0.1173495426774025, 0.004251963458955288, 0.7096168398857117, 0.3184617757797241, -1.01220703125, 0.23095703125, -0.2041015625, 0, 
329, 1009497113, 0.5518828630447388, 0.44770359992980957, -0.5507593750953674, 0.43778812885284424, 9.89139461517334, 0.15268458425998688, -0.11356569081544876, 0.1032894030213356, 0.4093795120716095, 0.262353777885437, -1.01806640625, 0.22900390625, -0.20361328125, 0, 
330, 1009505446, 0.5518725514411926, 0.44770923256874084, -0.5507616400718689, 0.4377925395965576, 9.882625579833984, 0.14998796582221985, -0.13348636031150818, -0.08014693856239319, 0.4128374755382538, 0.22293350100517273, -1.01416015625, 0.23193359375, -0.20458984375, 0, 
331, 1009513779, 0.5518617033958435, 0.44771525263786316, -0.5507595539093018, 0.4378025233745575, 9.890650749206543, 0.16776993870735168, -0.12446662038564682, -0.0015624683583155274, 0.4152451157569885, 0.20533651113510132, -1.015625, 0.2333984375, -0.20068359375, 0, 
332, 1009522112, 0.5518466234207153, 0.4477376341819763, -0.5507566928863525, 0.43780219554901123, 9.904370307922363, 0.17310595512390137, -0.14347171783447266, 0.07384584099054337, 0.28457415103912354, 0.05647938698530197, -1.01416015625, 0.232421875, -0.201171875, 0, 
333, 1009530445, 0.5518311858177185, 0.4477485418319702, -0.5507634282112122, 0.4378019869327545, 9.901415824890137, 0.1794433742761612, -0.1261618435382843, -0.06667385250329971, 0.22167840600013733, 0.17367732524871826, -1.0166015625, 0.23388671875, -0.19921875, 0, 
334, 1009538778, 0.5518031716346741, 0.4477674663066864, -0.5507829189300537, 0.43779367208480835, 9.907944679260254, 0.1685352772474289, -0.11272180825471878, -0.059706781059503555, -0.012192375026643276, 0.23981325328350067, -1.01708984375, 0.23095703125, -0.205078125, 0, 
335, 1009547111, 0.5517797470092773, 0.4477921724319458, -0.5507944822311401, 0.43778350949287415, 9.928139686584473, 0.1814461350440979, -0.11224935203790665, -0.016918202862143517, -0.019991910085082054, 0.06944019347429276, -1.0146484375, 0.2314453125, -0.20556640625, 0, 
336, 1009555444, 0.5517582893371582, 0.44782164692878723, -0.5507992506027222, 0.4377741813659668, 9.920737266540527, 0.18039479851722717, -0.13108298182487488, -0.014382394030690193, 0.078072190284729, 0.022514913231134415, -1.01611328125, 0.23095703125, -0.20654296875, 0, 
337, 1009563777, 0.5517505407333374, 0.4478394091129303, -0.5507937073707581, 0.43777287006378174, 9.94458293914795, 0.16594596207141876, -0.08558376878499985, 0.0039061708375811577, 0.3240841031074524, -0.010348150506615639, -1.0166015625, 0.23193359375, -0.201171875, 0, 
338, 1009572110, 0.5517529249191284, 0.44785264134407043, -0.5507916212081909, 0.43775874376296997, 9.936680793762207, 0.15249188244342804, -0.10718544572591782, -0.1953853815793991, 0.381844162940979, -0.07907114177942276, -1.01416015625, 0.234375, -0.20458984375, 0, 
339, 1009580443, 0.5517593622207642, 0.447866827249527, -0.5507981181144714, 0.4377279579639435, 9.92636489868164, 0.1344665139913559, -0.07970437407493591, -0.40588316321372986, 0.1809261441230774, -0.21695257723331451, -1.01318359375, 0.23291015625, -0.2041015625, 0, 
340, 1009588776, 0.5517607927322388, 0.4478873908519745, -0.5508168935775757, 0.43768149614334106, 9.949454307556152, 0.12792859971523285, -0.09263646602630615, -0.5948649644851685, -0.028790397569537163, -0.2438218742609024, -1.01220703125, 0.232421875, -0.2041015625, 0, 
341, 1009597109, 0.5517765283584595, 0.4478874206542969, -0.5508328676223755, 0.4376416802406311, 9.945563316345215, 0.12827171385288239, -0.10327256470918655, -0.6967071294784546, 0.20864073932170868, -0.17648206651210785, -1.013671875, 0.23388671875, -0.2041015625, 0, 
342, 1009605442, 0.5517863631248474, 0.447904497385025, -0.5508366227149963, 0.4376068115234375, 9.9342041015625, 0.11819326132535934, -0.11490292102098465, -0.44388189911842346, 0.24062015116214752, -0.2741619944572449, -1.013671875, 0.234375, -0.20556640625, 0, 
343, 1009613775, 0.5517737865447998, 0.4479221701622009, -0.5508657097816467, 0.43756797909736633, 9.914520263671875, 0.11785715073347092, -0.11176325380802155, -0.45917361974716187, -0.20528528094291687, -0.05149741843342781, -1.01611328125, 0.23046875, -0.2060546875, 0, 
344, 1009622108, 0.5517463088035583, 0.4479639530181885, -0.5509013533592224, 0.43751537799835205, 9.901774406433105, 0.11008966714143753, -0.09344465285539627, -0.34247514605522156, -0.5413697361946106, -0.17334432899951935, -1.01416015625, 0.22998046875, -0.2041015625, 0, 
345, 1009630441, 0.5517145395278931, 0.44799894094467163, -0.5509320497512817, 0.4374808669090271, 9.869900703430176, 0.12410182505846024, -0.10501804202795029, -0.186702162027359, -0.4406929314136505, -0.024410365149378777, -1.01611328125, 0.228515625, -0.203125, 0, 
346, 1009638774, 0.5516612529754639, 0.44805508852005005, -0.5509625673294067, 0.43745189905166626, 9.873505592346191, 0.13935883343219757, -0.13262085616588593, 0.11568670719861984, -0.6373334527015686, 0.018839271739125252, -1.01123046875, 0.23095703125, -0.20654296875, 0, 
347, 1009647107, 0.5515995025634766, 0.4481132924556732, -0.5509871244430542, 0.43743932247161865, 9.880037307739258, 0.12822934985160828, -0.10237870365381241, 0.3770415186882019, -0.6255636811256409, 0.10832259058952332, -1.01611328125, 0.2314453125, -0.203125, 0, 
348, 1009655440, 0.5515301823616028, 0.4481799304485321, -0.5510045289993286, 0.4374365210533142, 9.867403984069824, 0.12589718401432037, -0.148328498005867, 0.5568150281906128, -0.5616689920425415, 0.1560291051864624, -1.013671875, 0.23388671875, -0.20556640625, 0, 
349, 1009663773, 0.5514702796936035, 0.448231041431427, -0.5510126948356628, 0.4374493360519409, 9.875629425048828, 0.10177064687013626, -0.1287154108285904, 0.6029462814331055, -0.288621187210083, 0.24206732213497162, -1.0146484375, 0.23095703125, -0.2021484375, 0, 
350, 1009672106, 0.551424503326416, 0.44827425479888916, -0.5510051846504211, 0.437472403049469, 9.908339500427246, 0.10934551060199738, -0.15223395824432373, 0.6150874495506287, 0.10582521557807922, 0.23307673633098602, -1.017578125, 0.23046875, -0.205078125, 0, 
351, 1009680439, 0.5513820648193359, 0.4483072757720947, -0.5509867668151855, 0.4375152885913849, 9.90793228149414, 0.12286438047885895, -0.11177747696638107, 0.7453358173370361, 0.3398624658584595, 0.33827438950538635, -1.01513671875, 0.2294921875, -0.2021484375, 0, 
352, 1009688772, 0.5513443946838379, 0.4483325183391571, -0.5509642362594604, 0.4375652074813843, 9.918360710144043, 0.13978801667690277, -0.11611925065517426, 0.7281486988067627, 0.5548684000968933, 0.4310747981071472, -1.01513671875, 0.232421875, -0.20361328125, 0, 
353, 1009697105, 0.5513092875480652, 0.4483465254306793, -0.5509410500526428, 0.4376243054866791, 9.909005165100098, 0.14201970398426056, -0.10017556697130203, 0.7087585926055908, 0.6448255777359009, 0.5326607823371887, -1.01416015625, 0.23193359375, -0.20361328125, 0, 
354, 1009705438, 0.5512669086456299, 0.4483645260334015, -0.5509347319602966, 0.43766725063323975, 9.905464172363281, 0.16822771728038788, -0.12207041680812836, 0.5212113261222839, 0.39549657702445984, 0.5618866682052612, -1.017578125, 0.234375, -0.20361328125, 0, 
355, 1009713771, 0.5512270927429199, 0.44838035106658936, -0.550937294960022, 0.4376979470252991, 9.907560348510742, 0.2084122598171234, -0.11888766288757324, 0.38129347562789917, 0.23034879565238953, 0.490589439868927, -1.015625, 0.2333984375, -0.201171875, 0, 
356, 1009722104, 0.5511778593063354, 0.4484096169471741, -0.5509508848190308, 0.43771255016326904, 9.914727210998535, 0.21950644254684448, -0.15159019827842712, 0.37637558579444885, -0.051010746508836746, 0.4248889088630676, -1.01318359375, 0.23193359375, -0.20361328125, 0, 
357, 1009730437, 0.5511294007301331, 0.4484397768974304, -0.5509603023529053, 0.4377307891845703, 9.92459774017334, 0.21012191474437714, -0.156525656580925, 0.40709981322288513, -0.05058811232447624, 0.38140878081321716, -1.01513671875, 0.2294921875, -0.20556640625, 0, 
358, 1009738770, 0.5510793924331665, 0.4484771192073822, -0.5509757995605469, 0.43773600459098816, 9.935943603515625, 0.20146679878234863, -0.137663334608078, 0.34122002124786377, -0.17671260237693787, 0.3095608353614807, -1.0166015625, 0.234375, -0.20263671875, 0, 
359, 1009747103, 0.5510362386703491, 0.4485275447368622, -0.5509858131408691, 0.43772608041763306, 9.949719429016113, 0.18794095516204834, -0.14641869068145752, 0.3103804886341095, -0.3133133053779602, -0.012499745935201645, -1.017578125, 0.23291015625, -0.205078125, 0, 
360, 1009755436, 0.5509978532791138, 0.44858282804489136, -0.5509846806526184, 0.437719464302063, 9.94106388092041, 0.12030336260795593, -0.13058246672153473, 0.36806371808052063, -0.14292742311954498, -0.08859962970018387, -1.01416015625, 0.23193359375, -0.20166015625, 0, 
361, 1009763769, 0.5509795546531677, 0.4486161172389984, -0.5509814620018005, 0.4377124011516571, 9.94721508026123, 0.14307831227779388, -0.13438045978546143, 0.12895485758781433, 0.09757742285728455, -0.09213439375162125, -1.013671875, 0.23095703125, -0.205078125, 0, 
362, 1009772102, 0.5509744882583618, 0.44863656163215637, -0.5509762167930603, 0.4377043843269348, 9.919321060180664, 0.1378854364156723, -0.10532563924789429, -0.04515789449214935, 0.34150177240371704, -0.06311347335577011, -1.015625, 0.23388671875, -0.2001953125, 0, 
363, 1009780435, 0.5509704351425171, 0.4486580193042755, -0.5509817600250244, 0.4376804828643799, 9.911386489868164, 0.15591052174568176, -0.0912059023976326, -0.22863265872001648, 0.107259601354599, -0.162419855594635, -1.015625, 0.23046875, -0.2041015625, 0, 
364, 1009788768, 0.5509588718414307, 0.4486834704875946, -0.5509953498840332, 0.4376518726348877, 9.921107292175293, 0.16632504761219025, -0.11108335107564926, -0.251762330532074, -0.0076842703856527805, -0.10058709979057312, -1.017578125, 0.23095703125, -0.2021484375, 0, 
365, 1009797101, 0.5509408712387085, 0.4487086534500122, -0.551013708114624, 0.43762558698654175, 9.915535926818848, 0.17927110195159912, -0.11097659170627594, -0.2097293585538864, -0.13419298827648163, -0.04561895504593849, -1.013671875, 0.23193359375, -0.20458984375, 0, 
366, 1009805434, 0.5509135723114014, 0.44874852895736694, -0.5510290861129761, 0.43759965896606445, 9.924626350402832, 0.17278419435024261, -0.13885095715522766, -0.043006300926208496, -0.21218831837177277, -0.08155572414398193, -1.01513671875, 0.23046875, -0.2041015625, 0, 
367, 1009813767, 0.5508970022201538, 0.44878312945365906, -0.5510349273681641, 0.4375777244567871, 9.907674789428711, 0.1661176234483719, -0.147470161318779, -0.03824205324053764, -0.05665868893265724, -0.17043709754943848, -1.01171875, 0.23291015625, -0.203125, 0, 
368, 1009822100, 0.5508888363838196, 0.44880759716033936, -0.5510292649269104, 0.4375700056552887, 9.932544708251953, 0.16875702142715454, -0.1421341449022293, 0.05183040723204613, 0.2983418107032776, -0.0754595398902893, -1.01708984375, 0.23388671875, -0.20263671875, 0, 
369, 1009830433, 0.5508840084075928, 0.4488333463668823, -0.5510078072547913, 0.43757668137550354, 9.913954734802246, 0.16094611585140228, -0.13201287388801575, 0.20272384583950043, 0.4690606892108917, -0.12443394958972931, -1.015625, 0.23291015625, -0.20361328125, 0, 
370, 1009838766, 0.5508654117584229, 0.44886547327041626, -0.5509993433952332, 0.43757787346839905, 9.9104642868042, 0.1689787656068802, -0.12501738965511322, 0.21521076560020447, 0.24838121235370636, -0.019428394734859467, -1.0126953125, 0.23046875, -0.201171875, 0, 
371, 1009847099, 0.5508460402488708, 0.4488975703716278, -0.55101078748703, 0.4375550150871277, 9.898003578186035, 0.17018064856529236, -0.12928028404712677, -0.0815301164984703, -0.11231841892004013, -0.1053769588470459, -1.0185546875, 0.23046875, -0.201171875, 0, 
372, 1009855432, 0.5508390069007874, 0.44891688227653503, -0.5510095357894897, 0.4375452995300293, 9.909706115722656, 0.16747666895389557, -0.17991545796394348, -0.06767281144857407, 0.2926810383796692, -0.030532166361808777, -1.01416015625, 0.232421875, -0.201171875, 0, 
373, 1009863765, 0.5508361458778381, 0.44892632961273193, -0.5510062575340271, 0.43754324316978455, 9.923747062683105, 0.19834117591381073, -0.12523198127746582, -0.10965453088283539, 0.3899126946926117, 0.031672004610300064, -1.015625, 0.23095703125, -0.205078125, 0, 
374, 1009872098, 0.5508323311805725, 0.448934942483902, -0.5510086417198181, 0.4375365674495697, 9.920585632324219, 0.20120231807231903, -0.13426601886749268, -0.19174818694591522, 0.37167540192604065, 0.07736780494451523, -1.01513671875, 0.23095703125, -0.20166015625, 0, 
375, 1009880431, 0.5508325099945068, 0.44893181324005127, -0.5510079264640808, 0.4375404715538025, 9.9451265335083, 0.19965730607509613, -0.12689143419265747, -0.19397658109664917, 0.5049974322319031, 0.17009131610393524, -1.0166015625, 0.23095703125, -0.20166015625, 0, 
376, 1009888764, 0.5508314371109009, 0.4489457309246063, -0.5510198473930359, 0.4375123679637909, 9.94399642944336, 0.1933341920375824, -0.1478707194328308, -0.3851868808269501, 0.15651580691337585, -0.08053116500377655, -1.0185546875, 0.23193359375, -0.20703125, 0, 
377, 1009897097, 0.5508249402046204, 0.44895797967910767, -0.5510353446006775, 0.4374883472919464, 9.959711074829102, 0.1983410269021988, -0.13283540308475494, -0.3447420001029968, 0.0679161474108696, -0.018749620765447617, -1.013671875, 0.23193359375, -0.20751953125, 0, 
378, 1009905430, 0.5508294701576233, 0.44897520542144775, -0.5510482788085938, 0.4374486804008484, 9.938425064086914, 0.19663864374160767, -0.12587542831897736, -0.4619911313056946, 0.09897339344024658, -0.22244681417942047, -1.01806640625, 0.232421875, -0.20361328125, 0, 
379, 1009913763, 0.5508406162261963, 0.44898658990859985, -0.5510535836219788, 0.43741628527641296, 9.922165870666504, 0.19785445928573608, -0.1368478536605835, -0.46224725246429443, 0.2322186380624771, -0.24406524002552032, -1.0126953125, 0.22900390625, -0.2001953125, 0, 
380, 1009922096, 0.5508564114570618, 0.4489932060241699, -0.5510604977607727, 0.4373810589313507, 9.881287574768066, 0.1950651854276657, -0.10473907738924026, -0.566855788230896, 0.321023166179657, -0.2124316543340683, -1.01513671875, 0.23046875, -0.19873046875, 0, 
381, 1009930429, 0.5508702397346497, 0.44900041818618774, -0.5510825514793396, 0.4373284578323364, 9.866324424743652, 0.20755404233932495, -0.1393159180879593, -0.7641878128051758, 0.026228973641991615, -0.2772868871688843, -1.015625, 0.22900390625, -0.20166015625, 0, 
382, 1009938762, 0.5508930683135986, 0.44900670647621155, -0.5510990619659424, 0.43727248907089233, 9.875, 0.18822705745697021, -0.1480853110551834, -0.7953732013702393, 0.17526540160179138, -0.35073572397232056, -1.0126953125, 0.22900390625, -0.201171875, 0, 
383, 1009947095, 0.5509169101715088, 0.4490184485912323, -0.5511082410812378, 0.4372188150882721, 9.902045249938965, 0.19517982006072998, -0.13558261096477509, -0.7213481068611145, 0.16686391830444336, -0.46039023995399475, -1.013671875, 0.2294921875, -0.2041015625, 0, 
384, 1009955428, 0.5509275197982788, 0.44903644919395447, -0.5511284470558167, 0.43716153502464294, 9.908883094787598, 0.18901386857032776, -0.12358681857585907, -0.6339778900146484, -0.023027198389172554, -0.3544241487979889, -1.01318359375, 0.22900390625, -0.2001953125, 0, 
385, 1009963761, 0.5509358644485474, 0.44904857873916626, -0.5511528849601746, 0.4371076822280884, 9.908997535705566, 0.17142502963542938, -0.14449457824230194, -0.7175058722496033, -0.07202722877264023, -0.2763775885105133, -1.0166015625, 0.23095703125, -0.19970703125, 0, 
386, 1009972094, 0.5509582161903381, 0.4490435719490051, -0.5511740446090698, 0.4370580017566681, 9.907059669494629, 0.1534712314605713, -0.14985907077789307, -0.884779691696167, 0.24313029646873474, -0.18507565557956696, -1.01513671875, 0.23046875, -0.20068359375, 0, 
387, 1009980427, 0.5509898066520691, 0.449047327041626, -0.5511725544929504, 0.43701615929603577, 9.937559127807617, 0.14398673176765442, -0.17614591121673584, -0.6777526140213013, 0.4267459511756897, -0.4230959117412567, -1.015625, 0.228515625, -0.2021484375, 0, 
388, 1009988760, 0.551018238067627, 0.44905000925064087, -0.5511603355407715, 0.436992883682251, 9.953653335571289, 0.1262548267841339, -0.18358486890792847, -0.5591843128204346, 0.6586316227912903, -0.2854706048965454, -1.017578125, 0.2314453125, -0.19921875, 0, 
389, 1009997093, 0.5510464906692505, 0.4490464925765991, -0.5511524677276611, 0.43697088956832886, 9.967016220092773, 0.14159096777439117, -0.17203320562839508, -0.5224279165267944, 0.6151130199432373, -0.23549726605415344, -1.0166015625, 0.23046875, -0.20361328125, 0, 
390, 1010005426, 0.5510708093643188, 0.44904154539108276, -0.5511561036109924, 0.43694040179252625, 9.946342468261719, 0.13847903907299042, -0.1496446281671524, -0.5590690970420837, 0.5101074576377869, -0.16279126703739166, -1.01416015625, 0.23291015625, -0.201171875, 0, 
391, 1010013759, 0.5510908961296082, 0.44903215765953064, -0.5511667728424072, 0.4369112253189087, 9.905171394348145, 0.17779821157455444, -0.13323600590229034, -0.6829907298088074, 0.4037059247493744, -0.08226010948419571, -1.01708984375, 0.23046875, -0.20556640625, 0, 
392, 1010022092, 0.5511066913604736, 0.4490310847759247, -0.5511870980262756, 0.4368669390678406, 9.889906883239746, 0.16354259848594666, -0.17352797091007233, -0.6793407201766968, 0.2098189890384674, -0.14113441109657288, -1.0166015625, 0.2333984375, -0.20556640625, 0, 
393, 1010030425, 0.5511214733123779, 0.44902563095092773, -0.5511953830718994, 0.4368434250354767, 9.85525894165039, 0.17907142639160156, -0.17321324348449707, -0.5628471970558167, 0.39447200298309326, -0.05291900783777237, -1.01806640625, 0.23046875, -0.20166015625, 0, 
394, 1010038758, 0.5511359572410583, 0.44902876019477844, -0.5511959791183472, 0.4368213713169098, 9.87564468383789, 0.1639428436756134, -0.1493941992521286, -0.5103380084037781, 0.4583538770675659, -0.11541774868965149, -1.0185546875, 0.2314453125, -0.201171875, 0, 
395, 1010047091, 0.5511296391487122, 0.4490412473678589, -0.5512092709541321, 0.4367995858192444, 9.883126258850098, 0.17400005459785461, -0.12932340800762177, -0.3139280676841736, 0.09755181521177292, -0.017033465206623077, -1.015625, 0.232421875, -0.19921875, 0, 
396, 1010055424, 0.5511271953582764, 0.44904932379722595, -0.5512285232543945, 0.43677031993865967, 9.903833389282227, 0.16308481991291046, -0.12534642219543457, -0.47114822268486023, 0.11586598306894302, 0.005494253244251013, -1.0185546875, 0.22900390625, -0.2001953125, 0, 
397, 1010063757, 0.5511335134506226, 0.44905292987823486, -0.5512377023696899, 0.43674707412719727, 9.919261932373047, 0.15507398545742035, -0.11941680312156677, -0.4452778398990631, 0.2702685594558716, -0.0626780316233635, -1.01171875, 0.2294921875, -0.20263671875, 0, 
398, 1010072090, 0.5511342287063599, 0.4490676522254944, -0.5512479543685913, 0.4367179274559021, 9.945941925048828, 0.17307734489440918, -0.1667327731847763, -0.3902328610420227, 0.16919481754302979, -0.11710827797651291, -1.01611328125, 0.22998046875, -0.20361328125, 0, 
399, 1010080423, 0.5511324405670166, 0.4490776062011719, -0.5512475371360779, 0.4367104768753052, 9.928117752075195, 0.168399378657341, -0.16975842416286469, -0.16966868937015533, 0.33929896354675293, -0.0008708839304745197, -1.0126953125, 0.23046875, -0.20361328125, 0, 
400, 1010088756, 0.5511285066604614, 0.4490974247455597, -0.5512434244155884, 0.4367002248764038, 9.896772384643555, 0.1710314005613327, -0.14801371097564697, -0.12105286866426468, 0.33010348677635193, -0.07256512343883514, -1.01513671875, 0.23046875, -0.20263671875, 0, 
401, 1010097089, 0.5511329174041748, 0.44911861419677734, -0.5512361526489258, 0.4366821348667145, 9.89249038696289, 0.15002398192882538, -0.18990105390548706, -0.16144651174545288, 0.30666646361351013, -0.24743349850177765, -1.015625, 0.2294921875, -0.2021484375, 0, 
402, 1010105422, 0.5511355996131897, 0.4491354823112488, -0.5512335300445557, 0.43666476011276245, 9.881030082702637, 0.14415839314460754, -0.1732633113861084, -0.18583126366138458, 0.3409126102924347, -0.13465401530265808, -1.0126953125, 0.22900390625, -0.203125, 0, 
403, 1010113755, 0.5511424541473389, 0.44914793968200684, -0.5512185096740723, 0.4366621971130371, 9.917988777160645, 0.13253502547740936, -0.1577988713979721, -0.07839236408472061, 0.5314697027206421, -0.12657272815704346, -1.01611328125, 0.22998046875, -0.20263671875, 0, 
404, 1010122088, 0.5511462688446045, 0.44915542006492615, -0.5512098670005798, 0.4366605281829834, 9.906980514526367, 0.13973793387413025, -0.15964430570602417, -0.08812577277421951, 0.5506035685539246, 0.008222169242799282, -1.017578125, 0.2333984375, -0.19970703125, 0, 
405, 1010130421, 0.551146388053894, 0.44916632771492004, -0.55120450258255, 0.43665578961372375, 9.933911323547363, 0.15116818249225616, -0.15445849299430847, -0.12534326314926147, 0.40263012051582336, -0.02821408025920391, -1.01318359375, 0.2294921875, -0.20068359375, 0, 
406, 1010138754, 0.5511451363563538, 0.4491880238056183, -0.5511888861656189, 0.4366549551486969, 9.936528205871582, 0.14527422189712524, -0.15513798594474792, -0.010681135579943657, 0.48358389735221863, -0.10384010523557663, -1.01220703125, 0.23193359375, -0.20068359375, 0, 
407, 1010147087, 0.551140546798706, 0.4492058753967285, -0.5511799454689026, 0.4366535246372223, 9.94491958618164, 0.18105991184711456, -0.15056733787059784, 0.004111084621399641, 0.3729304075241089, -0.051407765597105026, -1.015625, 0.23046875, -0.203125, 0, 
408, 1010155420, 0.5511277318000793, 0.4492160677909851, -0.5511801838874817, 0.436659038066864, 9.923641204833984, 0.19691777229309082, -0.11411647498607635, 0.001805803389288485, 0.3835347294807434, 0.19921469688415527, -1.0166015625, 0.23193359375, -0.20068359375, 0, 
409, 1010163753, 0.5511138439178467, 0.4492267966270447, -0.5511853694915771, 0.436659038066864, 9.925692558288574, 0.21087296307086945, -0.13644763827323914, -0.0661359578371048, 0.24724143743515015, 0.1575915813446045, -1.013671875, 0.23046875, -0.20263671875, 0, 
410, 1010172086, 0.5511016249656677, 0.44922202825546265, -0.5512005090713501, 0.4366600513458252, 9.944461822509766, 0.20363429188728333, -0.11226387321949005, -0.23703411221504211, 0.33732664585113525, 0.3634019196033478, -1.01220703125, 0.22607421875, -0.20166015625, 0, 
411, 1010180419, 0.5510995984077454, 0.4492037296295166, -0.5512071847915649, 0.4366728365421295, 9.930785179138184, 0.1900438815355301, -0.16083167493343353, -0.29077279567718506, 0.632658839225769, 0.44470152258872986, -1.01513671875, 0.22900390625, -0.2041015625, 0, 
412, 1010188752, 0.5511231422424316, 0.4491727352142334, -0.5511908531188965, 0.43669578433036804, 9.91185188293457, 0.17760509252548218, -0.148879274725914, -0.3096761107444763, 1.087721347808838, 0.2901964783668518, -1.015625, 0.22998046875, -0.20458984375, 0, 
413, 1010197085, 0.5511355400085449, 0.4491405487060547, -0.5511971712112427, 0.43670517206192017, 9.871539115905762, 0.18309107422828674, -0.16263431310653687, -0.4903845489025116, 0.7524054050445557, 0.4029247760772705, -1.0146484375, 0.232421875, -0.20166015625, 0, 
414, 1010205418, 0.5511338710784912, 0.4491308629512787, -0.5512077212333679, 0.436704158782959, 9.887939453125, 0.17751926183700562, -0.1785707175731659, -0.422122597694397, 0.46844592690467834, 0.29711228609085083, -1.01611328125, 0.23046875, -0.20166015625, 0, 
415, 1010213751, 0.551136314868927, 0.4491105079650879, -0.55122971534729, 0.43669426441192627, 9.895307540893555, 0.16523782908916473, -0.19195368885993958, -0.578548789024353, 0.37049710750579834, 0.32364869117736816, -1.0166015625, 0.23046875, -0.2021484375, 0, 
416, 1010222084, 0.5511537790298462, 0.44909149408340454, -0.5512325763702393, 0.4366881847381592, 9.907288551330566, 0.16387878358364105, -0.1571837216615677, -0.5331090688705444, 0.6947733163833618, 0.16735060513019562, -1.01611328125, 0.22998046875, -0.19970703125, 0, 
417, 1010230417, 0.5511776208877563, 0.4490726590156555, -0.5512271523475647, 0.4366842806339264, 9.915084838867188, 0.16456545889377594, -0.17101731896400452, -0.4882841408252716, 0.7678762674331665, 0.05805465951561928, -1.01318359375, 0.23193359375, -0.2021484375, 0, 
418, 1010238750, 0.5511804223060608, 0.4490756392478943, -0.5512372851371765, 0.43666496872901917, 9.910513877868652, 0.16512294113636017, -0.14515267312526703, -0.47199350595474243, 0.3161436915397644, 0.03407973796129227, -1.0166015625, 0.23095703125, -0.2041015625, 0, 
419, 1010247083, 0.5511708855628967, 0.44908440113067627, -0.5512620806694031, 0.43663662672042847, 9.924018859863281, 0.15789894759655, -0.17329898476600647, -0.44071856141090393, -0.032197095453739166, 0.0518047958612442, -1.015625, 0.228515625, -0.203125, 0, 
420, 1010255416, 0.5511523485183716, 0.4491090476512909, -0.5512970685958862, 0.43659070134162903, 9.89144515991211, 0.16821341216564178, -0.1671762466430664, -0.50298672914505, -0.3282720148563385, -0.05161268636584282, -1.01318359375, 0.2294921875, -0.20068359375, 0, 
421, 1010263749, 0.5511213541030884, 0.44913429021835327, -0.5513379573822021, 0.4365522265434265, 9.903075218200684, 0.16922195255756378, -0.17186850309371948, -0.35562798380851746, -0.4766552746295929, 0.0776495561003685, -1.01513671875, 0.22705078125, -0.19921875, 0, 
422, 1010272082, 0.5510923266410828, 0.4491627514362335, -0.551369845867157, 0.43651899695396423, 9.905614852905273, 0.16746951639652252, -0.15956562757492065, -0.23653465509414673, -0.3293094038963318, 0.059015195816755295, -1.01318359375, 0.2294921875, -0.20068359375, 0, 
423, 1010280415, 0.5510714054107666, 0.44918185472488403, -0.5513866543769836, 0.43650463223457336, 9.914820671081543, 0.1729557365179062, -0.13272100687026978, -0.1368952840566635, -0.03203060105443001, 0.0977439284324646, -1.017578125, 0.23291015625, -0.20361328125, 0, 
424, 1010288748, 0.5510579347610474, 0.4491969645023346, -0.5513864755630493, 0.4365062117576599, 9.883647918701172, 0.1530708372592926, -0.14671196043491364, -0.004251962993294001, 0.32751643657684326, 0.13387280702590942, -1.01513671875, 0.2333984375, -0.19873046875, 0, 
425, 1010297081, 0.5510600805282593, 0.44919466972351074, -0.5513706207275391, 0.43652594089508057, 9.887469291687012, 0.1763676404953003, -0.15046006441116333, 0.01207711175084114, 0.7285072803497314, 0.17920999228954315, -1.013671875, 0.23046875, -0.19775390625, 0, 
426, 1010305414, 0.5510730743408203, 0.4491911232471466, -0.5513567328453064, 0.43653079867362976, 9.914240837097168, 0.17364241182804108, -0.12787137925624847, -0.07872534543275833, 0.7664546370506287, 0.05250918120145798, -1.0185546875, 0.23095703125, -0.2001953125, 0, 
427, 1010313747, 0.551081657409668, 0.4491810202598572, -0.551345944404602, 0.43654394149780273, 9.911850929260254, 0.2014024257659912, -0.1059550866484642, -0.16788849234580994, 0.742992103099823, 0.18237334489822388, -1.0166015625, 0.22900390625, -0.19775390625, 0, 
428, 1010322080, 0.5510872602462769, 0.44918292760849, -0.5513460636138916, 0.4365348815917969, 9.918010711669922, 0.17906427383422852, -0.14505250751972198, -0.2642108201980591, 0.4859916567802429, 0.03828047588467598, -1.0166015625, 0.22998046875, -0.1982421875, 0, 
429, 1010330413, 0.5510731339454651, 0.44919392466545105, -0.5513623952865601, 0.4365207850933075, 9.899713516235352, 0.16166140139102936, -0.1509750634431839, -0.2362913340330124, 0.07216811180114746, 0.11906778067350388, -1.01708984375, 0.23193359375, -0.20458984375, 0, 
430, 1010338746, 0.5510467886924744, 0.44922226667404175, -0.5513899326324463, 0.43648993968963623, 9.89968490600586, 0.1622479408979416, -0.17297004163265228, -0.22973403334617615, -0.26100900769233704, 0.03364429250359535, -1.01611328125, 0.23095703125, -0.20068359375, 0, 
431, 1010347079, 0.5510156154632568, 0.4492526054382324, -0.5514169335365295, 0.43646395206451416, 9.892367362976074, 0.18254055082798004, -0.14064635336399078, -0.13701054453849792, -0.3256337642669678, 0.04947389289736748, -1.01806640625, 0.23046875, -0.20166015625, 0, 
432, 1010355412, 0.5509820580482483, 0.4492921829223633, -0.5514451861381531, 0.4364299476146698, 9.925178527832031, 0.15373583137989044, -0.16412201523780823, -0.09954971820116043, -0.4082012474536896, -0.027394423261284828, -1.015625, 0.23046875, -0.201171875, 0, 
433, 1010363745, 0.5509493350982666, 0.44933217763900757, -0.5514616966247559, 0.43640899658203125, 9.918889045715332, 0.1356821358203888, -0.15106087923049927, 0.04497859254479408, -0.2867513597011566, -0.041033998131752014, -1.01708984375, 0.23046875, -0.2001953125, 0, 
434, 1010372078, 0.5508999228477478, 0.4493909180164337, -0.5514772534370422, 0.43639126420021057, 9.929283142089844, 0.12076859921216965, -0.14199107885360718, 0.28425395488739014, -0.44471433758735657, -0.030737081542611122, -1.01806640625, 0.2314453125, -0.20263671875, 0, 
435, 1010380411, 0.5508571863174438, 0.4494335651397705, -0.5514912009239197, 0.4363836646080017, 9.889778137207031, 0.12910166382789612, -0.14880059659481049, 0.24401403963565826, -0.27568599581718445, 0.08443732559680939, -1.017578125, 0.2275390625, -0.20263671875, 0, 
436, 1010388744, 0.5508116483688354, 0.44948235154151917, -0.5515017509460449, 0.43637779355049133, 9.884385108947754, 0.1137092337012291, -0.1444089114665985, 0.349416583776474, -0.24743349850177765, 0.07887903600931168, -1.01806640625, 0.2333984375, -0.20166015625, 0, 
437, 1010397077, 0.5507713556289673, 0.4495334327220917, -0.5514993667602539, 0.43637919425964355, 9.856109619140625, 0.1459825485944748, -0.1322632133960724, 0.459276020526886, -0.1293518841266632, -0.0269974023103714, -1.0185546875, 0.22802734375, -0.20166015625, 0, 
438, 1010405410, 0.550719678401947, 0.44958725571632385, -0.5515062808990479, 0.436379998922348, 9.869357109069824, 0.14794224500656128, -0.14074648916721344, 0.510735034942627, -0.25411882996559143, 0.10613257437944412, -1.017578125, 0.22900390625, -0.2001953125, 0, 
439, 1010413743, 0.5506707429885864, 0.449640691280365, -0.5514996647834778, 0.4363948702812195, 9.899834632873535, 0.17382124066352844, -0.1316695362329483, 0.6578632593154907, -0.09169896692037582, 0.08200398087501526, -1.01708984375, 0.228515625, -0.20068359375, 0, 
440, 1010422076, 0.5506230592727661, 0.44969451427459717, -0.5514965653419495, 0.43640363216400146, 9.9253568649292, 0.19894202053546906, -0.17651070654392242, 0.6345542669296265, -0.09871724992990494, 0.07992921024560928, -1.01611328125, 0.2294921875, -0.2021484375, 0, 
441, 1010430409, 0.5505791902542114, 0.4497310221195221, -0.5514870285987854, 0.43643322587013245, 9.943617820739746, 0.19370613992214203, -0.18142470717430115, 0.6275103092193604, 0.16038352251052856, 0.27423879504203796, -1.01904296875, 0.23095703125, -0.1982421875, 0, 
442, 1010438742, 0.5505360960960388, 0.44977855682373047, -0.5514743328094482, 0.436454713344574, 9.94202995300293, 0.1782987266778946, -0.16988028585910797, 0.6216446757316589, 0.12498467415571213, 0.13738195598125458, -1.01708984375, 0.22802734375, -0.20263671875, 0, 
