PacketCounter,SampleTimeFine,Quat_W,Quat_X,Quat_Y,Quat_Z,Acc_X,Acc_Y,Acc_Z,Gyr_X,Gyr_Y,Gyr_Z,Mag_X,Mag_Y,Mag_Z,Status,
0, 1039412583, -0.24460433423519135, -0.6306485533714294, 0.3846791982650757, -0.6280832886695862, 0, 0, 0, 0, 0, 0, -1.0625, -0.12646484375, -0.076171875, 0, 
1, 1039420916, -0.24467623233795166, -0.630639374256134, 0.38463953137397766, -0.628088653087616, 9.576641082763672, -1.704851508140564, -0.8180849552154541, 0.5375659465789795, -0.21742643415927887, -1.1057792901992798, -1.061767578125, -0.1279296875, -0.07666015625, 0, 
2, 1039429249, -0.24466753005981445, -0.6307132840156555, 0.3845553994178772, -0.6280692219734192, 9.650016784667969, -1.7199766635894775, -0.82071852684021, 1.7692135572433472, -1.4166722297668457, -1.3297885656356812, -1.060791015625, -0.12841796875, -0.07568359375, 0, 
3, 1039437582, -0.24464848637580872, -0.6308210492134094, 0.38444647192955017, -0.6280351877212524, 9.743342399597168, -1.6604331731796265, -0.8375216722488403, 2.1085000038146973, -1.816638469696045, -1.6715593338012695, -1.060791015625, -0.1298828125, -0.07763671875, 0, 
4, 1039445915, -0.2446405440568924, -0.6309224963188171, 0.3843154013156891, -0.6280166506767273, 9.734217643737793, -1.6386048793792725, -0.9413922429084778, 2.266411781311035, -1.4841657876968384, -1.8849772214889526, -1.059326171875, -0.12841796875, -0.075927734375, 0, 
5, 1039454248, -0.24467352032661438, -0.6310088038444519, 0.38417327404022217, -0.6280040740966797, 9.72593879699707, -1.6201707124710083, -1.0538653135299683, 1.984168291091919, -1.0594303607940674, -2.2233924865722656, -1.06103515625, -0.130615234375, -0.07421875, 0, 
6, 1039462581, -0.24471883475780487, -0.6310855746269226, 0.3840070366859436, -0.6280110478401184, 9.682819366455078, -1.6734755039215088, -1.0600719451904297, 2.158729314804077, -0.6503710746765137, -2.4349660873413086, -1.0615234375, -0.1298828125, -0.0751953125, 0, 
7, 1039470914, -0.2447493076324463, -0.6311896443367004, 0.38379499316215515, -0.6280239224433899, 9.64676284790039, -1.714715838432312, -1.0469846725463867, 2.806717872619629, -0.7688624262809753, -2.8159265518188477, -1.06298828125, -0.130615234375, -0.08056640625, 0, 
8, 1039479247, -0.2447337508201599, -0.6313339471817017, 0.3835603892803192, -0.628028154373169, 9.621954917907715, -1.714544415473938, -0.9919633269309998, 3.490285634994507, -1.3482054471969604, -2.8688714504241943, -1.0625, -0.130126953125, -0.073974609375, 0, 
9, 1039487580, -0.24468834698200226, -0.631498396396637, 0.38333386182785034, -0.6280190348625183, 9.618376731872559, -1.7430342435836792, -0.9612688422203064, 3.677217960357666, -1.8314945697784424, -2.679863691329956, -1.06201171875, -0.131591796875, -0.074951171875, 0, 
10, 1039495913, -0.24463331699371338, -0.6316590309143066, 0.38313502073287964, -0.6280003190040588, 9.652503967285156, -1.7524991035461426, -0.8993605375289917, 3.4593050479888916, -2.0175693035125732, -2.378448486328125, -1.062255859375, -0.130126953125, -0.072265625, 0, 
11, 1039504246, -0.24461649358272552, -0.6317558884620667, 0.3829880952835083, -0.627998948097229, 9.666090965270996, -1.7418030500411987, -0.9679781794548035, 2.553175449371338, -1.2977579832077026, -1.8524597883224487, -1.06298828125, -0.13037109375, -0.074462890625, 0, 
12, 1039512579, -0.24462707340717316, -0.6318386197090149, 0.38287603855133057, -0.6279799938201904, 9.646742820739746, -1.736344337463379, -0.9815644025802612, 1.8746931552886963, -1.2940056324005127, -1.7834936380386353, -1.060791015625, -0.13232421875, -0.0712890625, 0, 
13, 1039520912, -0.2446344792842865, -0.6319280862808228, 0.38278406858444214, -0.6279430985450745, 9.6555814743042, -1.7025424242019653, -1.0421881675720215, 1.655845046043396, -1.5999675989151, -1.6642849445343018, -1.059326171875, -0.134765625, -0.0712890625, 0, 
14, 1039529245, -0.24463391304016113, -0.6320351958274841, 0.38270267844200134, -0.6278851628303528, 9.662884712219238, -1.711240291595459, -0.9879733324050903, 1.584407091140747, -2.003032922744751, -1.6788337230682373, -1.06201171875, -0.134033203125, -0.073486328125, 0, 
15, 1039537578, -0.244617760181427, -0.6321371793746948, 0.3826259970664978, -0.6278353333473206, 9.690765380859375, -1.72861647605896, -1.0093929767608643, 1.7034363746643066, -1.9951953887939453, -1.4393151998519897, -1.063232421875, -0.1328125, -0.076171875, 0, 
16, 1039545911, -0.2445576786994934, -0.6322417855262756, 0.3825368285179138, -0.6278077960014343, 9.662467002868652, -1.7409169673919678, -0.9752247929573059, 2.3206753730773926, -2.004685401916504, -1.1183816194534302, -1.0615234375, -0.134033203125, -0.074462890625, 0, 
17, 1039554244, -0.24444471299648285, -0.6323509812355042, 0.3824412524700165, -0.6278002262115479, 9.650215148925781, -1.787454605102539, -0.9531508684158325, 2.9562411308288574, -2.1352922916412354, -0.6618589758872986, -1.061279296875, -0.134521484375, -0.072509765625, 0, 
18, 1039562577, -0.24430665373802185, -0.6324900984764099, 0.3823843002319336, -0.6277486085891724, 9.63180923461914, -1.8478846549987793, -0.9375861883163452, 2.709179162979126, -3.0307528972625732, -0.4277064800262451, -1.06494140625, -0.134765625, -0.07080078125, 0, 
19, 1039570910, -0.24416474997997284, -0.6326106786727905, 0.38237500190734863, -0.6276878714561462, 9.709000587463379, -1.8453885316848755, -0.9971235394477844, 2.2215735912323, -3.1379871368408203, 0.0975390076637268, -1.05859375, -0.13427734375, -0.06982421875, 0, 
20, 1039579243, -0.24398158490657806, -0.6327130794525146, 0.38237157464027405, -0.6276580691337585, 9.74807071685791, -1.8093303442001343, -1.0379637479782104, 2.630619764328003, -2.940385580062866, 0.6937230229377747, -1.05908203125, -0.130615234375, -0.07373046875, 0, 
21, 1039587576, -0.2437157928943634, -0.6327990889549255, 0.38231030106544495, -0.6277117729187012, 9.70321273803711, -1.8151040077209473, -1.0983853340148926, 4.233713150024414, -2.319650650024414, 1.2796745300292969, -1.05859375, -0.134521484375, -0.07275390625, 0, 
22, 1039595909, -0.2433091402053833, -0.6329103708267212, 0.3821999728679657, -0.6278244853019714, 9.625476837158203, -1.760134220123291, -1.2312328815460205, 6.277510166168213, -2.5953238010406494, 2.1241114139556885, -1.061767578125, -0.134033203125, -0.072998046875, 0, 
23, 1039604242, -0.24268677830696106, -0.6332050561904907, 0.38203784823417664, -0.6278668642044067, 9.642322540283203, -1.7453510761260986, -1.0685598850250244, 8.845301628112793, -5.755058765411377, 2.3454575538635254, -1.06201171875, -0.13525390625, -0.071044921875, 0, 
24, 1039612575, -0.24197964370250702, -0.63353031873703, 0.3819142282009125, -0.627886950969696, 9.849579811096191, -1.737593650817871, -0.7192999720573425, 9.237045288085938, -6.781676769256592, 3.1697747707366943, -1.060302734375, -0.132080078125, -0.07177734375, 0, 
25, 1039620908, -0.2414063960313797, -0.6337224841117859, 0.38193759322166443, -0.6278994679450989, 9.810884475708008, -1.759758472442627, -0.6156020164489746, 6.317944049835205, -5.4886698722839355, 3.9747023582458496, -1.058837890625, -0.1328125, -0.0703125, 0, 
26, 1039629241, -0.24091999232769012, -0.6338452696800232, 0.38204947113990784, -0.6278943419456482, 9.73460578918457, -1.8001925945281982, -0.6620977520942688, 4.474154949188232, -4.878692626953125, 4.294623851776123, -1.06201171875, -0.129150390625, -0.07080078125, 0, 
27, 1039637574, -0.24040381610393524, -0.6339272856712341, 0.3821312189102173, -0.627959668636322, 9.66061782836914, -1.8733901977539062, -0.6866887807846069, 5.232694625854492, -3.972486734390259, 4.746151924133301, -1.06005859375, -0.13427734375, -0.0703125, 0, 
28, 1039645907, -0.23979122936725616, -0.6340106129646301, 0.3821690082550049, -0.6280868053436279, 9.483220100402832, -2.0353431701660156, -0.7857362031936646, 6.778360366821289, -3.801025152206421, 5.382691383361816, -1.060791015625, -0.130615234375, -0.06689453125, 0, 
29, 1039654240, -0.23925340175628662, -0.6339614391326904, 0.38226157426834106, -0.6282848715782166, 9.40454387664795, -2.2402727603912354, -0.7735432982444763, 5.5889105796813965, -1.8344917297363281, 6.152578353881836, -1.062744140625, -0.12841796875, -0.06884765625, 0, 
30, 1039662573, -0.2387135773897171, -0.6338802576065063, 0.38248682022094727, -0.628434956073761, 9.347054481506348, -2.269176483154297, -0.6697382926940918, 4.103567123413086, -2.4156274795532227, 7.329936504364014, -1.06298828125, -0.129150390625, -0.064453125, 0, 
31, 1039670906, -0.23811206221580505, -0.6337550282478333, 0.3827754259109497, -0.6286138296127319, 9.469188690185547, -2.3535196781158447, -0.7295343279838562, 4.098790168762207, -2.322660446166992, 8.746851921081543, -1.064453125, -0.127197265625, -0.0703125, 0, 
32, 1039679239, -0.23762713372707367, -0.6335082650184631, 0.38320475816726685, -0.6287845969200134, 9.575295448303223, -2.3974382877349854, -0.7917864322662354, 1.426520824432373, -1.1854523420333862, 9.57251262664795, -1.063232421875, -0.12646484375, -0.068115234375, 0, 
33, 1039687572, -0.23721931874752045, -0.6332311034202576, 0.3837922215461731, -0.6288594603538513, 9.518930435180664, -2.408843517303467, -0.8988834619522095, -1.2186743021011353, -1.8738096952438354, 10.133056640625, -1.061767578125, -0.122802734375, -0.07177734375, 0, 
34, 1039695905, -0.23670139908790588, -0.6330291032791138, 0.3843843340873718, -0.6288962364196777, 9.428276062011719, -2.442281723022461, -0.9169411063194275, -0.2532735764980316, -3.444756269454956, 10.602693557739258, -1.058837890625, -0.1220703125, -0.067138671875, 0, 
35, 1039704238, -0.23599576950073242, -0.6329164505004883, 0.3849543035030365, -0.6289262175559998, 9.385265350341797, -2.4372215270996094, -0.8754681944847107, 1.8216972351074219, -5.2049665451049805, 11.537714958190918, -1.06005859375, -0.12158203125, -0.065673828125, 0, 
36, 1039712571, -0.23524411022663116, -0.632770836353302, 0.3855782151222229, -0.6289721727371216, 9.317265510559082, -2.4896483421325684, -1.076560139656067, 1.737503170967102, -5.191954135894775, 12.630725860595703, -1.0625, -0.11572265625, -0.0654296875, 0, 
37, 1039720904, -0.23459352552890778, -0.6324990391731262, 0.3863237202167511, -0.6290310025215149, 9.258856773376465, -2.5726864337921143, -1.1044459342956543, -0.5351071357727051, -3.856096029281616, 13.521566390991211, -1.06005859375, -0.11767578125, -0.06591796875, 0, 
38, 1039729237, -0.2339956909418106, -0.6321777105331421, 0.3871902823448181, -0.6290440559387207, 9.049253463745117, -2.5894174575805664, -0.9461051821708679, -2.442932605743408, -3.9247164726257324, 14.238789558410645, -1.06201171875, -0.114013671875, -0.06640625, 0, 
39, 1039737570, -0.23319490253925323, -0.6320056915283203, 0.38815322518348694, -0.62892085313797, 8.99736499786377, -2.6196718215942383, -0.6881023049354553, -1.7578283548355103, -7.800303936004639, 15.5897855758667, -1.0625, -0.111083984375, -0.06689453125, 0, 
40, 1039745903, -0.2321978509426117, -0.6318557858467102, 0.38919973373413086, -0.6287936568260193, 9.162543296813965, -2.6249887943267822, -0.7673828601837158, -0.7237945199012756, -9.333664894104004, 17.892038345336914, -1.06201171875, -0.10791015625, -0.0615234375, 0, 
41, 1039754236, -0.23106777667999268, -0.631634533405304, 0.3902822434902191, -0.6287611722946167, 9.058296203613281, -2.717991352081299, -0.8052541613578796, 0.39351165294647217, -8.729373931884766, 20.0235538482666, -1.06103515625, -0.10888671875, -0.0615234375, 0, 
42, 1039762569, -0.22979825735092163, -0.6315192580223083, 0.3914465010166168, -0.6286184787750244, 8.962855339050293, -2.8783466815948486, -1.105299472808838, 0.6488601565361023, -11.602012634277344, 21.035240173339844, -1.06298828125, -0.103759765625, -0.061279296875, 0, 
43, 1039770902, -0.2282683551311493, -0.6316035985946655, 0.39256107807159424, -0.6283959150314331, 8.981581687927246, -2.9506728649139404, -1.5119293928146362, 3.5391974449157715, -15.277043342590332, 21.508949279785156, -1.06396484375, -0.099609375, -0.058837890625, 0, 
44, 1039779235, -0.22643043100833893, -0.6318382024765015, 0.3934800326824188, -0.6282503604888916, 8.886859893798828, -2.960381269454956, -1.4959769248962402, 8.793999671936035, -16.943622589111328, 21.921972274780273, -1.064453125, -0.09716796875, -0.05712890625, 0, 
45, 1039787568, -0.2241409569978714, -0.6323275566101074, 0.39412954449653625, -0.6281718611717224, 8.810371398925781, -2.880035161972046, -1.4185748100280762, 16.1951904296875, -20.174713134765625, 22.28833770751953, -1.061767578125, -0.09423828125, -0.0556640625, 0, 
46, 1039795901, -0.2213863730430603, -0.633028507232666, 0.39455899596214294, -0.6281730532646179, 9.132624626159668, -2.7914912700653076, -1.4091888666152954, 23.230823516845703, -23.14508056640625, 23.513427734375, -1.06298828125, -0.09033203125, -0.0546875, 0, 
47, 1039804234, -0.21826086938381195, -0.6339220404624939, 0.3947735130786896, -0.6282308101654053, 9.403183937072754, -2.5883255004882812, -1.5221145153045654, 29.198068618774414, -25.678136825561523, 23.944578170776367, -1.064697265625, -0.0859375, -0.051513671875, 0, 
48, 1039812567, -0.21489891409873962, -0.6349934339523315, 0.3946835994720459, -0.6283643245697021, 9.351917266845703, -2.3885347843170166, -1.2561489343643188, 34.846229553222656, -26.920822143554688, 22.62716293334961, -1.0634765625, -0.0810546875, -0.045654296875, 0, 
49, 1039820900, -0.21123431622982025, -0.6364268660545349, 0.39417368173599243, -0.6284767985343933, 9.289844512939453, -2.3933026790618896, -0.8888578414916992, 42.064414978027344, -30.634836196899414, 19.511375427246094, -1.065673828125, -0.078125, -0.043701171875, 0, 
50, 1039829233, -0.20733045041561127, -0.6381449699401855, 0.3932590186595917, -0.6286075711250305, 9.569928169250488, -2.3835103511810303, -0.5331653356552124, 48.59186553955078, -33.053768157958984, 16.58318519592285, -1.063232421875, -0.08154296875, -0.03857421875, 0, 
51, 1039837566, -0.20356565713882446, -0.639787495136261, 0.3921521008014679, -0.6288600564002991, 9.727654457092285, -2.206521511077881, -0.22634388506412506, 49.4652214050293, -30.037006378173828, 14.412418365478516, -1.064208984375, -0.07568359375, -0.032958984375, 0, 
52, 1039845899, -0.2000904530286789, -0.6413527727127075, 0.39105862379074097, -0.6290619373321533, 9.842120170593262, -1.9618326425552368, 0.059136196970939636, 46.32159423828125, -28.286298751831055, 12.337230682373047, -1.0625, -0.073486328125, -0.03076171875, 0, 
53, 1039854232, -0.19700966775417328, -0.6428089141845703, 0.3900737166404724, -0.6291596293449402, 9.941343307495117, -1.6474441289901733, 0.15686020255088806, 41.032474517822266, -26.44814682006836, 10.14932918548584, -1.06298828125, -0.071044921875, -0.02197265625, 0, 
54, 1039862565, -0.19442495703697205, -0.6440871953964233, 0.3892257511615753, -0.629181444644928, 9.970504760742188, -1.2819641828536987, 0.21425384283065796, 34.58458709716797, -23.280277252197266, 7.849738597869873, -1.06201171875, -0.0732421875, -0.02099609375, 0, 
55, 1039870898, -0.19233255088329315, -0.6451210379600525, 0.3885708451271057, -0.6291700005531311, 10.179876327514648, -0.926062285900116, 0.17434002459049225, 27.71077537536621, -19.35603141784668, 6.490538120269775, -1.066650390625, -0.070556640625, -0.016357421875, 0, 
56, 1039879231, -0.19064733386039734, -0.6459484696388245, 0.388096421957016, -0.629126787185669, 10.170135498046875, -0.6308899521827698, 0.02307581529021263, 21.833332061767578, -16.1416015625, 5.616565227508545, -1.066650390625, -0.068603515625, -0.015625, 0, 
57, 1039887564, -0.1894654780626297, -0.6465311050415039, 0.3878920078277588, -0.6290115118026733, 10.249528884887695, -0.4729171395301819, -0.02800517901778221, 13.985955238342285, -12.706792831420898, 4.756014823913574, -1.065673828125, -0.070556640625, -0.0146484375, 0, 
58, 1039895897, -0.1888016015291214, -0.6468924283981323, 0.38798725605010986, -0.6287808418273926, 10.435164451599121, -0.5553209185600281, -0.0467207133769989, 5.611067295074463, -9.812763214111328, 3.843301296234131, -1.067138671875, -0.068115234375, -0.01513671875, 0, 
59, 1039904230, -0.1884467601776123, -0.6471211314201355, 0.38823187351226807, -0.628500759601593, 10.448659896850586, -0.7195583581924438, -0.38819417357444763, 0.9482260942459106, -7.877683162689209, 3.0660622119903564, -1.065673828125, -0.06591796875, -0.010986328125, 0, 
60, 1039912563, -0.18836042284965515, -0.6472445130348206, 0.3885527551174164, -0.628201425075531, 10.298979759216309, -0.9654040336608887, -0.6665372252464294, -2.461233615875244, -5.868951320648193, 1.9496787786483765, -1.069091796875, -0.06884765625, -0.011474609375, 0, 
61, 1039920896, -0.18860051035881042, -0.6472595930099487, 0.38898560404777527, -0.627845823764801, 10.094284057617188, -1.3192731142044067, -0.8692988157272339, -6.930380821228027, -4.021960735321045, 0.5578781366348267, -1.06689453125, -0.064453125, -0.008544921875, 0, 
62, 1039929229, -0.18899382650852203, -0.647323727607727, 0.38952499628067017, -0.6273267269134521, 9.930465698242188, -1.6190006732940674, -1.0206636190414429, -9.947046279907227, -5.316734790802002, -0.5031533241271973, -1.0673828125, -0.066650390625, -0.0126953125, 0, 
63, 1039937562, -0.18932174146175385, -0.6475083827972412, 0.3900095820426941, -0.6267358660697937, 9.916967391967773, -1.809486746788025, -1.0721244812011719, -8.976483345031738, -7.246395587921143, -1.2502050399780273, -1.064208984375, -0.06787109375, -0.010986328125, 0, 
64, 1039945895, -0.18957702815532684, -0.647769033908844, 0.3904321789741516, -0.6261260509490967, 9.885150909423828, -1.8990509510040283, -1.099841833114624, -7.686422824859619, -8.254034042358398, -1.6426666975021362, -1.065185546875, -0.067626953125, -0.005126953125, 0, 
65, 1039954228, -0.18976718187332153, -0.6480687856674194, 0.3908069431781769, -0.6255242228507996, 9.761283874511719, -1.8591432571411133, -0.9296649694442749, -6.55853796005249, -8.791382789611816, -1.6833548545837402, -1.064453125, -0.066162109375, -0.00830078125, 0, 
66, 1039962561, -0.18999114632606506, -0.6483244895935059, 0.3911781907081604, -0.624958872795105, 9.501566886901855, -1.8059368133544922, -0.8009582161903381, -6.739196300506592, -7.850930213928223, -1.6859163045883179, -1.0634765625, -0.06640625, -0.00341796875, 0, 
67, 1039970894, -0.1903168261051178, -0.6485370993614197, 0.3916364908218384, -0.6243519186973572, 9.469086647033691, -1.7555947303771973, -0.7874082326889038, -8.741677284240723, -7.578970909118652, -1.6459709405899048, -1.062744140625, -0.06640625, -0.00390625, 0, 
68, 1039979227, -0.190698504447937, -0.6486522555351257, 0.3921406865119934, -0.6237990260124207, 9.565095901489258, -1.6450879573822021, -1.0116697549819946, -9.587306022644043, -6.030641555786133, -1.0658339262008667, -1.065185546875, -0.066162109375, -0.0048828125, 0, 
69, 1039987560, -0.19113001227378845, -0.6487014293670654, 0.39260798692703247, -0.6233220100402832, 9.530657768249512, -1.7102303504943848, -1.1725102663040161, -9.491944313049316, -4.475089073181152, -1.2476950883865356, -1.063232421875, -0.06494140625, -0.001220703125, 0, 
70, 1039995893, -0.19161830842494965, -0.6487746834754944, 0.3930565416812897, -0.6228131055831909, 9.34862995147705, -1.8214824199676514, -1.008779764175415, -9.93539047241211, -4.557809829711914, -2.135702133178711, -1.06494140625, -0.06689453125, -0.00439453125, 0, 
71, 1040004226, -0.19213517010211945, -0.6488612294197083, 0.3935263156890869, -0.6222666501998901, 9.420114517211914, -1.8806612491607666, -1.2530337572097778, -10.54807186126709, -4.962375164031982, -2.339707136154175, -1.06396484375, -0.0654296875, -0.00244140625, 0, 
72, 1040012559, -0.1927286833524704, -0.6489080786705017, 0.39402875304222107, -0.6217161417007446, 9.401132583618164, -1.956903100013733, -1.487619161605835, -11.629402160644531, -4.275169372558594, -2.521670341491699, -1.063720703125, -0.068115234375, -0.00146484375, 0, 
73, 1040020892, -0.19340083003044128, -0.6489741802215576, 0.39455804228782654, -0.621101975440979, 9.392043113708496, -2.056891679763794, -1.7118728160858154, -12.866686820983887, -4.711956977844238, -3.2029201984405518, -1.066162109375, -0.0673828125, -0.001708984375, 0, 
74, 1040029225, -0.19403986632823944, -0.6490578651428223, 0.3949747383594513, -0.620550274848938, 9.568706512451172, -2.0183324813842773, -1.8417984247207642, -11.212312698364258, -4.124392032623291, -3.878751039505005, -1.067626953125, -0.068115234375, -0.000732421875, 0, 
75, 1040037558, -0.19465424120426178, -0.6491578221321106, 0.39522501826286316, -0.620093584060669, 9.453184127807617, -1.9121038913726807, -1.7525495290756226, -9.021307945251465, -3.1643826961517334, -4.962297439575195, -1.064697265625, -0.068603515625, -0.00048828125, 0, 
76, 1040045891, -0.19523930549621582, -0.6492980718612671, 0.39533376693725586, -0.619693398475647, 9.28250789642334, -1.850401520729065, -1.5960757732391357, -7.128620624542236, -2.7273781299591064, -6.070906639099121, -1.06494140625, -0.067626953125, 0.001953125, 0, 
77, 1040054224, -0.1958480030298233, -0.6493906378746033, 0.39543217420578003, -0.6193416714668274, 9.404369354248047, -1.8625118732452393, -1.4414334297180176, -7.123908996582031, -1.7855684757232666, -5.944732189178467, -1.06591796875, -0.068359375, 0.001953125, 0, 
78, 1040062557, -0.19663399457931519, -0.6493067741394043, 0.39570772647857666, -0.6190044283866882, 9.661169052124023, -1.885265588760376, -1.5894451141357422, -10.604959487915039, 0.38829904794692993, -4.9047932624816895, -1.066650390625, -0.066650390625, -0.000732421875, 0, 
79, 1040070890, -0.19761157035827637, -0.6490662097930908, 0.3961760103702545, -0.6186455488204956, 9.682682991027832, -2.088449478149414, -1.916715383529663, -14.509340286254883, 1.9942092895507812, -3.9893410205841064, -1.0654296875, -0.069091796875, 0.001220703125, 0, 
80, 1040079223, -0.1986994445323944, -0.6487195491790771, 0.3967803120613098, -0.6182734370231628, 9.678244590759277, -2.412844181060791, -2.1601765155792236, -16.998798370361328, 3.064743757247925, -3.2028942108154297, -1.066650390625, -0.071044921875, -0.00048828125, 0, 
81, 1040087556, -0.19975952804088593, -0.6483302712440491, 0.3975362479686737, -0.6178544163703918, 9.617133140563965, -2.4833996295928955, -2.343424081802368, -18.425386428833008, 2.39101243019104, -1.4758027791976929, -1.06640625, -0.069091796875, 0.000244140625, 0, 
82, 1040095889, -0.2005479484796524, -0.6479596495628357, 0.3983401358127594, -0.6174699068069458, 9.573118209838867, -2.340898036956787, -2.6666388511657715, -16.15811538696289, 0.9766197204589844, 1.2194172143936157, -1.06396484375, -0.07275390625, -0.003662109375, 0, 
83, 1040104222, -0.20104429125785828, -0.6476216912269592, 0.3991298973560333, -0.617152988910675, 9.425922393798828, -2.1787545680999756, -2.7632153034210205, -12.984100341796875, -0.3114563226699829, 3.612785577774048, -1.06396484375, -0.068115234375, 0.0009765625, 0, 
84, 1040112555, -0.20140260457992554, -0.6473052501678467, 0.3999669849872589, -0.6168263554573059, 9.18541431427002, -2.1569430828094482, -2.854503870010376, -12.14222526550293, -1.418772578239441, 5.028600215911865, -1.063232421875, -0.068603515625, 0, 0, 
85, 1040120888, -0.20167236030101776, -0.6470504403114319, 0.4008916914463043, -0.6164048314094543, 9.153624534606934, -2.180868148803711, -2.811976194381714, -12.45095443725586, -3.5578689575195312, 5.990030765533447, -1.065673828125, -0.067626953125, -0.000732421875, 0, 
86, 1040129221, -0.2019193023443222, -0.6468194723129272, 0.4018288254737854, -0.6159559488296509, 9.224041938781738, -2.2406845092773438, -2.7196292877197266, -12.43425178527832, -4.121842861175537, 6.05493688583374, -1.065185546875, -0.06591796875, -0.0009765625, 0, 
87, 1040137554, -0.20225098729133606, -0.6465945243835449, 0.4027959406375885, -0.6154515743255615, 9.068873405456543, -2.4250824451446533, -2.335064649581909, -13.735956192016602, -4.315730094909668, 5.448456287384033, -1.066162109375, -0.06591796875, -0.0009765625, 0, 
88, 1040145887, -0.20254698395729065, -0.6464787721633911, 0.40381741523742676, -0.6148061156272888, 9.224485397338867, -2.645907163619995, -1.9375405311584473, -14.353551864624023, -6.807623863220215, 5.204979419708252, -1.065185546875, -0.06689453125, -0.00146484375, 0, 
89, 1040154220, -0.20269246399402618, -0.646390438079834, 0.4048639237880707, -0.6141625642776489, 9.416062355041504, -2.720513343811035, -2.1762382984161377, -13.141693115234375, -7.959625244140625, 6.582436561584473, -1.065673828125, -0.061767578125, 0.002685546875, 0, 
90, 1040162553, -0.2027949094772339, -0.646245002746582, 0.4059823155403137, -0.6135430335998535, 9.303885459899902, -2.704153299331665, -2.15451979637146, -13.388795852661133, -7.6724138259887695, 7.939838886260986, -1.0615234375, -0.05908203125, 0.006103515625, 0, 
91, 1040170886, -0.20279903709888458, -0.646192729473114, 0.40709641575813293, -0.6128582954406738, 9.09179973602295, -2.69309401512146, -1.690059781074524, -12.586133003234863, -9.599461555480957, 8.060237884521484, -1.062255859375, -0.059814453125, 0.004638671875, 0, 
92, 1040179219, -0.2025981843471527, -0.6462110280990601, 0.4082365036010742, -0.6121467351913452, 9.313929557800293, -2.4073445796966553, -1.31278395652771, -10.935564994812012, -11.628199577331543, 9.517779350280762, -1.061767578125, -0.0615234375, 0.005615234375, 0, 
93, 1040187552, -0.20240454375743866, -0.6461042165756226, 0.40950044989585876, -0.6114789843559265, 9.551429748535156, -2.0219967365264893, -1.205686092376709, -12.14770793914795, -10.51492691040039, 11.407443046569824, -1.063232421875, -0.0576171875, 0.0087890625, 0, 
94, 1040195885, -0.20251569151878357, -0.6457703709602356, 0.41097795963287354, -0.6108033061027527, 9.670635223388672, -1.6996917724609375, -1.1940373182296753, -17.32419204711914, -7.529358386993408, 11.97331428527832, -1.062744140625, -0.0537109375, 0.009033203125, 0, 
95, 1040204218, -0.2030303031206131, -0.6452092528343201, 0.4127141535282135, -0.6100541353225708, 9.785562515258789, -1.513122797012329, -1.155879020690918, -24.131248474121094, -4.742286205291748, 11.988160133361816, -1.062744140625, -0.0537109375, 0.009033203125, 0, 
96, 1040212551, -0.20359459519386292, -0.6445667743682861, 0.4144738018512726, -0.6093519330024719, 9.838622093200684, -1.3464009761810303, -1.6442415714263916, -24.72657585144043, -3.3976409435272217, 12.345429420471191, -1.064208984375, -0.05078125, 0.011474609375, 0, 
97, 1040220884, -0.2041146159172058, -0.6439559459686279, 0.41623926162719727, -0.6086199879646301, 10.06762409210205, -1.272202968597412, -1.5918577909469604, -24.46101951599121, -4.228195667266846, 12.535346031188965, -1.0654296875, -0.04931640625, 0.010498046875, 0, 
98, 1040229217, -0.20467671751976013, -0.6433294415473938, 0.41804641485214233, -0.6078547239303589, 10.213216781616211, -1.238020896911621, -1.6136342287063599, -25.420196533203125, -4.234189510345459, 12.517569541931152, -1.063720703125, -0.048828125, 0.01220703125, 0, 
99, 1040237550, -0.20532245934009552, -0.642630934715271, 0.4197586476802826, -0.607195258140564, 10.201305389404297, -1.3457294702529907, -1.6776808500289917, -24.963239669799805, -1.9812111854553223, 11.726601600646973, -1.06591796875, -0.040771484375, 0.010009765625, 0, 
100, 1040245883, -0.206313356757164, -0.641821026802063, 0.4214446246623993, -0.6065477728843689, 10.031455039978027, -1.3106213808059692, -1.8893426656723022, -28.03687286376953, 1.1519113779067993, 9.253776550292969, -1.063232421875, -0.04150390625, 0.011962890625, 0, 
101, 1040254216, -0.20762643218040466, -0.6410058736801147, 0.4230591654777527, -0.6058372259140015, 9.776965141296387, -1.372139573097229, -1.968381643295288, -30.66490364074707, 2.6761648654937744, 5.832276821136475, -1.06298828125, -0.037841796875, 0.0107421875, 0, 
102, 1040262549, -0.20913146436214447, -0.6402333974838257, 0.4244958460330963, -0.6051314473152161, 9.550920486450195, -1.812922716140747, -2.13232684135437, -30.726350784301758, 4.022271156311035, 2.3855199813842773, -1.065673828125, -0.04052734375, 0.012451171875, 0, 
103, 1040270882, -0.21079014241695404, -0.6394599676132202, 0.42571067810058594, -0.604519784450531, 9.353431701660156, -2.3476462364196777, -2.2038276195526123, -29.683923721313477, 6.359340190887451, -0.5215061902999878, -1.063232421875, -0.0400390625, 0.0078125, 0, 
104, 1040279215, -0.21231809258460999, -0.6388655304908752, 0.42685356736183167, -0.603807270526886, 9.3223237991333, -2.9380393028259277, -2.404977560043335, -28.008132934570312, 3.460780143737793, -1.454633355140686, -1.0673828125, -0.041748046875, 0.00927734375, 0, 
105, 1040287548, -0.21388252079486847, -0.6383436918258667, 0.4278266429901123, -0.6031180024147034, 8.764385223388672, -3.3648574352264404, -2.7665770053863525, -26.572540283203125, 3.7401156425476074, -3.5593175888061523, -1.064453125, -0.039794921875, 0.009521484375, 0, 
106, 1040295881, -0.21500422060489655, -0.6381953358650208, 0.42849263548851013, -0.6024029850959778, 8.665581703186035, -3.493823766708374, -3.0782549381256104, -19.190818786621094, -1.2521650791168213, -4.904422760009766, -1.064697265625, -0.04052734375, 0.008056640625, 0, 
107, 1040304214, -0.2157074362039566, -0.6381920576095581, 0.4287464916706085, -0.6019741892814636, 8.600225448608398, -3.7010867595672607, -3.1931540966033936, -9.985530853271484, -1.218289852142334, -5.018341064453125, -1.066162109375, -0.040771484375, 0.010498046875, 0, 
108, 1040312547, -0.21573305130004883, -0.6385661363601685, 0.428570032119751, -0.6016939878463745, 8.712505340576172, -3.801372528076172, -2.9845571517944336, 1.514557123184204, -5.727113246917725, -5.016395568847656, -1.06396484375, -0.039794921875, 0.009765625, 0, 
109, 1040320880, -0.2153736799955368, -0.6390997767448425, 0.4281727969646454, -0.6015387773513794, 9.2263822555542, -3.5746161937713623, -2.4635791778564453, 7.938172340393066, -7.584632396697998, -4.300400257110596, -1.065185546875, -0.04248046875, 0.011962890625, 0, 
110, 1040329213, -0.21476581692695618, -0.6398146152496338, 0.42748740315437317, -0.6014837622642517, 9.142538070678711, -3.416799545288086, -2.1557843685150146, 13.626110076904297, -8.792152404785156, -5.585377216339111, -1.06103515625, -0.043212890625, 0.0146484375, 0, 
111, 1040337546, -0.2137944996356964, -0.640743613243103, 0.4265645146369934, -0.6014962196350098, 9.34162712097168, -3.440481185913086, -1.9857285022735596, 19.81925392150879, -11.420406341552734, -5.699387550354004, -1.062255859375, -0.0419921875, 0.01220703125, 0, 
112, 1040345879, -0.21255217492580414, -0.6417561173439026, 0.4253709316253662, -0.6017026305198669, 9.472920417785645, -3.3492066860198975, -2.1114814281463623, 25.826377868652344, -11.180339813232422, -5.791792392730713, -1.0634765625, -0.04296875, 0.013916015625, 0, 
113, 1040354212, -0.21113230288028717, -0.6427835822105408, 0.4240613281726837, -0.6020294427871704, 9.2919282913208, -3.138576030731201, -2.21759033203125, 29.10680389404297, -10.953655242919922, -5.0571770668029785, -1.066162109375, -0.047119140625, 0.0166015625, 0, 
114, 1040362545, -0.20957839488983154, -0.6437657475471497, 0.42273998260498047, -0.6024522185325623, 9.069809913635254, -2.990676164627075, -2.0278146266937256, 30.8117618560791, -10.465883255004883, -3.533973455429077, -1.06396484375, -0.04541015625, 0.019287109375, 0, 
115, 1040370878, -0.2079913169145584, -0.644744336605072, 0.4214188754558563, -0.6028810143470764, 9.05119514465332, -2.806333065032959, -1.735821008682251, 31.12897300720215, -10.587092399597168, -3.200707197189331, -1.061279296875, -0.0458984375, 0.0185546875, 0, 
116, 1040379211, -0.2065848708152771, -0.6455563306808472, 0.42039525508880615, -0.6032103300094604, 9.151573181152344, -2.5891623497009277, -1.465321660041809, 26.008136749267578, -9.880928039550781, -1.3978209495544434, -1.0625, -0.0478515625, 0.019775390625, 0, 
117, 1040387544, -0.20547516644001007, -0.6461834907531738, 0.41965731978416443, -0.603431761264801, 9.423751831054688, -2.583137273788452, -1.4200983047485352, 19.85639190673828, -8.41172981262207, -0.5456218123435974, -1.060546875, -0.045654296875, 0.02099609375, 0, 
118, 1040395877, -0.20448142290115356, -0.6467183828353882, 0.41915252804756165, -0.603547215461731, 9.38525676727295, -2.5075523853302, -1.5231462717056274, 16.01805877685547, -8.56724739074707, 0.7821181416511536, -1.06103515625, -0.04443359375, 0.02099609375, 0, 
119, 1040404210, -0.20340466499328613, -0.6471717953681946, 0.41873785853385925, -0.6037127375602722, 9.487752914428711, -2.548504114151001, -1.8264356851577759, 16.06757164001465, -8.191049575805664, 2.8956258296966553, -1.0634765625, -0.045654296875, 0.0234375, 0, 
120, 1040412543, -0.20222538709640503, -0.6476300358772278, 0.4183466136455536, -0.6038886308670044, 9.435779571533203, -2.6013033390045166, -1.75454843044281, 16.8598690032959, -8.781356811523438, 3.944554567337036, -1.06201171875, -0.044189453125, 0.02490234375, 0, 
121, 1040420876, -0.2010871171951294, -0.6480024456977844, 0.4180450737476349, -0.6040779948234558, 9.170703887939453, -2.8039350509643555, -1.8274102210998535, 15.586150169372559, -7.974098205566406, 4.944073677062988, -1.064697265625, -0.0478515625, 0.026123046875, 0, 
122, 1040429209, -0.2002200484275818, -0.6482234597206116, 0.41786983609199524, -0.6042502522468567, 8.96774673461914, -2.839587688446045, -1.729825735092163, 11.604825973510742, -5.648580551147461, 4.628121852874756, -1.065185546875, -0.0458984375, 0.03125, 0, 
123, 1040437542, -0.19926489889621735, -0.6483791470527649, 0.41773727536201477, -0.6044904589653015, 9.003544807434082, -3.2221603393554688, -1.701810359954834, 12.244616508483887, -5.135167598724365, 6.315484523773193, -1.063720703125, -0.0458984375, 0.02587890625, 0, 
124, 1040445875, -0.19828397035598755, -0.6484732627868652, 0.417556494474411, -0.6048369407653809, 8.701448440551758, -3.0914182662963867, -1.713008165359497, 13.318648338317871, -3.679741382598877, 6.732843399047852, -1.0615234375, -0.043212890625, 0.024169921875, 0, 
125, 1040454208, -0.1974131315946579, -0.6485093832015991, 0.41747137904167175, -0.6051416993141174, 8.583694458007812, -3.0494840145111084, -1.6331852674484253, 11.142411231994629, -3.2101809978485107, 6.896518230438232, -1.060546875, -0.044189453125, 0.030517578125, 0, 
126, 1040462541, -0.19657795131206512, -0.6485950946807861, 0.41760629415512085, -0.6052286624908447, 8.588117599487305, -3.089573860168457, -1.2486605644226074, 7.878978252410889, -5.9454240798950195, 7.679213523864746, -1.060302734375, -0.040283203125, 0.03125, 0, 
127, 1040470874, -0.19569267332553864, -0.6486771702766418, 0.41792115569114685, -0.6052102446556091, 8.971034049987793, -2.96490216255188, -1.2078298330307007, 6.208122730255127, -7.641816139221191, 9.43897533416748, -1.064697265625, -0.038818359375, 0.026611328125, 0, 
128, 1040479207, -0.19477617740631104, -0.6486919522285461, 0.4183376431465149, -0.605202317237854, 9.232376098632812, -2.790428638458252, -1.3140171766281128, 5.524491310119629, -7.427694320678711, 11.018898010253906, -1.063232421875, -0.04052734375, 0.027099609375, 0, 
129, 1040487540, -0.19357295334339142, -0.6487699747085571, 0.41860803961753845, -0.6053177714347839, 9.587406158447266, -2.5263190269470215, -1.2674434185028076, 10.175910949707031, -8.127065658569336, 12.066344261169434, -1.063720703125, -0.037109375, 0.03076171875, 0, 
130, 1040495873, -0.19217120110988617, -0.6488811373710632, 0.4187092185020447, -0.6055752635002136, 9.882797241210938, -2.1579761505126953, -1.2489501237869263, 14.262537002563477, -7.812267780303955, 12.397998809814453, -1.061279296875, -0.0361328125, 0.031005859375, 0, 
131, 1040504206, -0.19099439680576324, -0.6489130258560181, 0.4188028872013092, -0.6058485507965088, 10.081585884094238, -1.7426705360412598, -1.214756965637207, 12.191060066223145, -5.716433048248291, 10.954634666442871, -1.0625, -0.030029296875, 0.02978515625, 0, 
132, 1040512539, -0.19001993536949158, -0.6489301323890686, 0.41881096363067627, -0.6061312556266785, 10.0743989944458, -1.1898424625396729, -1.4394253492355347, 11.121228218078613, -4.099968433380127, 8.616002082824707, -1.06103515625, -0.0322265625, 0.0302734375, 0, 
133, 1040520872, -0.18926472961902618, -0.648961067199707, 0.4187312126159668, -0.6063889861106873, 9.886979103088379, -0.9361666440963745, -1.5331215858459473, 9.784523963928223, -2.967358350753784, 5.864034175872803, -1.063720703125, -0.0302734375, 0.03076171875, 0, 
134, 1040529205, -0.18896575272083282, -0.6488606333732605, 0.4188457429409027, -0.606510579586029, 10.061173439025879, -0.9880816340446472, -1.3989310264587402, 2.972416877746582, -0.9437564611434937, 4.19080924987793, -1.063232421875, -0.02880859375, 0.03076171875, 0, 
135, 1040537538, -0.1889125257730484, -0.6486514210700989, 0.41909128427505493, -0.606581449508667, 10.239205360412598, -1.399103045463562, -1.2867871522903442, -0.8889930844306946, 0.5602984428405762, 3.8181726932525635, -1.063232421875, -0.02783203125, 0.031494140625, 0, 
136, 1040545871, -0.18914052844047546, -0.6482986807823181, 0.4194936454296112, -0.6066093444824219, 10.170685768127441, -1.881210207939148, -1.2609314918518066, -5.323995590209961, 2.611896276473999, 3.57412052154541, -1.062744140625, -0.0302734375, 0.03076171875, 0, 
137, 1040554204, -0.18957659602165222, -0.6478328108787537, 0.42002072930336, -0.6066063642501831, 9.933276176452637, -2.0435259342193604, -1.4535040855407715, -8.697493553161621, 4.1294379234313965, 3.5437686443328857, -1.062255859375, -0.02880859375, 0.031494140625, 0, 
138, 1040562537, -0.18990661203861237, -0.647435188293457, 0.4204503893852234, -0.6066299676895142, 9.59687614440918, -2.070608377456665, -1.7580238580703735, -6.603606700897217, 3.4658498764038086, 3.2136266231536865, -1.06396484375, -0.02880859375, 0.0322265625, 0, 
139, 1040570870, -0.19009730219841003, -0.6471185088157654, 0.42069149017333984, -0.6067409515380859, 9.299538612365723, -1.8635660409927368, -2.189601421356201, -3.078165054321289, 3.2225911617279053, 2.4838764667510986, -1.059814453125, -0.02783203125, 0.031005859375, 0, 
140, 1040579203, -0.1904122531414032, -0.6468479037284851, 0.4209775924682617, -0.6067323088645935, 9.12341594696045, -1.7525326013565063, -2.5736520290374756, -5.126138687133789, 2.407712459564209, 1.2430076599121094, -1.0634765625, -0.027099609375, 0.029296875, 0, 
141, 1040587536, -0.19078657031059265, -0.6466841697692871, 0.4212298095226288, -0.6066141128540039, 8.85250186920166, -1.5931483507156372, -2.7367351055145264, -5.730314254760742, 0.9423092603683472, -0.43013983964920044, -1.06103515625, -0.027099609375, 0.028076171875, 0, 
142, 1040595869, -0.191185861825943, -0.6466422080993652, 0.4213786721229553, -0.6064297556877136, 8.578713417053223, -1.789241075515747, -2.364668846130371, -5.149357795715332, -0.21393010020256042, -2.465498447418213, -1.060546875, -0.026123046875, 0.028564453125, 0, 
143, 1040604202, -0.19176140427589417, -0.6465353965759277, 0.421678364276886, -0.6061534881591797, 8.640987396240234, -2.134584903717041, -2.0316154956817627, -8.677641868591309, 0.10542818903923035, -2.428178310394287, -1.059814453125, -0.0224609375, 0.02587890625, 0, 
144, 1040612535, -0.19263501465320587, -0.6461951732635498, 0.42234936356544495, -0.6057721376419067, 8.85610294342041, -2.4571943283081055, -1.9444423913955688, -15.64781665802002, 1.8949288129806519, -0.5676372051239014, -1.06103515625, -0.030029296875, 0.0283203125, 0, 
145, 1040620868, -0.1937207728624344, -0.6456552743911743, 0.42331036925315857, -0.6053305268287659, 9.130342483520508, -2.844714641571045, -1.8896313905715942, -20.82560920715332, 3.4603688716888428, 1.2766523361206055, -1.060302734375, -0.025146484375, 0.03125, 0, 
146, 1040629201, -0.19477710127830505, -0.645110547542572, 0.42436379194259644, -0.6048344969749451, 9.325220108032227, -3.0136563777923584, -1.8801991939544678, -21.665027618408203, 2.625178337097168, 2.1905815601348877, -1.059326171875, -0.02734375, 0.027099609375, 0, 
147, 1040637534, -0.19574405252933502, -0.6446731090545654, 0.42527222633361816, -0.6043505668640137, 9.429494857788086, -2.9390649795532227, -1.795317530632019, -19.3084774017334, 1.683764934539795, 1.0876446962356567, -1.061767578125, -0.024658203125, 0.02978515625, 0, 
148, 1040645867, -0.1967848539352417, -0.644214928150177, 0.42612960934638977, -0.6038971543312073, 9.465785026550293, -2.805385112762451, -1.8254588842391968, -19.415212631225586, 2.720014810562134, 0.19314421713352203, -1.06201171875, -0.0244140625, 0.027587890625, 0, 
149, 1040654200, -0.19787266850471497, -0.6437669396400452, 0.4268397390842438, -0.6035177111625671, 9.423733711242676, -2.598081588745117, -1.8643195629119873, -18.149126052856445, 3.9375367164611816, -1.3329908847808838, -1.0615234375, -0.0244140625, 0.02783203125, 0, 
150, 1040662533, -0.1989438533782959, -0.6433101892471313, 0.4274783730506897, -0.6032007336616516, 9.136794090270996, -2.4817543029785156, -1.8902348279953003, -17.06496238708496, 4.68899393081665, -1.6355845928192139, -1.06201171875, -0.02490234375, 0.027587890625, 0, 
151, 1040670866, -0.20023539662361145, -0.6427239179611206, 0.4281160831451416, -0.6029457449913025, 9.147207260131836, -2.402438163757324, -1.953718900680542, -18.998136520385742, 7.5804972648620605, -2.511963367462158, -1.061767578125, -0.025390625, 0.025634765625, 0, 
152, 1040679199, -0.2017291784286499, -0.6420102119445801, 0.4288160502910614, -0.6027108430862427, 8.88048267364502, -2.4706168174743652, -1.8124823570251465, -21.533462524414062, 9.861882209777832, -2.8616750240325928, -1.0634765625, -0.02734375, 0.02392578125, 0, 
153, 1040687532, -0.2032182514667511, -0.6412723064422607, 0.4296298921108246, -0.6024165153503418, 8.904428482055664, -2.7133405208587646, -1.6631405353546143, -22.854520797729492, 9.167121887207031, -1.8096210956573486, -1.0625, -0.027587890625, 0.0234375, 0, 
154, 1040695865, -0.2049235701560974, -0.6403513550758362, 0.43063846230506897, -0.6020981669425964, 9.234898567199707, -2.8234548568725586, -1.9350405931472778, -27.025724411010742, 11.23129940032959, -0.9009301662445068, -1.061767578125, -0.0244140625, 0.020263671875, 0, 
155, 1040704198, -0.20689170062541962, -0.6393033266067505, 0.4317806363105774, -0.6017205715179443, 9.002019882202148, -2.9495809078216553, -2.086203098297119, -31.156635284423828, 12.916913032531738, -1.2842093706130981, -1.061279296875, -0.026611328125, 0.021728515625, 0, 
156, 1040712531, -0.20896793901920319, -0.6382164359092712, 0.4329453408718109, -0.6013199090957642, 8.963798522949219, -3.042067289352417, -1.9632807970046997, -32.54042434692383, 13.638238906860352, -1.8453922271728516, -1.0634765625, -0.0244140625, 0.01953125, 0, 
157, 1040720864, -0.21105889976024628, -0.637091338634491, 0.4341208040714264, -0.6009352207183838, 9.04622745513916, -3.127979278564453, -1.8811564445495605, -32.77524185180664, 14.124229431152344, -1.572357177734375, -1.063232421875, -0.023681640625, 0.01513671875, 0, 
158, 1040729197, -0.21323800086975098, -0.6357924342155457, 0.43544936180114746, -0.6005802154541016, 9.05735969543457, -3.1827123165130615, -2.281126022338867, -35.13717269897461, 15.930500984191895, 0.1390470713376999, -1.0615234375, -0.026123046875, 0.013671875, 0, 
159, 1040737530, -0.21547290682792664, -0.6343973875045776, 0.4368226230144501, -0.6002605557441711, 9.092384338378906, -3.214078426361084, -2.5331673622131348, -36.066429138183594, 17.20911407470703, 0.7675188183784485, -1.063720703125, -0.02734375, 0.011474609375, 0, 
160, 1040745863, -0.2176821082830429, -0.6329724192619324, 0.43818533420562744, -0.5999744534492493, 9.178807258605957, -3.1710290908813477, -2.609531879425049, -35.64040756225586, 17.652469635009766, 1.1463793516159058, -1.06298828125, -0.026611328125, 0.009033203125, 0, 
161, 1040754196, -0.21980610489845276, -0.631697952747345, 0.43934839963912964, -0.5996925830841064, 8.84062671661377, -3.0665719509124756, -2.632690906524658, -32.7791633605957, 16.509634017944336, -0.7648674845695496, -1.061767578125, -0.024169921875, 0.0078125, 0, 
162, 1040762529, -0.22184963524341583, -0.6306087374687195, 0.4403977394104004, -0.5993165969848633, 8.640933990478516, -3.028578996658325, -3.1722333431243896, -31.14671516418457, 14.045184135437012, -2.510172128677368, -1.058837890625, -0.022216796875, 0.008544921875, 0, 
163, 1040770862, -0.22385460138320923, -0.6297213435173035, 0.4412415623664856, -0.5988834500312805, 8.387187957763672, -2.9899377822875977, -3.757629871368408, -28.852460861206055, 12.258637428283691, -5.358399868011475, -1.058837890625, -0.026123046875, 0.00244140625, 0, 
164, 1040779195, -0.22570937871932983, -0.629209041595459, 0.4418066442012787, -0.5983089208602905, 7.848731994628906, -3.0909180641174316, -3.717406749725342, -24.957836151123047, 7.912280559539795, -9.260089874267578, -1.061767578125, -0.02490234375, -0.001220703125, 0, 
165, 1040787528, -0.22747664153575897, -0.6289823651313782, 0.44215071201324463, -0.5976232290267944, 7.847280979156494, -3.3616836071014404, -3.5342986583709717, -22.169504165649414, 4.745782852172852, -12.523716926574707, -1.0615234375, -0.027099609375, 0.0009765625, 0, 
166, 1040795861, -0.22909264266490936, -0.6290289163589478, 0.44221627712249756, -0.5969081521034241, 8.005406379699707, -3.6306700706481934, -3.4806907176971436, -17.897275924682617, 2.2065651416778564, -15.451322555541992, -1.0615234375, -0.032958984375, -0.000244140625, 0, 
167, 1040804194, -0.2303919792175293, -0.6294164657592773, 0.4418623745441437, -0.596261203289032, 8.172537803649902, -3.7952325344085693, -3.174144983291626, -10.223258972167969, -0.6032922863960266, -18.337209701538086, -1.064208984375, -0.033447265625, -0.00146484375, 0, 
168, 1040812527, -0.23120568692684174, -0.6302149295806885, 0.44091135263442993, -0.5958066582679749, 8.332772254943848, -3.637528657913208, -2.6163134574890137, 1.3445813655853271, -3.3720898628234863, -21.41250991821289, -1.063232421875, -0.03515625, 0.00244140625, 0, 
169, 1040820860, -0.23140652477741241, -0.6314495205879211, 0.43932363390922546, -0.5955942273139954, 8.411401748657227, -3.3924498558044434, -1.8700833320617676, 14.728322982788086, -6.522758960723877, -23.790966033935547, -1.0615234375, -0.03662109375, 0.00146484375, 0, 
170, 1040829193, -0.23114316165447235, -0.632840633392334, 0.43731769919395447, -0.595696210861206, 8.85697078704834, -3.1521224975585938, -1.2626492977142334, 24.580650329589844, -6.562002658843994, -23.55837059020996, -1.060546875, -0.043701171875, 0.001708984375, 0, 
171, 1040837526, -0.23062433302402496, -0.6341516971588135, 0.43524253368377686, -0.59602290391922, 9.376059532165527, -2.8176567554473877, -1.1630446910858154, 28.467397689819336, -5.252306938171387, -20.88874053955078, -1.062255859375, -0.0458984375, 0.00439453125, 0, 
172, 1040845859, -0.23001521825790405, -0.6353887319564819, 0.43324118852615356, -0.5963988900184631, 9.640174865722656, -2.4141314029693604, -1.1347166299819946, 28.70924949645996, -5.00351619720459, -18.889802932739258, -1.064697265625, -0.0478515625, 0.003662109375, 0, 
173, 1040854192, -0.2293287068605423, -0.6365988254547119, 0.43138688802719116, -0.5967167615890503, 9.883451461791992, -1.89183509349823, -1.0029070377349854, 27.747146606445312, -6.205361366271973, -17.01247787475586, -1.062255859375, -0.048828125, 0.003662109375, 0, 
174, 1040862525, -0.2287137508392334, -0.63760906457901, 0.42976516485214233, -0.5970442891120911, 9.97683048248291, -1.392371416091919, -1.022753357887268, 24.641389846801758, -4.802596569061279, -14.329792976379395, -1.06494140625, -0.052490234375, 0.005859375, 0, 
175, 1040870858, -0.22843098640441895, -0.638321578502655, 0.4285772144794464, -0.5972452163696289, 9.890231132507324, -1.1705198287963867, -0.9067934155464172, 16.4822940826416, -2.8605477809906006, -11.9086275100708, -1.06298828125, -0.05859375, 0.005615234375, 0, 
176, 1040879191, -0.2286054939031601, -0.638733983039856, 0.42783069610595703, -0.5972727537155151, 9.865182876586914, -1.0937126874923706, -1.0673712491989136, 6.878588676452637, -0.6189936995506287, -10.549352645874023, -1.0595703125, -0.054931640625, 0.006103515625, 0, 
177, 1040887524, -0.22923770546913147, -0.6389241814613342, 0.42737191915512085, -0.5971552729606628, 9.689996719360352, -1.0542960166931152, -1.686848759651184, -1.0597891807556152, 1.7260154485702515, -10.939840316772461, -1.065185546875, -0.057861328125, 0.00390625, 0, 
178, 1040895857, -0.23016223311424255, -0.6390713453292847, 0.4270217716693878, -0.5968924760818481, 9.658446311950684, -1.2962048053741455, -2.078070878982544, -5.50716495513916, 2.172997236251831, -12.58010196685791, -1.063232421875, -0.0615234375, 0.00439453125, 0, 
179, 1040904190, -0.23106610774993896, -0.6392965912818909, 0.42661309242248535, -0.5965942144393921, 9.80152416229248, -1.567108154296875, -2.201111316680908, -4.806639194488525, 1.2864365577697754, -13.501418113708496, -1.0625, -0.06298828125, 0.00732421875, 0, 
180, 1040912523, -0.2319316565990448, -0.639550507068634, 0.42610904574394226, -0.596346378326416, 9.655229568481445, -1.7522015571594238, -2.3132779598236084, -3.2993314266204834, 1.5696403980255127, -14.027546882629395, -1.06396484375, -0.065673828125, 0.007568359375, 0, 
181, 1040920856, -0.2327280044555664, -0.6398885846138, 0.42551150918006897, -0.5961002111434937, 9.37030029296875, -1.9045518636703491, -2.593749523162842, -1.6468805074691772, 0.7912495732307434, -14.77113151550293, -1.0625, -0.064697265625, 0.00244140625, 0, 
182, 1040929189, -0.23315446078777313, -0.6405298709869385, 0.42463529109954834, -0.5958696603775024, 9.012004852294922, -2.054486036300659, -2.835069179534912, 4.953268527984619, -2.8319101333618164, -15.914485931396484, -1.0625, -0.070068359375, 0.007080078125, 0, 
183, 1040937522, -0.23277689516544342, -0.6418002843856812, 0.42319348454475403, -0.595676064491272, 8.941225051879883, -2.1985883712768555, -2.685129165649414, 18.90302276611328, -10.536781311035156, -17.863405227661133, -1.06298828125, -0.0732421875, 0.0078125, 0, 
184, 1040945855, -0.23183715343475342, -0.6435056328773499, 0.4213225841522217, -0.5955289602279663, 9.05374526977539, -2.2843098640441895, -2.499417304992676, 29.04377555847168, -15.593684196472168, -19.42798614501953, -1.0673828125, -0.072509765625, 0.006591796875, 0, 
185, 1040954188, -0.23064330220222473, -0.6453742980957031, 0.4191571772098541, -0.5954980850219727, 8.650349617004395, -2.2325124740600586, -2.474048614501953, 34.89552307128906, -16.423748016357422, -20.529203414916992, -1.0634765625, -0.079833984375, 0.00830078125, 0, 
186, 1040962521, -0.22911186516284943, -0.6474920511245728, 0.4166874289512634, -0.5955237746238708, 8.413445472717285, -2.311434268951416, -2.163856267929077, 41.5022087097168, -18.95467758178711, -21.721635818481445, -1.0634765625, -0.07958984375, 0.012939453125, 0, 
187, 1040970854, -0.22707481682300568, -0.6499003171920776, 0.4138733744621277, -0.5956429243087769, 8.683672904968262, -2.2417044639587402, -1.7852797508239746, 50.28031921386719, -22.2985897064209, -22.019060134887695, -1.065185546875, -0.085205078125, 0.013916015625, 0, 
188, 1040979187, -0.22486354410648346, -0.6522857546806335, 0.41102734208106995, -0.5958449840545654, 9.130178451538086, -2.039818525314331, -1.0228264331817627, 52.49394607543945, -22.27733612060547, -20.487329483032227, -1.06396484375, -0.08935546875, 0.017333984375, 0, 
189, 1040987520, -0.22282616794109344, -0.6543201804161072, 0.40850603580474854, -0.5961136221885681, 10.009275436401367, -1.681423306465149, -0.21652203798294067, 47.568626403808594, -18.807083129882812, -16.815366744995117, -1.0625, -0.09130859375, 0.023193359375, 0, 
190, 1040995853, -0.22111254930496216, -0.6559044718742371, 0.40648362040519714, -0.5963929891586304, 10.681812286376953, -1.3570950031280518, -0.10575570166110992, 39.24290466308594, -14.749648094177246, -12.412883758544922, -1.0634765625, -0.092529296875, 0.026123046875, 0, 
191, 1041004186, -0.2197282314300537, -0.6571530699729919, 0.40483832359313965, -0.5966494083404541, 10.787759780883789, -0.8945960998535156, -0.36318862438201904, 32.03157043457031, -11.498011589050293, -9.910746574401855, -1.059326171875, -0.096923828125, 0.026611328125, 0, 
192, 1041012519, -0.21881189942359924, -0.6580968499183655, 0.4035049378871918, -0.596849262714386, 10.900782585144043, -0.43316227197647095, -0.8907560706138611, 24.005434036254883, -7.856813430786133, -9.399354934692383, -1.059326171875, -0.09619140625, 0.02978515625, 0, 
193, 1041020852, -0.21826551854610443, -0.6587910056114197, 0.4024122655391693, -0.5970211029052734, 10.776796340942383, -0.32377469539642334, -1.0794737339019775, 17.77478790283203, -4.7291579246521, -8.956199645996094, -1.064208984375, -0.0986328125, 0.029296875, 0, 
194, 1041029185, -0.2182719111442566, -0.659074604511261, 0.40187960863113403, -0.5970646142959595, 10.429059982299805, -0.38415369391441345, -1.1873371601104736, 6.228460311889648, -1.1471208333969116, -6.53548526763916, -1.06201171875, -0.09765625, 0.02734375, 0, 
195, 1041037518, -0.21888980269432068, -0.658906877040863, 0.4019588828086853, -0.5969700813293457, 10.023308753967285, -0.4245509207248688, -1.4102696180343628, -6.456530570983887, 2.8453962802886963, -3.9206690788269043, -1.063720703125, -0.100341796875, 0.030517578125, 0, 
196, 1041045851, -0.21991419792175293, -0.6584838032722473, 0.4024585783481598, -0.5967237949371338, 9.665772438049316, -0.5303052663803101, -1.5935118198394775, -15.197158813476562, 4.551458358764648, -2.5028698444366455, -1.061767578125, -0.099853515625, 0.02490234375, 0, 
197, 1041054184, -0.22125795483589172, -0.6578367352485657, 0.40338894724845886, -0.5963124632835388, 9.53684139251709, -0.7538390755653381, -1.8520524501800537, -23.21037483215332, 5.35426139831543, -0.46505221724510193, -1.058837890625, -0.10107421875, 0.02685546875, 0, 
198, 1041062517, -0.22261813282966614, -0.6571129560470581, 0.40455013513565063, -0.5958172678947449, 9.625036239624023, -0.9341331124305725, -2.2379424571990967, -25.954357147216797, 4.621412754058838, 1.640938401222229, -1.064208984375, -0.10302734375, 0.02587890625, 0, 
199, 1041070850, -0.22391925752162933, -0.6563272476196289, 0.4057716429233551, -0.5953649282455444, 9.613764762878418, -1.325608491897583, -2.537801504135132, -25.863300323486328, 4.990642547607422, 3.1701607704162598, -1.0634765625, -0.09912109375, 0.027587890625, 0, 
200, 1041079183, -0.2251504510641098, -0.6555827856063843, 0.4071153998374939, -0.5948032140731812, 9.812955856323242, -1.5342406034469604, -2.4754576683044434, -26.719635009765625, 2.911405563354492, 4.25364351272583, -1.063720703125, -0.097412109375, 0.024169921875, 0, 
201, 1041087516, -0.2261379361152649, -0.6549128293991089, 0.40833985805511475, -0.5943268537521362, 9.884954452514648, -1.541675329208374, -2.743828296661377, -22.831619262695312, 2.0666983127593994, 5.04732608795166, -1.061279296875, -0.096923828125, 0.0244140625, 0, 
202, 1041095849, -0.22685782611370087, -0.6544041037559509, 0.40926653146743774, -0.5939755439758301, 9.573113441467285, -1.6418999433517456, -2.6619131565093994, -16.790315628051758, 1.307543158531189, 4.0083088874816895, -1.0615234375, -0.09521484375, 0.023681640625, 0, 
203, 1041104182, -0.22725912928581238, -0.654147207736969, 0.4098615348339081, -0.5936946868896484, 9.382917404174805, -1.6153560876846313, -2.3787639141082764, -10.024643898010254, -0.8795416951179504, 2.4576220512390137, -1.06298828125, -0.09716796875, 0.0283203125, 0, 
204, 1041112515, -0.22705595195293427, -0.6542967557907104, 0.4100101590156555, -0.5935049653053284, 9.302589416503906, -1.5943093299865723, -2.0361328125, 0.8332310318946838, -5.383254051208496, 1.3401367664337158, -1.060302734375, -0.097412109375, 0.026123046875, 0, 
205, 1041120848, -0.22644977271556854, -0.6546643376350403, 0.4098254442214966, -0.5934588313102722, 9.452932357788086, -1.5149985551834106, -1.790864109992981, 8.679153442382812, -7.1048126220703125, 0.8835119009017944, -1.06103515625, -0.093017578125, 0.02685546875, 0, 
206, 1041129181, -0.22593364119529724, -0.65497225522995, 0.4096214175224304, -0.5934566259384155, 9.494416236877441, -1.5104986429214478, -1.984647512435913, 8.078524589538574, -5.651512145996094, 0.4143102765083313, -1.06494140625, -0.096435546875, 0.0263671875, 0, 
207, 1041137514, -0.2255081683397293, -0.6552841663360596, 0.4095120131969452, -0.5933496356010437, 9.480968475341797, -1.485170602798462, -1.8555419445037842, 5.922280311584473, -6.414777755737305, 0.21235482394695282, -1.064453125, -0.093505859375, 0.02587890625, 0, 
208, 1041145847, -0.22505314648151398, -0.6556541919708252, 0.4093972146511078, -0.5931927561759949, 9.602700233459473, -1.530398964881897, -1.6754392385482788, 6.122865200042725, -7.484504222869873, -0.1100899800658226, -1.062255859375, -0.09521484375, 0.029052734375, 0, 
209, 1041154180, -0.22469790279865265, -0.6559545993804932, 0.4092986285686493, -0.593063473701477, 9.603397369384766, -1.667734146118164, -1.4844048023223877, 5.038410186767578, -6.160737037658691, -0.26661863923072815, -1.06396484375, -0.095947265625, 0.02685546875, 0, 
210, 1041162513, -0.22443923354148865, -0.6561562418937683, 0.4093523919582367, -0.5929011106491089, 9.602434158325195, -1.697216272354126, -1.0359477996826172, 2.425706624984741, -5.578371047973633, 0.7388298511505127, -1.062255859375, -0.09521484375, 0.029541015625, 0, 
211, 1041170846, -0.2242773473262787, -0.6561712026596069, 0.4096226394176483, -0.5927593111991882, 9.766953468322754, -1.6931122541427612, -1.121228575706482, -0.6639594435691833, -3.9957306385040283, 3.055009603500366, -1.060302734375, -0.09375, 0.03125, 0, 
212, 1041179179, -0.22420071065425873, -0.6560103297233582, 0.41013938188552856, -0.592609167098999, 9.949860572814941, -1.7204018831253052, -1.3147504329681396, -4.041900634765625, -2.915053367614746, 5.511491298675537, -1.0625, -0.0947265625, 0.031005859375, 0, 
213, 1041187512, -0.22412651777267456, -0.6557925939559937, 0.4108283519744873, -0.5924009084701538, 10.210005760192871, -1.4599491357803345, -1.2279610633850098, -5.95989465713501, -3.5040276050567627, 7.224507808685303, -1.059326171875, -0.09228515625, 0.031494140625, 0, 
214, 1041195845, -0.22409535944461823, -0.6555020809173584, 0.411579430103302, -0.5922129154205322, 10.136774063110352, -1.0805587768554688, -1.0781339406967163, -6.973552703857422, -2.6649820804595947, 7.871447563171387, -1.064208984375, -0.090087890625, 0.028564453125, 0, 
215, 1041204178, -0.2243317812681198, -0.6550307273864746, 0.41239824891090393, -0.5920749306678772, 10.012628555297852, -1.1053681373596191, -1.3160176277160645, -10.20494270324707, 0.5506677627563477, 7.518790245056152, -1.0595703125, -0.091552734375, 0.033447265625, 0, 
216, 1041212511, -0.22479811310768127, -0.6544346809387207, 0.4132135212421417, -0.5919888019561768, 9.810554504394531, -1.3331191539764404, -1.695436716079712, -12.343194007873535, 3.360626220703125, 6.444247245788574, -1.063720703125, -0.0869140625, 0.032470703125, 0, 
217, 1041220844, -0.22538600862026215, -0.6538276076316833, 0.4139484763145447, -0.5919226408004761, 9.612854957580566, -1.54841148853302, -1.877522587776184, -12.700525283813477, 4.549139976501465, 4.897441864013672, -1.0673828125, -0.085693359375, 0.029541015625, 0, 
218, 1041229177, -0.22595854103565216, -0.653281569480896, 0.41454240679740906, -0.5918916463851929, 9.438712120056152, -1.8890951871871948, -2.0179216861724854, -11.029760360717773, 4.73827600479126, 3.474033832550049, -1.060791015625, -0.087646484375, 0.029541015625, 0, 
219, 1041237510, -0.22626613080501556, -0.6528947353363037, 0.41492852568626404, -0.5919303894042969, 9.288030624389648, -2.393864393234253, -1.8778454065322876, -6.057523727416992, 3.1822359561920166, 3.1179442405700684, -1.06298828125, -0.086669921875, 0.027587890625, 0, 
220, 1041245843, -0.226098895072937, -0.6528008580207825, 0.41510534286499023, -0.5919739603996277, 9.250609397888184, -2.6277689933776855, -1.8324156999588013, 0.8396217823028564, -1.1950066089630127, 3.4010708332061768, -1.059814453125, -0.086181640625, 0.029296875, 0, 
221, 1041254176, -0.22557424008846283, -0.6528993248939514, 0.41510388255119324, -0.5920665860176086, 9.256922721862793, -2.5900771617889404, -2.129377841949463, 6.385000705718994, -3.825434446334839, 3.811692476272583, -1.0615234375, -0.086181640625, 0.027587890625, 0, 
222, 1041262509, -0.2248760610818863, -0.6530596613883972, 0.4150353670120239, -0.5922034382820129, 9.313070297241211, -2.6942882537841797, -2.2959742546081543, 8.925318717956543, -4.6978044509887695, 4.359017848968506, -1.0625, -0.086181640625, 0.030517578125, 0, 
223, 1041270842, -0.22400718927383423, -0.6533025503158569, 0.4149097204208374, -0.5923526287078857, 9.170315742492676, -2.8936054706573486, -2.617720127105713, 11.255012512207031, -6.0711894035339355, 4.84714937210083, -1.063720703125, -0.085205078125, 0.028564453125, 0, 
224, 1041279175, -0.22293433547019958, -0.6535683274269104, 0.4146857261657715, -0.5926210284233093, 9.174160957336426, -3.3617007732391357, -3.0410921573638916, 14.634810447692871, -6.030411720275879, 5.818594455718994, -1.06005859375, -0.083740234375, 0.0283203125, 0, 
225, 1041287508, -0.22155435383319855, -0.6538917422294617, 0.4143294394016266, -0.5930308699607849, 8.934021949768066, -3.5085866451263428, -2.828727960586548, 19.46080780029297, -6.590046405792236, 7.274881362915039, -1.062255859375, -0.080322265625, 0.02978515625, 0, 
226, 1041295841, -0.21987009048461914, -0.6543992757797241, 0.4138571321964264, -0.5934274792671204, 8.96873950958252, -3.1721298694610596, -2.5508012771606445, 23.622831344604492, -9.576144218444824, 7.5856475830078125, -1.06494140625, -0.082763671875, 0.031494140625, 0, 
227, 1041304174, -0.2180100828409195, -0.6550283432006836, 0.4133608043193817, -0.5937655568122864, 9.083881378173828, -2.919046401977539, -2.662250518798828, 25.43973159790039, -12.030529022216797, 7.964432716369629, -1.06103515625, -0.0810546875, 0.035400390625, 0, 
228, 1041312507, -0.21598270535469055, -0.6558716893196106, 0.41276270151138306, -0.5939915776252747, 8.69968032836914, -2.6148416996002197, -2.1780805587768555, 27.779674530029297, -15.428441047668457, 6.8322577476501465, -1.06494140625, -0.08056640625, 0.0361328125, 0, 
229, 1041320840, -0.21397973597049713, -0.6567209959030151, 0.4121991991996765, -0.5941693186759949, 8.813088417053223, -2.6960251331329346, -2.0351686477661133, 27.026817321777344, -15.881733894348145, 6.787431716918945, -1.0634765625, -0.07763671875, 0.035888671875, 0, 
230, 1041329173, -0.2121393382549286, -0.6573958396911621, 0.41177594661712646, -0.5943764448165894, 8.70882797241211, -2.596381425857544, -2.140530586242676, 24.058879852294922, -13.676053047180176, 7.780074119567871, -1.061767578125, -0.077392578125, 0.03955078125, 0, 
231, 1041337506, -0.21044746041297913, -0.6579746007919312, 0.4115290641784668, -0.5945086479187012, 8.707269668579102, -2.406447172164917, -2.3643741607666016, 20.574275970458984, -13.24459171295166, 8.505199432373047, -1.060302734375, -0.076171875, 0.043701171875, 0, 
232, 1041345839, -0.20880255103111267, -0.6584569215774536, 0.41137954592704773, -0.5946580171585083, 9.143531799316406, -2.3974995613098145, -2.4220428466796875, 19.168256759643555, -12.312871932983398, 9.57905101776123, -1.063232421875, -0.078125, 0.0439453125, 0, 
233, 1041354172, -0.2072710543870926, -0.6588072776794434, 0.4112985134124756, -0.5948615074157715, 8.992269515991211, -2.5176846981048584, -2.083285093307495, 17.51224136352539, -10.302664756774902, 10.188156127929688, -1.06396484375, -0.07177734375, 0.043701171875, 0, 
234, 1041362505, -0.20587998628616333, -0.6591305136680603, 0.41121068596839905, -0.5950472354888916, 9.293512344360352, -2.466935873031616, -1.4922529458999634, 16.11301040649414, -9.424683570861816, 9.066071510314941, -1.0615234375, -0.072265625, 0.044921875, 0, 
235, 1041370838, -0.20449286699295044, -0.6593532562255859, 0.4111489951610565, -0.5953213572502136, 9.847206115722656, -2.1065614223480225, -1.339255452156067, 16.08452796936035, -7.8527631759643555, 10.102066040039062, -1.063232421875, -0.0703125, 0.04736328125, 0, 
236, 1041379171, -0.2033432275056839, -0.659458577632904, 0.4110981822013855, -0.5956333875656128, 10.333962440490723, -1.7706972360610962, -1.3755179643630981, 13.72140884399414, -5.236242294311523, 9.013972282409668, -1.063720703125, -0.0673828125, 0.04638671875, 0, 
237, 1041387504, -0.20250293612480164, -0.6593415141105652, 0.4111941456794739, -0.5959831476211548, 10.483144760131836, -1.4570505619049072, -1.2796945571899414, 9.30907154083252, -1.7384892702102661, 9.184586524963379, -1.058837890625, -0.06982421875, 0.04736328125, 0, 
238, 1041395837, -0.20198631286621094, -0.6591275334358215, 0.4112440347671509, -0.5963605642318726, 10.234564781188965, -1.3924036026000977, -1.251583456993103, 6.634202480316162, 1.2691726684570312, 6.7290778160095215, -1.065185546875, -0.0673828125, 0.0458984375, 0, 
239, 1041404170, -0.20158696174621582, -0.6588516235351562, 0.41129541397094727, -0.5967652797698975, 10.097306251525879, -1.517102837562561, -1.1343570947647095, 5.543343544006348, 2.675675868988037, 6.222453594207764, -1.062744140625, -0.0654296875, 0.046142578125, 0, 
240, 1041412503, -0.20142556726932526, -0.6584725975990295, 0.41133084893226624, -0.5972133278846741, 9.883223533630371, -1.7179416418075562, -1.578848958015442, 3.475698232650757, 5.31103515625, 4.811250686645508, -1.062744140625, -0.06494140625, 0.046630859375, 0, 
241, 1041420836, -0.20135536789894104, -0.6580376625061035, 0.41143399477005005, -0.5976453423500061, 9.592925071716309, -1.8682451248168945, -1.5004045963287354, 1.850731372833252, 5.9440155029296875, 4.970340728759766, -1.06103515625, -0.064453125, 0.0458984375, 0, 
242, 1041429169, -0.20121173560619354, -0.6575744152069092, 0.4116871654987335, -0.5980291366577148, 9.656673431396484, -2.150493621826172, -1.5795491933822632, 0.9284008145332336, 4.919355392456055, 6.936553001403809, -1.0615234375, -0.062255859375, 0.0439453125, 0, 
243, 1041437502, -0.20110079646110535, -0.6570380330085754, 0.4119552671909332, -0.5984708666801453, 9.358536720275879, -2.406388282775879, -1.7431466579437256, 0.6360910534858704, 6.171275615692139, 7.40068244934082, -1.05712890625, -0.063232421875, 0.0458984375, 0, 
244, 1041445835, -0.20125773549079895, -0.6562707424163818, 0.41257086396217346, -0.598835825920105, 9.362038612365723, -2.7137253284454346, -1.8863520622253418, -5.718173980712891, 7.953592300415039, 9.407686233520508, -1.063232421875, -0.060546875, 0.04150390625, 0, 
245, 1041454168, -0.2015279084444046, -0.6553831696510315, 0.41347789764404297, -0.5990914702415466, 9.072420120239258, -2.732123851776123, -1.9044740200042725, -10.089141845703125, 7.7743706703186035, 11.509849548339844, -1.06201171875, -0.061279296875, 0.03955078125, 0, 
246, 1041462501, -0.20162363350391388, -0.6545699834823608, 0.41444045305252075, -0.5992832779884338, 9.176918983459473, -2.7373299598693848, -1.9453929662704468, -9.13444995880127, 5.459125518798828, 12.823528289794922, -1.061767578125, -0.05712890625, 0.036376953125, 0, 
247, 1041470834, -0.20175953209400177, -0.6538852453231812, 0.4154133200645447, -0.5993115901947021, 9.119915962219238, -2.5694549083709717, -2.591722011566162, -10.155200958251953, 3.1110928058624268, 11.420557022094727, -1.063232421875, -0.05419921875, 0.036865234375, 0, 
248, 1041479167, -0.20209580659866333, -0.6531757712364197, 0.41631409525871277, -0.5993468165397644, 8.974285125732422, -2.2848925590515137, -2.619384765625, -11.393571853637695, 4.738185882568359, 9.259740829467773, -1.064697265625, -0.049560546875, 0.036376953125, 0, 
249, 1041487500, -0.20252977311611176, -0.652479350566864, 0.4171035885810852, -0.5994100570678711, 8.528281211853027, -2.2790374755859375, -2.548358201980591, -11.154282569885254, 5.734374046325684, 7.476680278778076, -1.064208984375, -0.05078125, 0.036865234375, 0, 
250, 1041495833, -0.20282423496246338, -0.651974081993103, 0.4177142083644867, -0.5994349718093872, 8.30652141571045, -2.462120771408081, -2.3155853748321533, -8.11788272857666, 3.529975175857544, 5.8016252517700195, -1.061279296875, -0.053955078125, 0.033447265625, 0, 
251, 1041504166, -0.20291444659233093, -0.65165776014328, 0.4181198477745056, -0.5994653105735779, 8.554770469665527, -2.654538631439209, -2.0795910358428955, -4.038212299346924, 1.409384846687317, 4.594130992889404, -1.063720703125, -0.048095703125, 0.0361328125, 0, 
252, 1041512499, -0.20282047986984253, -0.6514962315559387, 0.41836971044540405, -0.5994983911514282, 8.772153854370117, -2.731084108352661, -1.954526662826538, -0.6571844220161438, -0.45775195956230164, 3.8153040409088135, -1.059814453125, -0.050048828125, 0.033935546875, 0, 
253, 1041520832, -0.20239374041557312, -0.6515629887580872, 0.41841262578964233, -0.599540114402771, 9.08066463470459, -2.624582052230835, -1.8483271598815918, 4.717617034912109, -3.6078672409057617, 3.431628704071045, -1.062255859375, -0.052734375, 0.031982421875, 0, 
254, 1041529165, -0.20170675218105316, -0.6517378091812134, 0.41829514503479004, -0.5996637344360352, 9.296539306640625, -2.4324264526367188, -1.649375557899475, 9.143309593200684, -4.806985855102539, 3.731097936630249, -1.0595703125, -0.046630859375, 0.03515625, 0, 
255, 1041537498, -0.2008628100156784, -0.6519949436187744, 0.4181136190891266, -0.5997940301895142, 9.235786437988281, -2.2378101348876953, -1.5408536195755005, 11.344815254211426, -6.157561302185059, 4.010869979858398, -1.06201171875, -0.047607421875, 0.034912109375, 0, 
256, 1041545831, -0.19979524612426758, -0.6524166464805603, 0.4177805483341217, -0.5999242067337036, 9.207501411437988, -1.9359502792358398, -1.3587650060653687, 15.052861213684082, -8.377111434936523, 3.5340607166290283, -1.06298828125, -0.044677734375, 0.037841796875, 0, 
257, 1041554164, -0.1986776888370514, -0.6528356671333313, 0.4173654019832611, -0.6001284718513489, 9.504472732543945, -1.6244447231292725, -1.317361831665039, 16.593111038208008, -7.761512756347656, 3.443450689315796, -1.0634765625, -0.046142578125, 0.03515625, 0, 
258, 1041562497, -0.1978045552968979, -0.6531217098236084, 0.4170551300048828, -0.6003214716911316, 9.729137420654297, -1.4100943803787231, -1.0084489583969116, 13.108521461486816, -5.637091636657715, 3.0869252681732178, -1.06103515625, -0.0458984375, 0.034912109375, 0, 
259, 1041570830, -0.1972164511680603, -0.6531968116760254, 0.4168985188007355, -0.6005418300628662, 9.948419570922852, -1.0989643335342407, -0.9189067482948303, 8.863472938537598, -2.4498863220214844, 3.4143261909484863, -1.0615234375, -0.0498046875, 0.039306640625, 0, 
260, 1041579163, -0.1968841552734375, -0.6531538963317871, 0.4167589247226715, -0.6007943749427795, 9.872471809387207, -1.1123093366622925, -1.0292925834655762, 6.289421558380127, 0.2477920949459076, 2.2025935649871826, -1.062744140625, -0.046630859375, 0.037353515625, 0, 
261, 1041587496, -0.19688250124454498, -0.653008759021759, 0.4166993200778961, -0.6009939312934875, 9.855070114135742, -1.3246947526931763, -1.1233906745910645, 2.0758159160614014, 2.278860092163086, 0.6546614766120911, -1.061279296875, -0.049560546875, 0.036376953125, 0, 
262, 1041595829, -0.19714322686195374, -0.6527788639068604, 0.41673851013183594, -0.6011310815811157, 9.819356918334961, -1.4061713218688965, -1.2938374280929565, -1.679935097694397, 3.674605131149292, -0.33188363909721375, -1.062744140625, -0.047119140625, 0.036376953125, 0, 
263, 1041604162, -0.19772762060165405, -0.6524018049240112, 0.4169381558895111, -0.6012100577354431, 9.586224555969238, -1.6094110012054443, -1.56600022315979, -6.648840427398682, 5.760756015777588, -0.8528003096580505, -1.062255859375, -0.045654296875, 0.035888671875, 0, 
264, 1041612495, -0.19867146015167236, -0.6519237756729126, 0.4173668920993805, -0.6011199951171875, 9.170317649841309, -1.9029797315597534, -1.84742271900177, -13.007113456726074, 6.542606353759766, -1.6793462038040161, -1.062744140625, -0.044677734375, 0.036376953125, 0, 
265, 1041620828, -0.1998434066772461, -0.6514227986335754, 0.4179233908653259, -0.6008877754211426, 9.08468246459961, -2.181065797805786, -1.861587643623352, -16.977296829223633, 6.390023231506348, -2.6428005695343018, -1.062744140625, -0.046630859375, 0.036865234375, 0, 
266, 1041629161, -0.2009689211845398, -0.6509364247322083, 0.4184485375881195, -0.6006738543510437, 9.101984977722168, -2.386418581008911, -1.9898074865341187, -16.16661834716797, 6.280354976654053, -2.607619285583496, -1.0615234375, -0.0458984375, 0.033935546875, 0, 
267, 1041637494, -0.20200777053833008, -0.650532066822052, 0.418855220079422, -0.6004802584648132, 8.918540954589844, -2.546367645263672, -2.084429979324341, -14.059412956237793, 5.582931041717529, -3.334064483642578, -1.062255859375, -0.04541015625, 0.031494140625, 0, 
268, 1041645827, -0.20312997698783875, -0.6501092314720154, 0.4192669689655304, -0.6002722978591919, 8.749628067016602, -2.7364907264709473, -2.0639402866363525, -14.990262031555176, 6.104130268096924, -3.944427013397217, -1.06201171875, -0.048583984375, 0.03515625, 0, 
269, 1041654160, -0.20441590249538422, -0.6495987772941589, 0.4197923243045807, -0.6000210046768188, 8.994405746459961, -3.0698447227478027, -2.0347282886505127, -17.874143600463867, 7.036591053009033, -3.862947940826416, -1.063232421875, -0.05029296875, 0.031005859375, 0, 
270, 1041662493, -0.2057536244392395, -0.6490527391433716, 0.4204234480857849, -0.5997128486633301, 9.005577087402344, -3.1791725158691406, -2.31431245803833, -19.650070190429688, 6.854307651519775, -3.3330023288726807, -1.06396484375, -0.046142578125, 0.029296875, 0, 
271, 1041670826, -0.20691895484924316, -0.6486215591430664, 0.42098721861839294, -0.599382758140564, 9.03693675994873, -3.202030897140503, -2.488041639328003, -17.355667114257812, 4.8782958984375, -3.208439350128174, -1.0595703125, -0.0478515625, 0.026123046875, 0, 
272, 1041679159, -0.2078450471162796, -0.6482844948768616, 0.4215293526649475, -0.5990459322929382, 9.310664176940918, -3.2626638412475586, -2.2617990970611572, -14.81644058227539, 2.7464098930358887, -2.0229997634887695, -1.061279296875, -0.04736328125, 0.0263671875, 0, 
273, 1041687492, -0.20857970416545868, -0.647982656955719, 0.4220985472202301, -0.5987161993980408, 9.137035369873047, -3.133676052093506, -2.0136754512786865, -13.190422058105469, 1.3079909086227417, -0.3652206063270569, -1.061279296875, -0.048583984375, 0.02734375, 0, 
274, 1041695825, -0.20907580852508545, -0.6477035880088806, 0.4227275550365448, -0.5984013080596924, 9.414153099060059, -2.8376548290252686, -2.0688557624816895, -11.406596183776855, -0.27948975563049316, 2.018171548843384, -1.063232421875, -0.048095703125, 0.028076171875, 0, 
275, 1041704158, -0.2094937562942505, -0.6473193764686584, 0.4234444200992584, -0.598163902759552, 9.565943717956543, -2.413846969604492, -2.3440966606140137, -11.283302307128906, 0.54659503698349, 4.298312664031982, -1.0625, -0.04638671875, 0.02587890625, 0, 
276, 1041712491, -0.21013960242271423, -0.6468487977981567, 0.4241117238998413, -0.5979737043380737, 9.030268669128418, -1.9008389711380005, -2.4660046100616455, -12.880223274230957, 3.1680843830108643, 2.6011133193969727, -1.063232421875, -0.048583984375, 0.028076171875, 0, 
277, 1041720824, -0.21116480231285095, -0.6463658213615417, 0.42479074001312256, -0.5976526737213135, 8.926321029663086, -1.6928614377975464, -2.3984193801879883, -17.15134620666504, 4.262964725494385, -0.7019326686859131, -1.062744140625, -0.0478515625, 0.0263671875, 0, 
278, 1041729157, -0.2123618721961975, -0.6459234356880188, 0.42551982402801514, -0.5971878170967102, 9.310932159423828, -1.72593092918396, -2.6692681312561035, -19.809913635253906, 3.533766984939575, -2.3411800861358643, -1.062744140625, -0.0458984375, 0.02587890625, 0, 
279, 1041737490, -0.213631272315979, -0.6455194354057312, 0.42604392766952515, -0.596798300743103, 9.144180297851562, -1.813905119895935, -2.8927419185638428, -18.218786239624023, 4.890117645263672, -4.741644859313965, -1.06005859375, -0.0458984375, 0.025634765625, 0, 
280, 1041745823, -0.2150978147983551, -0.6452527046203613, 0.42640262842178345, -0.5963036417961121, 8.972938537597656, -2.367969274520874, -2.367640495300293, -18.822834014892578, 4.490164279937744, -8.959733963012695, -1.060302734375, -0.048583984375, 0.02783203125, 0, 
281, 1041754156, -0.21666938066482544, -0.6450877785682678, 0.42664074897766113, -0.5957426428794861, 9.42324447631836, -2.8203768730163574, -2.0371816158294678, -18.848499298095703, 4.0245232582092285, -11.66221809387207, -1.06201171875, -0.04931640625, 0.025634765625, 0, 
282, 1041762489, -0.2180938422679901, -0.6450425386428833, 0.42665258049964905, -0.5952631831169128, 9.615056037902832, -3.003401756286621, -2.233435869216919, -14.860078811645508, 3.5926156044006348, -12.946002006530762, -1.061279296875, -0.05126953125, 0.024169921875, 0, 
283, 1041770822, -0.21921804547309875, -0.6451199650764465, 0.4262499213218689, -0.595054566860199, 9.61029052734375, -3.043586015701294, -1.9887551069259644, -6.844252109527588, 4.4613471031188965, -14.052484512329102, -1.061279296875, -0.05322265625, 0.02197265625, 0, 
284, 1041779155, -0.22003938257694244, -0.6453009247779846, 0.42537546157836914, -0.595180869102478, 9.441889762878418, -2.901670455932617, -1.348586916923523, 1.9772014617919922, 6.2433037757873535, -15.376535415649414, -1.061767578125, -0.0537109375, 0.0224609375, 0, 
285, 1041787488, -0.22058738768100739, -0.6455157399177551, 0.4243393838405609, -0.595484733581543, 9.713336944580078, -2.6173758506774902, -1.0890694856643677, 6.866421222686768, 6.4199910163879395, -14.218360900878906, -1.061767578125, -0.0595703125, 0.01953125, 0, 
286, 1041795821, -0.2212272733449936, -0.645592451095581, 0.423519492149353, -0.5957479476928711, 9.936034202575684, -2.360865354537964, -1.5294970273971558, 3.6240172386169434, 7.084603786468506, -12.383843421936035, -1.06494140625, -0.0595703125, 0.02001953125, 0, 
287, 1041804154, -0.22201311588287354, -0.6455447673797607, 0.4228290319442749, -0.5959975123405457, 9.611560821533203, -1.9166680574417114, -1.9953479766845703, 0.8068228960037231, 8.419655799865723, -11.73655891418457, -1.061767578125, -0.060791015625, 0.0185546875, 0, 
288, 1041812487, -0.22294731438159943, -0.6454867720603943, 0.4222199022769928, -0.596143364906311, 8.783072471618652, -1.7518404722213745, -1.8973051309585571, -1.8093130588531494, 8.216113090515137, -12.500542640686035, -1.062744140625, -0.06298828125, 0.018798828125, 0, 
289, 1041820820, -0.22425007820129395, -0.6452651023864746, 0.42199385166168213, -0.5960548520088196, 8.527240753173828, -1.8708149194717407, -1.6370487213134766, -10.085683822631836, 8.424842834472656, -11.874119758605957, -1.06396484375, -0.062255859375, 0.015869140625, 0, 
290, 1041829153, -0.22594034671783447, -0.6447628140449524, 0.42233744263648987, -0.5957164168357849, 8.623394012451172, -2.0830516815185547, -1.8091379404067993, -20.504535675048828, 9.016790390014648, -9.152737617492676, -1.061767578125, -0.067138671875, 0.0146484375, 0, 
291, 1041837486, -0.2278546392917633, -0.644087553024292, 0.42307811975479126, -0.5951922535896301, 8.540143966674805, -2.230428457260132, -2.3069305419921875, -27.363990783691406, 8.837955474853516, -7.02504301071167, -1.060791015625, -0.068115234375, 0.01513671875, 0, 
292, 1041845819, -0.22965814173221588, -0.6434933543205261, 0.4238135814666748, -0.5946182012557983, 8.672100067138672, -2.5246782302856445, -2.8157472610473633, -26.37349510192871, 7.119762897491455, -6.808229923248291, -1.06005859375, -0.06591796875, 0.011474609375, 0, 
293, 1041854152, -0.23118530213832855, -0.6431139707565308, 0.42438164353370667, -0.5940313339233398, 8.973674774169922, -2.9233591556549072, -2.848245859146118, -21.955276489257812, 4.155412197113037, -7.307769775390625, -1.062744140625, -0.068603515625, 0.012939453125, 0, 
294, 1041862485, -0.23230858147144318, -0.6430760025978088, 0.424664705991745, -0.5934316515922546, 9.199695587158203, -2.9003350734710693, -2.6766138076782227, -15.04593563079834, -0.18511414527893066, -8.576109886169434, -1.064453125, -0.06884765625, 0.011474609375, 0, 
295, 1041870818, -0.23297326266765594, -0.6432616114616394, 0.42466235160827637, -0.5929714441299438, 9.609148025512695, -2.511255979537964, -2.83223295211792, -7.131157398223877, -2.5516903400421143, -8.207954406738281, -1.061279296875, -0.07080078125, 0.010498046875, 0, 
296, 1041879151, -0.23315125703811646, -0.6436855792999268, 0.4242740869522095, -0.592719316482544, 9.371496200561523, -2.015653133392334, -2.705418109893799, 2.298813819885254, -4.248838424682617, -8.387458801269531, -1.06298828125, -0.070556640625, 0.011962890625, 0, 
297, 1041887484, -0.23282721638679504, -0.6444784998893738, 0.42352384328842163, -0.592521607875824, 9.263394355773926, -1.5682405233383179, -1.9327317476272583, 11.194819450378418, -8.54954719543457, -9.473990440368652, -1.061279296875, -0.071044921875, 0.01416015625, 0, 
298, 1041895817, -0.23223619163036346, -0.6453880071640015, 0.42265358567237854, -0.5923850536346436, 9.843448638916016, -1.2033605575561523, -1.6288310289382935, 15.266329765319824, -10.123157501220703, -8.84969425201416, -1.061279296875, -0.07470703125, 0.014892578125, 0, 
299, 1041904150, -0.23164421319961548, -0.6462250351905823, 0.4217529296875, -0.5923461318016052, 10.184228897094727, -0.8453997373580933, -1.3658716678619385, 15.857892990112305, -8.577544212341309, -8.37291145324707, -1.06201171875, -0.076904296875, 0.0166015625, 0, 
300, 1041912483, -0.23125217854976654, -0.6469160914421082, 0.42087915539741516, -0.5923665165901184, 10.344971656799316, -0.5868445038795471, -1.164376139640808, 13.741618156433105, -5.783618927001953, -8.731945991516113, -1.0615234375, -0.076904296875, 0.01806640625, 0, 
301, 1041920816, -0.2311626374721527, -0.6473912596702576, 0.42016175389289856, -0.5923913717269897, 10.36141586303711, -0.4293771982192993, -1.1052582263946533, 9.121243476867676, -2.737137794494629, -8.53054141998291, -1.061279296875, -0.08056640625, 0.02099609375, 0, 
302, 1041929149, -0.23139460384845734, -0.647619903087616, 0.4196551442146301, -0.5924099087715149, 10.586130142211914, -0.3166433572769165, -1.3436486721038818, 3.7172276973724365, 0.406536340713501, -7.8796563148498535, -1.061279296875, -0.078369140625, 0.01953125, 0, 
303, 1041937482, -0.231869637966156, -0.6476351618766785, 0.41923314332962036, -0.5925063490867615, 10.524031639099121, -0.2880256772041321, -1.4226527214050293, 0.636782705783844, 3.963866949081421, -7.608811378479004, -1.065673828125, -0.07763671875, 0.014404296875, 0, 
304, 1041945815, -0.23251494765281677, -0.6475281119346619, 0.418854296207428, -0.5926384925842285, 10.335867881774902, -0.4690324366092682, -1.1351031064987183, -1.41891348361969, 6.129742622375488, -7.812944412231445, -1.066162109375, -0.082763671875, 0.014892578125, 0, 
305, 1041954148, -0.23317298293113708, -0.6474029421806335, 0.41852760314941406, -0.5927475690841675, 9.975149154663086, -0.6192759871482849, -0.9570654630661011, -2.1409530639648438, 5.967656135559082, -7.389412879943848, -1.0615234375, -0.08203125, 0.013916015625, 0, 
306, 1041962481, -0.23386730253696442, -0.647215723991394, 0.418365478515625, -0.5927929878234863, 9.703116416931152, -0.8354475498199463, -1.3339309692382812, -4.377960205078125, 5.598901271820068, -6.09846830368042, -1.064697265625, -0.083740234375, 0.014892578125, 0, 
307, 1041970814, -0.23468679189682007, -0.6468588709831238, 0.41839122772216797, -0.5928403735160828, 9.63693904876709, -1.2329660654067993, -1.7103815078735352, -7.552178859710693, 7.098639965057373, -4.42683219909668, -1.062744140625, -0.086669921875, 0.01513671875, 0, 
308, 1041979147, -0.23551897704601288, -0.6464321613311768, 0.4186038076877594, -0.5928258895874023, 9.675566673278809, -1.4867323637008667, -1.8599189519882202, -9.774648666381836, 6.605898857116699, -2.703249216079712, -1.0654296875, -0.0849609375, 0.010986328125, 0, 
309, 1041987480, -0.23636537790298462, -0.6458997130393982, 0.41898033022880554, -0.5928033590316772, 9.550252914428711, -1.736883282661438, -2.137939691543579, -11.62061595916748, 6.927204132080078, -0.7387658357620239, -1.064208984375, -0.085205078125, 0.008544921875, 0, 
310, 1041995813, -0.23719187080860138, -0.6453091502189636, 0.4195314645767212, -0.5927266478538513, 9.182985305786133, -1.9967386722564697, -2.1848559379577637, -13.3735933303833, 6.255613327026367, 1.0919864177703857, -1.0634765625, -0.086669921875, 0.008056640625, 0, 
311, 1042004146, -0.23796258866786957, -0.644714891910553, 0.4202725291252136, -0.5925394892692566, 8.962663650512695, -2.1443471908569336, -2.3793411254882812, -15.072403907775879, 4.34919548034668, 2.9380555152893066, -1.06201171875, -0.084716796875, 0.0087890625, 0, 
312, 1042012479, -0.2385614961385727, -0.6441509127616882, 0.4210890829563141, -0.5923324227333069, 8.907978057861328, -2.214298963546753, -2.69565486907959, -14.18490982055664, 2.70141863822937, 4.722458839416504, -1.0654296875, -0.083251953125, 0.007080078125, 0, 
313, 1042020812, -0.2389814853668213, -0.6436251997947693, 0.4219026565551758, -0.5921553373336792, 8.895695686340332, -2.288125514984131, -2.7783820629119873, -12.269797325134277, 1.614901065826416, 6.071471214294434, -1.0625, -0.08203125, 0.00732421875, 0, 
314, 1042029145, -0.2391388863325119, -0.6432493329048157, 0.4225994646549225, -0.592003345489502, 8.77195930480957, -2.228848457336426, -2.944413661956787, -8.363164901733398, -0.5083017945289612, 6.346926212310791, -1.0634765625, -0.082275390625, 0.0078125, 0, 
315, 1042037478, -0.23895840346813202, -0.6431321501731873, 0.42303144931793213, -0.5918948650360107, 8.72937297821045, -2.0216023921966553, -2.817612886428833, -2.1060023307800293, -3.332181453704834, 5.434431076049805, -1.061767578125, -0.081298828125, 0.009521484375, 0, 
316, 1042045811, -0.23849143087863922, -0.6432264447212219, 0.4233136475086212, -0.5917789936065674, 8.733532905578613, -1.8249998092651367, -2.3836076259613037, 2.2899508476257324, -6.283530235290527, 5.15006160736084, -1.066650390625, -0.080810546875, 0.008544921875, 0, 
317, 1042054144, -0.2378644198179245, -0.6434290409088135, 0.4235381484031677, -0.5916505455970764, 8.997652053833008, -1.6596148014068604, -2.422576904296875, 4.4662652015686035, -8.020894050598145, 5.304055690765381, -1.059814453125, -0.078369140625, 0.01123046875, 0, 
318, 1042062477, -0.23717251420021057, -0.6436544060707092, 0.4236695468425751, -0.5915891528129578, 9.416230201721191, -1.5014469623565674, -2.4321069717407227, 6.2543182373046875, -7.6834001541137695, 5.059515953063965, -1.0634765625, -0.078369140625, 0.010986328125, 0, 
319, 1042070810, -0.23643557727336884, -0.643939197063446, 0.4236113131046295, -0.5916155576705933, 9.659788131713867, -1.4616949558258057, -2.1434333324432373, 8.90733814239502, -7.034310817718506, 3.724912405014038, -1.063232421875, -0.078369140625, 0.010498046875, 0, 
320, 1042079143, -0.2356838434934616, -0.6442410945892334, 0.4234194755554199, -0.5917242169380188, 9.745963096618652, -1.47963547706604, -1.8198411464691162, 10.653358459472656, -6.094882011413574, 2.793527126312256, -1.064208984375, -0.0751953125, 0.01416015625, 0, 
321, 1042087476, -0.23478004336357117, -0.6446181535720825, 0.4230489432811737, -0.5919380784034729, 9.805602073669434, -1.4875363111495972, -1.4428808689117432, 14.321318626403809, -6.081179141998291, 2.3891043663024902, -1.06396484375, -0.077392578125, 0.012451171875, 0, 
322, 1042095809, -0.2337554395198822, -0.6450142860412598, 0.4225521981716156, -0.592266857624054, 9.775469779968262, -1.3674362897872925, -1.3188064098358154, 17.138145446777344, -5.512415885925293, 2.475219488143921, -1.0595703125, -0.078125, 0.013671875, 0, 
323, 1042104142, -0.23277857899665833, -0.6454105377197266, 0.42207571864128113, -0.5925593376159668, 9.649888038635254, -1.1032209396362305, -1.1735063791275024, 16.349838256835938, -5.624887466430664, 2.1892879009246826, -1.06396484375, -0.074951171875, 0.011474609375, 0, 
324, 1042112475, -0.23182731866836548, -0.6458635330200195, 0.4215731918811798, -0.5927965641021729, 9.488221168518066, -0.7428280711174011, -1.260561466217041, 16.1849365234375, -6.3452630043029785, 1.2024991512298584, -1.062744140625, -0.07373046875, 0.01513671875, 0, 
325, 1042120808, -0.23106390237808228, -0.646213948726654, 0.421090692281723, -0.5930554866790771, 9.567131042480469, -0.703912615776062, -1.6898736953735352, 14.16301155090332, -4.291807651519775, 0.5595431327819824, -1.06396484375, -0.078857421875, 0.017333984375, 0, 
326, 1042129141, -0.23066020011901855, -0.646436870098114, 0.4207627475261688, -0.5932024717330933, 9.487035751342773, -0.9033392071723938, -2.0781428813934326, 8.6420259475708, -2.654736280441284, -0.6637160778045654, -1.062744140625, -0.07763671875, 0.015625, 0, 
327, 1042137474, -0.2303534299135208, -0.6466886401176453, 0.4203396737575531, -0.5933472514152527, 9.476449966430664, -0.9859377145767212, -2.3336188793182373, 8.64571475982666, -2.0508038997650146, -2.424771785736084, -1.06201171875, -0.076416015625, 0.01708984375, 0, 
328, 1042145807, -0.22991277277469635, -0.6471439599990845, 0.4196881949901581, -0.5934829711914062, 9.506551742553711, -1.3954607248306274, -2.34218168258667, 12.281949996948242, -3.838331937789917, -4.61790132522583, -1.061767578125, -0.07861328125, 0.01416015625, 0, 
329, 1042154140, -0.22930966317653656, -0.6477775573730469, 0.418823778629303, -0.5936355590820312, 9.87438678741455, -2.005978584289551, -1.9377524852752686, 16.140535354614258, -5.4105353355407715, -6.106935024261475, -1.065673828125, -0.079833984375, 0.017578125, 0, 
330, 1042162473, -0.2284480333328247, -0.6484494209289551, 0.41777297854423523, -0.5939745306968689, 10.011253356933594, -2.40527606010437, -1.489083170890808, 21.145788192749023, -4.961466312408447, -5.345269680023193, -1.060546875, -0.078369140625, 0.0185546875, 0, 
331, 1042170806, -0.2272094190120697, -0.6492322087287903, 0.4165452718734741, -0.5944565534591675, 9.897578239440918, -2.7992472648620605, -1.4073375463485718, 27.137096405029297, -6.203118324279785, -3.9750373363494873, -1.0634765625, -0.080322265625, 0.016845703125, 0, 
332, 1042179139, -0.22559139132499695, -0.6502197980880737, 0.4151238799095154, -0.5949875116348267, 9.831868171691895, -2.99444580078125, -1.4327466487884521, 33.012901306152344, -9.00612735748291, -3.6793088912963867, -1.06640625, -0.079345703125, 0.01708984375, 0, 
333, 1042187472, -0.2237793356180191, -0.651240348815918, 0.4136088490486145, -0.5956103205680847, 9.813471794128418, -2.9044692516326904, -1.5682474374771118, 36.15597915649414, -9.275718688964844, -2.7779436111450195, -1.06298828125, -0.0830078125, 0.020751953125, 0, 
334, 1042195805, -0.22185947000980377, -0.6522193551063538, 0.4121103882789612, -0.5962958335876465, 9.579806327819824, -2.7060434818267822, -1.571305513381958, 37.19822692871094, -9.035125732421875, -1.3730272054672241, -1.064697265625, -0.08447265625, 0.02490234375, 0, 
335, 1042204138, -0.21991464495658875, -0.6530983448028564, 0.4107603132724762, -0.5969852805137634, 9.586577415466309, -2.317405939102173, -1.3699270486831665, 35.93309783935547, -8.778122901916504, 0.7917881608009338, -1.0615234375, -0.083740234375, 0.021728515625, 0, 
336, 1042212471, -0.21779416501522064, -0.6540666222572327, 0.40938979387283325, -0.5976437330245972, 9.368582725524902, -1.8203740119934082, -1.5494083166122437, 37.76451110839844, -10.71452522277832, 1.4033931493759155, -1.060546875, -0.085693359375, 0.023681640625, 0, 
337, 1042220804, -0.21590188145637512, -0.6548593044281006, 0.4081868529319763, -0.5982844233512878, 9.284844398498535, -2.068415880203247, -1.616131067276001, 33.71709060668945, -8.6561861038208, 2.0153942108154297, -1.062255859375, -0.084716796875, 0.024169921875, 0, 
338, 1042229137, -0.21447409689426422, -0.6553617715835571, 0.407408744096756, -0.5987781882286072, 9.72079849243164, -1.9804706573486328, -1.6117600202560425, 24.343143463134766, -6.238004684448242, 3.16727876663208, -1.061279296875, -0.0810546875, 0.0283203125, 0, 
339, 1042237470, -0.21326103806495667, -0.6557120084762573, 0.4067632853984833, -0.5992664098739624, 9.604016304016113, -1.9579392671585083, -1.7270464897155762, 20.845272064208984, -4.231294631958008, 3.4761993885040283, -1.0615234375, -0.0830078125, 0.02587890625, 0, 
340, 1042245803, -0.21202144026756287, -0.6560724377632141, 0.4062068462371826, -0.5996889472007751, 9.301541328430176, -2.2876319885253906, -1.7569427490234375, 20.005569458007812, -5.309884548187256, 4.203271389007568, -1.062744140625, -0.0830078125, 0.0283203125, 0, 
341, 1042254136, -0.21092355251312256, -0.6564199924468994, 0.4057103097438812, -0.6000319719314575, 9.275972366333008, -2.548556327819824, -1.8631670475006104, 17.75926399230957, -5.310677528381348, 3.461726427078247, -1.061279296875, -0.078125, 0.028564453125, 0, 
342, 1042262469, -0.20996002852916718, -0.6567246913909912, 0.40526047348976135, -0.6003404259681702, 9.184208869934082, -2.6983566284179688, -2.1752583980560303, 15.834938049316406, -4.647369861602783, 2.8657593727111816, -1.060546875, -0.08349609375, 0.0283203125, 0, 
343, 1042270802, -0.20914268493652344, -0.6569372415542603, 0.4049850106239319, -0.600579023361206, 9.052289962768555, -2.7409164905548096, -2.3756814002990723, 12.429323196411133, -4.214080810546875, 3.5911290645599365, -1.06103515625, -0.080322265625, 0.032958984375, 0, 
344, 1042279135, -0.20831532776355743, -0.6572067141532898, 0.4046575427055359, -0.6007923483848572, 8.896770477294922, -2.884957790374756, -2.5906665325164795, 12.963213920593262, -4.81105899810791, 2.7696681022644043, -1.05810546875, -0.0791015625, 0.02734375, 0, 
345, 1042287468, -0.20720253884792328, -0.6575981974601746, 0.40416160225868225, -0.6010825634002686, 8.78775691986084, -2.7923314571380615, -2.6458916664123535, 17.713489532470703, -6.235735893249512, 3.1861939430236816, -1.0625, -0.081298828125, 0.03076171875, 0, 
346, 1042295801, -0.2060266137123108, -0.658079206943512, 0.4035685062408447, -0.6013588309288025, 8.940773010253906, -2.9685556888580322, -2.7705471515655518, 19.26448631286621, -7.168581485748291, 2.252017021179199, -1.065185546875, -0.078857421875, 0.03271484375, 0, 
347, 1042304134, -0.20465829968452454, -0.6586756706237793, 0.4029008448123932, -0.6016207337379456, 8.58133316040039, -3.050136089324951, -2.4897844791412354, 21.86871337890625, -9.112370491027832, 2.524885892868042, -1.063232421875, -0.08154296875, 0.03271484375, 0, 
348, 1042312467, -0.20309853553771973, -0.6593560576438904, 0.4020460844039917, -0.6019758582115173, 8.55370044708252, -3.2207860946655273, -2.4598679542541504, 25.90275764465332, -9.495458602905273, 2.173586845397949, -1.060791015625, -0.076904296875, 0.0341796875, 0, 
349, 1042320800, -0.20138174295425415, -0.6601427793502808, 0.40103116631507874, -0.6023671627044678, 8.454127311706543, -3.405120849609375, -2.4895784854888916, 29.15269660949707, -10.464524269104004, 1.5654278993606567, -1.061767578125, -0.080322265625, 0.037841796875, 0, 
350, 1042329133, -0.19948133826255798, -0.661058247089386, 0.3998492658138275, -0.6027812957763672, 8.610591888427734, -3.1284210681915283, -2.4351561069488525, 32.68196487426758, -11.877638816833496, 0.8932076692581177, -1.064208984375, -0.079345703125, 0.038330078125, 0, 
351, 1042337466, -0.197329580783844, -0.6619478464126587, 0.39850422739982605, -0.6034035682678223, 8.992744445800781, -2.965618371963501, -2.6457371711730957, 37.39118194580078, -10.69636344909668, 2.2308874130249023, -1.060791015625, -0.081298828125, 0.03857421875, 0, 
352, 1042345799, -0.19511456787586212, -0.6628996133804321, 0.39700862765312195, -0.604064404964447, 8.817097663879395, -2.713930368423462, -2.383023500442505, 39.59857940673828, -10.807839393615723, 1.1241463422775269, -1.060546875, -0.08154296875, 0.04052734375, 0, 
353, 1042354132, -0.19284407794475555, -0.6638581156730652, 0.39553335309028625, -0.6047084331512451, 8.914667129516602, -2.4318783283233643, -2.0467610359191895, 39.87436294555664, -11.366973876953125, 1.7056928873062134, -1.064697265625, -0.076171875, 0.0419921875, 0, 
354, 1042362465, -0.19043996930122375, -0.6647936105728149, 0.3940994441509247, -0.6053785681724548, 9.017218589782715, -2.3152472972869873, -1.7520711421966553, 40.81575012207031, -11.782054901123047, 3.3712618350982666, -1.059326171875, -0.07958984375, 0.043212890625, 0, 
355, 1042370798, -0.18827877938747406, -0.6655573844909668, 0.392939031124115, -0.6059691309928894, 9.026978492736816, -2.2264671325683594, -1.5043621063232422, 35.452693939208984, -10.465144157409668, 4.586836814880371, -1.0625, -0.078369140625, 0.04443359375, 0, 
356, 1042379131, -0.18662913143634796, -0.666103720664978, 0.3921370804309845, -0.6063986420631409, 9.274632453918457, -2.1126248836517334, -1.3444265127182007, 26.33761215209961, -8.305397033691406, 4.34874963760376, -1.058349609375, -0.0791015625, 0.04931640625, 0, 
357, 1042387464, -0.18533234298229218, -0.6664395332336426, 0.3916749656200409, -0.6067259907722473, 9.725942611694336, -2.0085692405700684, -1.1578962802886963, 19.256059646606445, -6.46027135848999, 5.390889644622803, -1.06494140625, -0.078369140625, 0.044677734375, 0, 
358, 1042395797, -0.1842319816350937, -0.6665495038032532, 0.3915678560733795, -0.6070094108581543, 10.390128135681152, -1.9387036561965942, -0.9374541640281677, 13.606196403503418, -4.81967830657959, 8.11060905456543, -1.0625, -0.0751953125, 0.044677734375, 0, 
359, 1042404130, -0.18352080881595612, -0.6663900017738342, 0.3919126093387604, -0.6071773767471313, 10.508009910583496, -1.9303301572799683, -0.6529090404510498, 4.985747337341309, -2.673204183578491, 10.17403793334961, -1.058837890625, -0.073486328125, 0.048095703125, 0, 
360, 1042412463, -0.18320049345493317, -0.6659842133522034, 0.39267170429229736, -0.6072288155555725, 10.198060035705566, -1.9166063070297241, -0.4632168114185333, -3.327493906021118, -0.6306992769241333, 11.729230880737305, -1.061767578125, -0.071044921875, 0.048583984375, 0, 
361, 1042420796, -0.1832689344882965, -0.6653014421463013, 0.3938167691230774, -0.6072151064872742, 9.923198699951172, -1.7594071626663208, -0.3189002275466919, -11.123303413391113, 2.207947254180908, 13.360206604003906, -1.061767578125, -0.068115234375, 0.043701171875, 0, 
362, 1042429129, -0.18358850479125977, -0.6644228100776672, 0.39527490735054016, -0.6071332693099976, 9.611867904663086, -1.7222280502319336, -0.6873278021812439, -16.93541145324707, 3.7974913120269775, 15.005592346191406, -1.061279296875, -0.06689453125, 0.047607421875, 0, 
363, 1042437462, -0.1840323656797409, -0.6634567379951477, 0.39696747064590454, -0.6069509387016296, 9.363370895385742, -1.8232250213623047, -0.9343218207359314, -20.71161651611328, 3.666936159133911, 16.336177825927734, -1.061767578125, -0.068115234375, 0.043212890625, 0, 
364, 1042445795, -0.1845419704914093, -0.6624259948730469, 0.39879196882247925, -0.6067260503768921, 9.224924087524414, -1.9796100854873657, -1.1510497331619263, -22.89252471923828, 3.870288848876953, 17.23078727722168, -1.0595703125, -0.064697265625, 0.0458984375, 0, 
365, 1042454128, -0.18529298901557922, -0.6613337993621826, 0.4007883071899414, -0.6063729524612427, 9.189227104187012, -2.107219696044922, -1.2279213666915894, -27.36416244506836, 4.083988666534424, 16.81519889831543, -1.064697265625, -0.060791015625, 0.0458984375, 0, 
366, 1042462461, -0.1861727237701416, -0.6602663397789001, 0.40281519293785095, -0.6059235334396362, 9.358729362487793, -2.1932592391967773, -1.1507649421691895, -29.27753448486328, 3.651094675064087, 15.617412567138672, -1.0634765625, -0.05859375, 0.04296875, 0, 
367, 1042470794, -0.18686443567276, -0.6594128608703613, 0.40460556745529175, -0.6054468154907227, 9.531457901000977, -2.2608301639556885, -1.3935905694961548, -25.139263153076172, 1.1544216871261597, 13.794032096862793, -1.05908203125, -0.052978515625, 0.039306640625, 0, 
368, 1042479127, -0.18730168044567108, -0.6587721705436707, 0.40597274899482727, -0.6050938963890076, 9.53540325164795, -2.4882655143737793, -1.8801404237747192, -18.13551139831543, 0.20683501660823822, 11.196318626403809, -1.0625, -0.052734375, 0.04345703125, 0, 
369, 1042487460, -0.18766304850578308, -0.6583712100982666, 0.40694284439086914, -0.6047666668891907, 9.21930980682373, -2.696200132369995, -1.830992341041565, -13.297209739685059, -0.9987375140190125, 6.96494722366333, -1.06298828125, -0.050048828125, 0.043701171875, 0, 
370, 1042495793, -0.1878538578748703, -0.6582157611846924, 0.407483845949173, -0.6045121550559998, 8.918621063232422, -2.755998373031616, -1.535955548286438, -7.229618072509766, -2.185098886489868, 3.307450771331787, -1.063232421875, -0.051025390625, 0.04248046875, 0, 
371, 1042504126, -0.1878426969051361, -0.6582654118537903, 0.40763407945632935, -0.6043602824211121, 8.988383293151855, -2.7390987873077393, -1.563996434211731, -1.1985924243927002, -3.0687904357910156, 0.6173927783966064, -1.058837890625, -0.052490234375, 0.043212890625, 0, 
372, 1042512459, -0.18772295117378235, -0.65840744972229, 0.4075164794921875, -0.6043221354484558, 9.35108470916748, -2.7315263748168945, -1.9030671119689941, 3.035017967224121, -2.7400317192077637, -1.1826093196868896, -1.059814453125, -0.052490234375, 0.041748046875, 0, 
373, 1042520792, -0.1874798685312271, -0.6586654782295227, 0.4070248007774353, -0.6044477820396423, 9.3430814743042, -2.681274175643921, -2.073901414871216, 8.538058280944824, -1.9824142456054688, -3.7609386444091797, -1.060546875, -0.05126953125, 0.044677734375, 0, 
374, 1042529125, -0.1871217042207718, -0.6591513752937317, 0.4061710834503174, -0.6046032905578613, 9.192374229431152, -2.667429208755493, -1.7460482120513916, 13.283096313476562, -3.279468059539795, -7.293193340301514, -1.06298828125, -0.0537109375, 0.044921875, 0, 
375, 1042537458, -0.18672552704811096, -0.6596633195877075, 0.40512391924858093, -0.604870080947876, 9.328071594238281, -2.722628116607666, -1.8953118324279785, 15.873968124389648, -2.211111068725586, -8.55819320678711, -1.060546875, -0.053466796875, 0.041015625, 0, 
376, 1042545791, -0.18633286654949188, -0.6601670384407043, 0.40408363938331604, -0.6051374077796936, 9.36217212677002, -2.5860488414764404, -1.9620625972747803, 15.818842887878418, -2.126532793045044, -8.507885932922363, -1.059326171875, -0.05419921875, 0.043212890625, 0, 
377, 1042554124, -0.18590950965881348, -0.6606835126876831, 0.4029199481010437, -0.6054796576499939, 9.138211250305176, -2.1446964740753174, -1.8345942497253418, 17.410165786743164, -1.3903154134750366, -9.20083999633789, -1.0615234375, -0.05419921875, 0.04345703125, 0, 
378, 1042562457, -0.18553924560546875, -0.6611939072608948, 0.401709645986557, -0.605840265750885, 8.962553977966309, -1.7818642854690552, -1.4974421262741089, 17.56541633605957, -0.7776996493339539, -10.036890983581543, -1.061767578125, -0.057861328125, 0.047119140625, 0, 
379, 1042570790, -0.18552827835083008, -0.6615318059921265, 0.4008849859237671, -0.6060209274291992, 9.299489974975586, -1.75320303440094, -1.363160252571106, 9.721538543701172, -0.014728187583386898, -9.026150703430176, -1.061279296875, -0.056884765625, 0.04638671875, 0, 
380, 1042579123, -0.18595992028713226, -0.6615989208221436, 0.4005979597568512, -0.6060052514076233, 9.931441307067871, -1.9366214275360107, -1.7493213415145874, -0.6290856599807739, 1.5646840333938599, -6.836465358734131, -1.060791015625, -0.062255859375, 0.046142578125, 0, 
381, 1042587456, -0.1866883933544159, -0.6614605188369751, 0.40059563517570496, -0.6059337258338928, 10.025611877441406, -1.9774593114852905, -1.9423097372055054, -6.614839553833008, 3.669675827026367, -5.693136692047119, -1.064453125, -0.0576171875, 0.04345703125, 0, 
382, 1042595789, -0.1875704973936081, -0.6612789630889893, 0.40069305896759033, -0.6057952046394348, 9.500323295593262, -2.1660940647125244, -1.593680739402771, -9.244754791259766, 4.015416145324707, -6.038288116455078, -1.06103515625, -0.061279296875, 0.044189453125, 0, 
383, 1042604122, -0.18853282928466797, -0.661056399345398, 0.4009001851081848, -0.6056022047996521, 9.182483673095703, -2.2786600589752197, -1.4550895690917969, -11.28483772277832, 3.9919142723083496, -5.600706100463867, -1.061279296875, -0.0634765625, 0.04150390625, 0, 
384, 1042612455, -0.18966428935527802, -0.6606454849243164, 0.40143007040023804, -0.6053463220596313, 9.210250854492188, -2.6277239322662354, -1.627812147140503, -16.35333824157715, 5.11351203918457, -3.2233221530914307, -1.063720703125, -0.06005859375, 0.041015625, 0, 
385, 1042620788, -0.19093212485313416, -0.6600461602210999, 0.40234804153442383, -0.6049920320510864, 9.058767318725586, -2.731131076812744, -2.0935041904449463, -21.937448501586914, 5.521010398864746, -0.006762160919606686, -1.06201171875, -0.060302734375, 0.0439453125, 0, 
386, 1042629121, -0.19204017519950867, -0.6595755815505981, 0.4033360183238983, -0.6044967174530029, 9.035408020019531, -2.918919086456299, -2.188344955444336, -21.43172264099121, 2.1082446575164795, 0.8326038718223572, -1.063232421875, -0.06201171875, 0.04248046875, 0, 
387, 1042637454, -0.19302569329738617, -0.6591391563415527, 0.4042370915412903, -0.6040564775466919, 9.396965026855469, -3.0558481216430664, -2.279599905014038, -19.27767562866211, 1.8668938875198364, 1.0577657222747803, -1.06103515625, -0.0634765625, 0.0400390625, 0, 
388, 1042645787, -0.19389207661151886, -0.6587923169136047, 0.4050498306751251, -0.6036128997802734, 9.071134567260742, -2.8978238105773926, -2.414320230484009, -17.169509887695312, 0.6731551885604858, 0.7029701471328735, -1.060791015625, -0.06494140625, 0.038818359375, 0, 
389, 1042654120, -0.19496449828147888, -0.6584213376045227, 0.4057270884513855, -0.6032171249389648, 8.828815460205078, -2.8053958415985107, -2.4282474517822266, -17.771007537841797, 2.8054378032684326, -1.9438133239746094, -1.060791015625, -0.063720703125, 0.037353515625, 0, 
390, 1042662453, -0.1961013376712799, -0.6580556035041809, 0.4064348638057709, -0.6027711033821106, 9.089232444763184, -2.9044227600097656, -2.511702299118042, -18.811124801635742, 2.593275785446167, -2.3958282470703125, -1.061767578125, -0.06396484375, 0.041748046875, 0, 
391, 1042670786, -0.19710038602352142, -0.6577810645103455, 0.40701135993003845, -0.6023557186126709, 9.255959510803223, -2.930746078491211, -2.634627342224121, -16.104326248168945, 1.6877480745315552, -2.8456268310546875, -1.0634765625, -0.0625, 0.039794921875, 0, 
392, 1042679119, -0.19805169105529785, -0.6575201153755188, 0.40735670924186707, -0.6020950675010681, 9.284299850463867, -3.037492036819458, -2.481891393661499, -12.809950828552246, 3.3457577228546143, -4.21926736831665, -1.064453125, -0.064697265625, 0.03515625, 0, 
393, 1042687452, -0.19910897314548492, -0.657243013381958, 0.40764614939689636, -0.6018529534339905, 9.117523193359375, -2.954998731613159, -2.3619818687438965, -13.190476417541504, 4.358698844909668, -5.463812351226807, -1.06201171875, -0.064697265625, 0.036376953125, 0, 
394, 1042695785, -0.2000681310892105, -0.6570906043052673, 0.40767902135849, -0.6016791462898254, 8.429634094238281, -2.740532159805298, -2.155935525894165, -9.511937141418457, 4.130680561065674, -7.480472087860107, -1.06005859375, -0.06494140625, 0.0400390625, 0, 
395, 1042704118, -0.20089249312877655, -0.6570927500724792, 0.40756887197494507, -0.6014766097068787, 8.607271194458008, -2.8307926654815674, -1.9097756147384644, -6.818112850189209, 2.2073066234588623, -8.602835655212402, -1.061767578125, -0.0654296875, 0.0341796875, 0, 
396, 1042712451, -0.20155245065689087, -0.6571715474128723, 0.40749284625053406, -0.6012210845947266, 9.506810188293457, -2.9012606143951416, -1.9379409551620483, -5.7265238761901855, 0.10264905542135239, -7.511580944061279, -1.059814453125, -0.06591796875, 0.034423828125, 0, 
397, 1042720784, -0.20203042030334473, -0.6572574973106384, 0.4072851836681366, -0.6011075973510742, 9.814474105834961, -2.890704393386841, -2.1546127796173096, -2.307586431503296, 0.6838103532791138, -6.814513206481934, -1.060791015625, -0.070068359375, 0.03466796875, 0, 
398, 1042729117, -0.20237243175506592, -0.6574429869651794, 0.40686652064323425, -0.601073145866394, 9.582613945007324, -2.7859532833099365, -1.9924110174179077, 1.513417363166809, 0.38797885179519653, -7.963888645172119, -1.064453125, -0.06591796875, 0.03857421875, 0, 
399, 1042737450, -0.20265653729438782, -0.6576749086380005, 0.4063335657119751, -0.601084291934967, 9.501230239868164, -2.6317262649536133, -1.719520092010498, 3.3179147243499756, 0.40683096647262573, -8.64154052734375, -1.06201171875, -0.070068359375, 0.0361328125, 0, 
400, 1042745783, -0.20289035141468048, -0.6578864455223083, 0.40578123927116394, -0.6011471748352051, 9.384547233581543, -2.3335330486297607, -1.6204091310501099, 4.212286949157715, 0.8189896941184998, -8.154024124145508, -1.06494140625, -0.074951171875, 0.034912109375, 0, 
401, 1042754116, -0.2031526267528534, -0.6580453515052795, 0.4052986204624176, -0.6012102961540222, 9.389084815979004, -2.127739667892456, -1.932149887084961, 3.252546548843384, 1.2015380859375, -7.468969821929932, -1.0634765625, -0.0751953125, 0.03515625, 0, 
402, 1042762449, -0.20359255373477936, -0.6581051349639893, 0.4049491286277771, -0.6012314558029175, 9.302494049072266, -2.1414713859558105, -1.9459632635116577, 0.015381351113319397, 2.279756784439087, -7.291553974151611, -1.06201171875, -0.072265625, 0.036376953125, 0, 
403, 1042770782, -0.20420926809310913, -0.6581056714057922, 0.4046928286552429, -0.6011942028999329, 8.970654487609863, -2.0969133377075195, -1.3683850765228271, -2.924467086791992, 2.9632086753845215, -7.732079982757568, -1.06298828125, -0.077880859375, 0.031494140625, 0, 
404, 1042779115, -0.2050178200006485, -0.6579875946044922, 0.4045853018760681, -0.6011207699775696, 8.965961456298828, -2.0197649002075195, -1.1306767463684082, -6.3480024337768555, 4.2676777839660645, -7.4250807762146, -1.06005859375, -0.0732421875, 0.036865234375, 0, 
405, 1042787448, -0.20611637830734253, -0.6576759815216064, 0.4047127962112427, -0.6010000705718994, 8.907134056091309, -1.8618797063827515, -1.8126639127731323, -11.672536849975586, 6.362103462219238, -6.7639007568359375, -1.060791015625, -0.073486328125, 0.034423828125, 0, 
406, 1042795781, -0.20740535855293274, -0.6573501229286194, 0.4049723446369171, -0.6007383465766907, 8.712178230285645, -1.9146887063980103, -2.1677722930908203, -15.360310554504395, 5.9171462059021, -7.45209264755249, -1.06103515625, -0.07861328125, 0.028076171875, 0, 
407, 1042804114, -0.20873764157295227, -0.6570718288421631, 0.40529197454452515, -0.6003654599189758, 9.140589714050293, -2.1447601318359375, -2.298417806625366, -16.7335147857666, 4.571681022644043, -7.851212978363037, -1.060302734375, -0.07666015625, 0.029296875, 0, 
408, 1042812447, -0.21017685532569885, -0.6567511558532715, 0.40569067001342773, -0.5999446511268616, 9.713908195495605, -2.2881546020507812, -2.4671554565429688, -18.73954963684082, 4.874570846557617, -7.91917085647583, -1.06103515625, -0.0830078125, 0.02734375, 0, 
409, 1042820780, -0.21161721646785736, -0.656377375125885, 0.4060268998146057, -0.5996201634407043, 9.820735931396484, -2.2948036193847656, -2.4561989307403564, -17.854230880737305, 6.354189872741699, -7.920027732849121, -1.062744140625, -0.081787109375, 0.029296875, 0, 
410, 1042829113, -0.2127123773097992, -0.6562495231628418, 0.4059624969959259, -0.599416196346283, 9.281373023986816, -2.1354455947875977, -2.276662826538086, -10.04236888885498, 4.66856575012207, -9.709179878234863, -1.059814453125, -0.08203125, 0.028564453125, 0, 
411, 1042837446, -0.2134244292974472, -0.6564304828643799, 0.4054688513278961, -0.5992990136146545, 9.128273010253906, -1.7476069927215576, -2.1943471431732178, -1.766831636428833, 2.033693552017212, -11.877999305725098, -1.063720703125, -0.085205078125, 0.028076171875, 0, 
412, 1042845779, -0.21396705508232117, -0.6567126512527466, 0.4047980308532715, -0.5992497801780701, 9.45301628112793, -1.3635188341140747, -2.17451810836792, 2.0057742595672607, 1.3778667449951172, -12.463850975036621, -1.060546875, -0.08447265625, 0.02734375, 0, 
413, 1042854112, -0.21446716785430908, -0.6569696664810181, 0.40410393476486206, -0.5992578268051147, 9.876058578491211, -1.3712639808654785, -2.118657112121582, 2.8241748809814453, 1.9226047992706299, -12.018982887268066, -1.0634765625, -0.088134765625, 0.02783203125, 0, 
414, 1042862445, -0.21496622264385223, -0.657235860824585, 0.40334761142730713, -0.5992966890335083, 9.965235710144043, -1.2417460680007935, -2.153104543685913, 3.5465216636657715, 2.3150148391723633, -12.52750015258789, -1.0634765625, -0.088134765625, 0.02783203125, 0, 
415, 1042870778, -0.21534353494644165, -0.6576291918754578, 0.4024255871772766, -0.5993496775627136, 9.812480926513672, -0.8594727516174316, -1.9511313438415527, 6.464418411254883, 1.1991817951202393, -13.685673713684082, -1.060546875, -0.090576171875, 0.02197265625, 0, 
416, 1042879111, -0.21573075652122498, -0.6580477952957153, 0.40147653222084045, -0.5993874669075012, 9.792195320129395, -0.6095258593559265, -1.8242547512054443, 6.589659690856934, 0.9994547367095947, -14.196282386779785, -1.063720703125, -0.0888671875, 0.023681640625, 0, 
417, 1042887444, -0.21627773344516754, -0.6584024429321289, 0.4006015658378601, -0.5993861556053162, 9.75642204284668, -0.5531559586524963, -1.8877862691879272, 4.180641174316406, 1.8142950534820557, -14.609696388244629, -1.061767578125, -0.094482421875, 0.025634765625, 0, 
418, 1042895777, -0.2168896347284317, -0.6587403416633606, 0.39977145195007324, -0.5993480086326599, 9.797544479370117, -0.6154559254646301, -1.8417903184890747, 2.917769193649292, 1.8631798028945923, -14.753814697265625, -1.062744140625, -0.095947265625, 0.02587890625, 0, 
419, 1042904110, -0.21750761568546295, -0.6590848565101624, 0.3989894390106201, -0.5992664098739624, 9.771073341369629, -0.7198923826217651, -1.6147011518478394, 2.266693592071533, 1.2915338277816772, -14.522759437561035, -1.06298828125, -0.098876953125, 0.023681640625, 0, 
420, 1042912443, -0.21812817454338074, -0.6594136953353882, 0.39826732873916626, -0.5991596579551697, 9.8219575881958, -0.966181218624115, -1.5913738012313843, 1.545601725578308, 1.0394387245178223, -14.001538276672363, -1.062255859375, -0.1015625, 0.025634765625, 0, 
421, 1042920776, -0.21881785988807678, -0.6597011089324951, 0.39761966466903687, -0.599021852016449, 9.872563362121582, -1.2532572746276855, -1.7280611991882324, 0.010207273997366428, 1.2477848529815674, -13.740426063537598, -1.0625, -0.10400390625, 0.026611328125, 0, 
422, 1042929109, -0.2195056974887848, -0.6599729657173157, 0.39697369933128357, -0.5988991856575012, 9.642136573791504, -1.3940155506134033, -1.7340832948684692, 0.04967881739139557, 1.5049519538879395, -13.600008964538574, -1.060791015625, -0.10791015625, 0.0263671875, 0, 
423, 1042937442, -0.22019720077514648, -0.6602542400360107, 0.396356999874115, -0.5987434983253479, 9.459877967834473, -1.4554224014282227, -1.46561861038208, -0.3791675865650177, 1.051221251487732, -13.4917631149292, -1.061279296875, -0.106201171875, 0.02197265625, 0, 
424, 1042945775, -0.22084473073482513, -0.6604881882667542, 0.3958338797092438, -0.5985931754112244, 9.573064804077148, -1.469089388847351, -1.264328956604004, -0.8626874685287476, 0.9754027724266052, -12.030852317810059, -1.06396484375, -0.112060546875, 0.0283203125, 0, 
425, 1042954108, -0.22153060138225555, -0.6606064438819885, 0.3954662084579468, -0.5984521508216858, 9.584396362304688, -1.4415948390960693, -1.2938848733901978, -2.798816204071045, 1.738809585571289, -10.247359275817871, -1.0625, -0.1083984375, 0.023681640625, 0, 
426, 1042962441, -0.2223454713821411, -0.6605705618858337, 0.39528483152389526, -0.5983093976974487, 9.482069969177246, -1.3656141757965088, -1.618220567703247, -5.974380016326904, 3.135874032974243, -8.813155174255371, -1.064697265625, -0.114990234375, 0.024658203125, 0, 
427, 1042970774, -0.22323757410049438, -0.6604427695274353, 0.3952356278896332, -0.5981508493423462, 9.494489669799805, -1.3455320596694946, -1.7968130111694336, -8.122774124145508, 3.7491812705993652, -7.768709182739258, -1.063720703125, -0.111083984375, 0.02099609375, 0, 
428, 1042979107, -0.22416165471076965, -0.6602494716644287, 0.39531761407852173, -0.5979644060134888, 9.4757719039917, -1.3164515495300293, -1.9420703649520874, -9.852285385131836, 3.819915294647217, -6.595947265625, -1.063232421875, -0.11669921875, 0.022216796875, 0, 
429, 1042987440, -0.22511236369609833, -0.6600302457809448, 0.39550042152404785, -0.5977283120155334, 9.45158576965332, -1.25274658203125, -1.9982504844665527, -11.269444465637207, 3.4025824069976807, -5.885024070739746, -1.061767578125, -0.1162109375, 0.020751953125, 0, 
430, 1042995773, -0.2262076735496521, -0.6596746444702148, 0.39590272307395935, -0.5974410176277161, 9.375240325927734, -1.3093959093093872, -1.9835524559020996, -15.090475082397461, 4.179897785186768, -4.524242877960205, -1.058837890625, -0.116455078125, 0.023193359375, 0, 
431, 1043004106, -0.22726210951805115, -0.6592965126037598, 0.39643871784210205, -0.5971028208732605, 9.319292068481445, -1.3284344673156738, -1.983201503753662, -16.16522216796875, 3.249537467956543, -2.983213424682617, -1.062255859375, -0.11474609375, 0.02099609375, 0, 
432, 1043012439, -0.22814470529556274, -0.6589610576629639, 0.3969722390174866, -0.5967819094657898, 9.396971702575684, -1.3877133131027222, -2.1015853881835938, -14.3588285446167, 2.1429765224456787, -1.8034985065460205, -1.06494140625, -0.117431640625, 0.01904296875, 0, 
433, 1043020772, -0.22901466488838196, -0.6586250066757202, 0.3975290060043335, -0.5964487791061401, 9.33474063873291, -1.5002566576004028, -2.0316474437713623, -14.4964017868042, 1.8809173107147217, -1.4910560846328735, -1.05859375, -0.1171875, 0.021484375, 0, 
434, 1043029105, -0.22986944019794464, -0.6582605838775635, 0.398101270198822, -0.5961405634880066, 9.502424240112305, -1.6032353639602661, -1.888744831085205, -14.446864128112793, 2.2217659950256348, -1.0245438814163208, -1.06396484375, -0.116455078125, 0.017578125, 0, 
435, 1043037438, -0.23071856796741486, -0.6578284502029419, 0.3986532986164093, -0.5959206819534302, 9.581706047058105, -1.6714733839035034, -1.4720666408538818, -13.952433586120605, 3.595944404602051, -0.4794473350048065, -1.064208984375, -0.11767578125, 0.0205078125, 0, 
436, 1043045771, -0.23151728510856628, -0.6573761701583862, 0.3991961181163788, -0.595746636390686, 9.437004089355469, -1.6879454851150513, -1.0991894006729126, -13.241050720214844, 3.9406354427337646, 0.07350005954504013, -1.064208984375, -0.114990234375, 0.016845703125, 0, 
437, 1043054104, -0.23222000896930695, -0.656960129737854, 0.3997718095779419, -0.5955460667610168, 9.223779678344727, -1.735068440437317, -1.1529067754745483, -12.667494773864746, 2.7604079246520996, 0.9064494371414185, -1.062255859375, -0.118896484375, 0.017578125, 0, 
438, 1043062437, -0.2328127771615982, -0.6566224694252014, 0.40047022700309753, -0.5952176451683044, 9.424260139465332, -1.6607580184936523, -1.8348907232284546, -13.136491775512695, -0.01900576613843441, 2.044464588165283, -1.065185546875, -0.1162109375, 0.02001953125, 0, 
439, 1043070770, -0.23319198191165924, -0.6563769578933716, 0.40112805366516113, -0.5948967933654785, 9.902596473693848, -1.276227593421936, -2.3218419551849365, -10.539362907409668, -1.7679970264434814, 2.976400136947632, -1.06201171875, -0.113037109375, 0.01806640625, 0, 
440, 1043079103, -0.23337428271770477, -0.6561734080314636, 0.401594340801239, -0.594735324382782, 9.99698543548584, -1.0202163457870483, -2.4337081909179688, -6.182277679443359, -1.128204584121704, 3.10402250289917, -1.064453125, -0.1162109375, 0.01416015625, 0, 
