PacketCounter,SampleTimeFine,Quat_W,Quat_X,Quat_Y,Quat_Z,Acc_X,Acc_Y,Acc_Z,Gyr_X,Gyr_Y,Gyr_Z,Mag_X,Mag_Y,Mag_Z,Status,
0, 3629242319, 0.2934217154979706, 0.5982413291931152, -0.43130674958229065, 0.6082901358604431, 0, 0, 0, 0, 0, 0, -1.0380859375, 0.18408203125, -0.1455078125, 0, 
1, 3629250652, 0.2934191823005676, 0.5982500910758972, -0.43129125237464905, 0.6082937717437744, 9.690299987792969, -1.5333621501922607, -0.6741411685943604, 0.854913592338562, -0.8962165713310242, -0.2014559656381607, -1.039306640625, 0.184326171875, -0.148681640625, 0, 
2, 3629258985, 0.293412983417511, 0.5982547998428345, -0.4313122034072876, 0.6082773208618164, 9.691802024841309, -1.5386265516281128, -0.6917299628257751, 0.6916355490684509, -1.130266547203064, -0.07480636984109879, -1.039306640625, 0.183837890625, -0.149169921875, 0, 
3, 3629267318, 0.29342901706695557, 0.5982597470283508, -0.4313203692436218, 0.6082589030265808, 9.699435234069824, -1.5362588167190552, -0.7131098508834839, 0.33389440178871155, -1.029282569885254, -0.22717265784740448, -1.03515625, 0.18603515625, -0.145751953125, 0, 
4, 3629275651, 0.2934466004371643, 0.5982420444488525, -0.43136394023895264, 0.6082369685173035, 9.708698272705078, -1.5655854940414429, -0.7415710687637329, 0.18551109731197357, -0.9377115368843079, 0.024295102804899216, -1.0361328125, 0.18115234375, -0.146484375, 0, 
5, 3629283984, 0.2934648394584656, 0.598228931427002, -0.4313810467720032, 0.6082289218902588, 9.707273483276367, -1.5426751375198364, -0.7331163287162781, 0.24848367273807526, -0.8200013041496277, -0.025447741150856018, -1.0361328125, 0.1845703125, -0.145263671875, 0, 
6, 3629292317, 0.29347705841064453, 0.5982128977775574, -0.43140190839767456, 0.6082239151000977, 9.712122917175293, -1.5539050102233887, -0.7205058932304382, 0.5253992080688477, -0.7528150677680969, -0.0593353696167469, -1.03662109375, 0.184814453125, -0.144775390625, 0, 
7, 3629300650, 0.29348519444465637, 0.5982177257537842, -0.4314061403274536, 0.6082122921943665, 9.714354515075684, -1.537911295890808, -0.7622427344322205, 0.49975934624671936, -1.0070364475250244, -0.166915163397789, -1.03759765625, 0.183349609375, -0.14501953125, 0, 
8, 3629308983, 0.2935206890106201, 0.5982093811035156, -0.4314257800579071, 0.6081894636154175, 9.678454399108887, -1.5179262161254883, -0.7586376667022705, 0.2703966498374939, -0.8212947845458984, -0.3833426237106323, -1.037353515625, 0.18359375, -0.14794921875, 0, 
9, 3629317316, 0.2935575842857361, 0.5981993675231934, -0.4314296841621399, 0.6081786155700684, 9.695063591003418, -1.5285124778747559, -0.7364352345466614, 0.2201671451330185, -0.7077981233596802, -0.31818002462387085, -1.037109375, 0.184326171875, -0.14990234375, 0, 
10, 3629325649, 0.2936110496520996, 0.5981806516647339, -0.4314360022544861, 0.6081667542457581, 9.684534072875977, -1.5366311073303223, -0.7503549456596375, 0.25530990958213806, -0.4837760627269745, -0.5375403761863708, -1.03857421875, 0.18115234375, -0.147216796875, 0, 
11, 3629333982, 0.29365187883377075, 0.5981680750846863, -0.4314122796058655, 0.6081764101982117, 9.687030792236328, -1.536831259727478, -0.7350189685821533, 0.4616069197654724, -0.3702537417411804, -0.47450369596481323, -1.039794921875, 0.18212890625, -0.148193359375, 0, 
12, 3629342315, 0.2936849594116211, 0.598158597946167, -0.4313891530036926, 0.6081860661506653, 9.690085411071777, -1.5335909128189087, -0.7201980352401733, 0.8348575830459595, -0.38662123680114746, -0.5748602747917175, -1.03662109375, 0.1826171875, -0.14599609375, 0, 
13, 3629350648, 0.2937082350254059, 0.5981600284576416, -0.43134093284606934, 0.6082077622413635, 9.695342063903809, -1.5741547346115112, -0.7151126265525818, 0.9906176924705505, -0.40045294165611267, -0.5709925293922424, -1.034912109375, 0.18408203125, -0.148193359375, 0, 
14, 3629358981, 0.2937184274196625, 0.5981669425964355, -0.43130725622177124, 0.6082198023796082, 9.687073707580566, -1.573961615562439, -0.7150552272796631, 1.1919455528259277, -0.5978105664253235, -0.5572888851165771, -1.03662109375, 0.1845703125, -0.145751953125, 0, 
15, 3629367314, 0.2937173843383789, 0.5982002019882202, -0.4312477111816406, 0.6082298755645752, 9.712050437927246, -1.577356219291687, -0.7306227684020996, 1.3501391410827637, -0.8634045720100403, -0.6965278387069702, -1.037353515625, 0.183349609375, -0.14453125, 0, 
16, 3629375647, 0.29372817277908325, 0.5982303023338318, -0.43120038509368896, 0.6082286238670349, 9.730424880981445, -1.5765761137008667, -0.7187297940254211, 1.316277027130127, -0.8416069149971008, -0.86752849817276, -1.036865234375, 0.186767578125, -0.143798828125, 0, 
17, 3629383980, 0.2937333583831787, 0.5982624888420105, -0.431138813495636, 0.6082381010055542, 9.737994194030762, -1.590538501739502, -0.7411831021308899, 1.3040721416473389, -0.8119072914123535, -0.759884774684906, -1.034912109375, 0.185546875, -0.146728515625, 0, 
18, 3629392313, 0.2937330901622772, 0.5982855558395386, -0.4310794472694397, 0.608257532119751, 9.730151176452637, -1.5814179182052612, -0.7622109651565552, 1.6014916896820068, -0.6300333738327026, -0.7483454942703247, -1.036376953125, 0.18408203125, -0.14697265625, 0, 
19, 3629400646, 0.2937217950820923, 0.598315417766571, -0.4309980869293213, 0.6082913875579834, 9.703507423400879, -1.5993480682373047, -0.7262052297592163, 1.733327865600586, -0.6077232360839844, -0.6725017428398132, -1.03564453125, 0.179931640625, -0.146484375, 0, 
20, 3629408979, 0.2937087118625641, 0.598336935043335, -0.43092986941337585, 0.6083248257637024, 9.70150089263916, -1.5965272188186646, -0.7177287340164185, 1.8572241067886353, -0.5433803200721741, -0.64875727891922, -1.033935546875, 0.185546875, -0.14697265625, 0, 
21, 3629417312, 0.2936774790287018, 0.5983836650848389, -0.4308379292488098, 0.6083590388298035, 9.681306838989258, -1.5818679332733154, -0.729389488697052, 2.137725591659546, -0.8366633653640747, -0.6972706913948059, -1.039794921875, 0.18408203125, -0.145263671875, 0, 
22, 3629425645, 0.2936433255672455, 0.5984333753585815, -0.43076521158218384, 0.6083780527114868, 9.682474136352539, -1.5527114868164062, -0.7291908860206604, 2.097447156906128, -1.0031174421310425, -0.7353718280792236, -1.03759765625, 0.182373046875, -0.1455078125, 0, 
23, 3629433978, 0.29360705614089966, 0.5984900593757629, -0.4306698441505432, 0.6084074974060059, 9.669187545776367, -1.5321711301803589, -0.708457350730896, 2.168539524078369, -0.9667580127716064, -0.758924126625061, -1.037353515625, 0.181640625, -0.148681640625, 0, 
24, 3629442311, 0.29356199502944946, 0.598563015460968, -0.43058544397354126, 0.6084171533584595, 9.71249771118164, -1.5141180753707886, -0.712790846824646, 2.323582410812378, -1.2911111116409302, -0.9139926433563232, -1.037109375, 0.180419921875, -0.144775390625, 0, 
25, 3629450644, 0.29351651668548584, 0.5986499190330505, -0.43047642707824707, 0.6084306240081787, 9.74039077758789, -1.4678013324737549, -0.7033258080482483, 2.2908987998962402, -1.332708716392517, -1.0297691822052002, -1.038818359375, 0.182373046875, -0.143798828125, 0, 
26, 3629458977, 0.2934766411781311, 0.5987191200256348, -0.43040233850479126, 0.6084342002868652, 9.76086139678955, -1.4583649635314941, -0.6955192685127258, 2.1434507369995117, -1.321195125579834, -0.8764039278030396, -1.03466796875, 0.18408203125, -0.146240234375, 0, 
27, 3629467310, 0.2934529185295105, 0.5987662672996521, -0.4303275942802429, 0.6084520816802979, 9.715428352355957, -1.4366343021392822, -0.6676875352859497, 1.7389247417449951, -0.9828309416770935, -0.6791742444038391, -1.037109375, 0.178466796875, -0.146728515625, 0, 
28, 3629475643, 0.29343923926353455, 0.5987889766693115, -0.4303017854690552, 0.608454704284668, 9.726030349731445, -1.4320542812347412, -0.661109447479248, 1.3297888040542603, -0.9794756174087524, -0.4261312782764435, -1.0380859375, 0.179443359375, -0.145751953125, 0, 
29, 3629483976, 0.29345542192459106, 0.5987876653671265, -0.43028712272644043, 0.6084584593772888, 9.709769248962402, -1.4306615591049194, -0.6482549905776978, 0.6949782371520996, -0.7121013402938843, -0.2943843901157379, -1.034423828125, 0.181396484375, -0.1513671875, 0, 
30, 3629492309, 0.2935047149658203, 0.598753035068512, -0.4303165078163147, 0.6084480285644531, 9.700371742248535, -1.4473706483840942, -0.6653860807418823, 0.040483295917510986, -0.45731648802757263, -0.21226514875888824, -1.036376953125, 0.1826171875, -0.14892578125, 0, 
31, 3629500642, 0.2935793995857239, 0.5987036228179932, -0.4303509593009949, 0.6084362268447876, 9.681966781616211, -1.4525206089019775, -0.6876314282417297, -0.5527424216270447, -0.2774149775505066, -0.1511111706495285, -1.040283203125, 0.181884765625, -0.144287109375, 0, 
32, 3629508975, 0.2936660051345825, 0.5986493825912476, -0.43039458990097046, 0.6084170341491699, 9.686773300170898, -1.4807032346725464, -0.6759012341499329, -0.5153199434280396, -0.20338982343673706, -0.32572340965270996, -1.037841796875, 0.17822265625, -0.1474609375, 0, 
33, 3629517308, 0.29375821352005005, 0.5985959768295288, -0.4304231107234955, 0.608404815196991, 9.692817687988281, -1.486983060836792, -0.732007622718811, -0.6249104142189026, -0.12622694671154022, -0.33070534467697144, -1.038330078125, 0.1826171875, -0.147705078125, 0, 
34, 3629525641, 0.2938491106033325, 0.5985440015792847, -0.43047815561294556, 0.6083731651306152, 9.694305419921875, -1.4931201934814453, -0.7360489964485168, -0.7116275429725647, -0.3455744981765747, -0.332255095243454, -1.034912109375, 0.181640625, -0.14794921875, 0, 
35, 3629533974, 0.2939395606517792, 0.5984998941421509, -0.43049943447113037, 0.6083579063415527, 9.717830657958984, -1.5109164714813232, -0.762321412563324, -0.5105301141738892, -0.21394288539886475, -0.441730260848999, -1.04052734375, 0.1826171875, -0.146240234375, 0, 
36, 3629542307, 0.294028103351593, 0.5984595417976379, -0.4305298328399658, 0.6083332300186157, 9.735227584838867, -1.510451316833496, -0.7692165374755859, -0.3974560797214508, -0.29902055859565735, -0.5556495785713196, -1.0390625, 0.18212890625, -0.145751953125, 0, 
37, 3629550640, 0.29411959648132324, 0.5984269976615906, -0.43054503202438354, 0.6083102822303772, 9.756914138793945, -1.4933061599731445, -0.7663198113441467, -0.5029866695404053, -0.33646857738494873, -0.5979642868041992, -1.037109375, 0.18408203125, -0.1455078125, 0, 
38, 3629558973, 0.29423123598098755, 0.5983834862709045, -0.4306044578552246, 0.6082571744918823, 9.73652172088623, -1.5169963836669922, -0.7820703983306885, -1.0113141536712646, -0.4882713854312897, -0.6061480641365051, -1.03857421875, 0.18212890625, -0.147216796875, 0, 
39, 3629567306, 0.2943468987941742, 0.5983463525772095, -0.43063271045684814, 0.6082175970077515, 9.710270881652832, -1.508820652961731, -0.7951100468635559, -0.9119436144828796, -0.3482511341571808, -0.7335148453712463, -1.035888671875, 0.181640625, -0.1474609375, 0, 
40, 3629575639, 0.29443520307540894, 0.5983206033706665, -0.4306528568267822, 0.6081860065460205, 9.702953338623047, -1.5337913036346436, -0.8086646795272827, -0.2923864722251892, -0.43779847025871277, -0.7517521381378174, -1.0361328125, 0.17822265625, -0.149169921875, 0, 
41, 3629583972, 0.2944946885108948, 0.5983157157897949, -0.43062424659729004, 0.6081821918487549, 9.68868350982666, -1.5248503684997559, -0.7911475896835327, 0.3559225797653198, -0.4229678511619568, -0.7780323624610901, -1.038330078125, 0.18359375, -0.148193359375, 0, 
42, 3629592305, 0.2945367395877838, 0.5983049273490906, -0.4306006133556366, 0.6081891655921936, 9.677467346191406, -1.54383385181427, -0.7872057557106018, 0.7436196804046631, -0.34279534220695496, -0.6566209197044373, -1.0390625, 0.18359375, -0.147216796875, 0, 
43, 3629600638, 0.2945687770843506, 0.5983035564422607, -0.43054577708244324, 0.6082137823104858, 9.7011079788208, -1.5431042909622192, -0.7432733774185181, 0.988542914390564, -0.2758652865886688, -0.670811116695404, -1.03955078125, 0.18115234375, -0.146728515625, 0, 
44, 3629608971, 0.29459062218666077, 0.5983107686042786, -0.43048471212387085, 0.6082392930984497, 9.681000709533691, -1.5632038116455078, -0.6949917078018188, 1.4059268236160278, -0.3091381788253784, -0.828133761882782, -1.0380859375, 0.18408203125, -0.14599609375, 0, 
45, 3629617304, 0.2945975065231323, 0.5983449220657349, -0.4304006099700928, 0.6082618832588196, 9.680588722229004, -1.559749722480774, -0.7066570520401001, 1.5777214765548706, -0.6221440434455872, -0.9199864864349365, -1.037841796875, 0.1806640625, -0.147216796875, 0, 
46, 3629625637, 0.294599711894989, 0.5983816385269165, -0.4303330183029175, 0.6082725524902344, 9.73184871673584, -1.5447278022766113, -0.6936643123626709, 1.6535654067993164, -0.7661730051040649, -0.9522604942321777, -1.035888671875, 0.17919921875, -0.147216796875, 0, 
47, 3629633970, 0.29461637139320374, 0.5984060764312744, -0.43025264143943787, 0.6082973480224609, 9.763016700744629, -1.5343990325927734, -0.7198033928871155, 1.4319252967834473, -0.47816649079322815, -0.9018258452415466, -1.03515625, 0.1826171875, -0.14599609375, 0, 
48, 3629642303, 0.294650137424469, 0.5984113812446594, -0.43021121621131897, 0.6083049774169922, 9.757464408874512, -1.5446277856826782, -0.7008069157600403, 1.0295770168304443, -0.4488126337528229, -0.8282875418663025, -1.03857421875, 0.181396484375, -0.145263671875, 0, 
49, 3629650636, 0.2946937680244446, 0.5984112620353699, -0.4301639497280121, 0.608317494392395, 9.729018211364746, -1.5562082529067993, -0.7192684412002563, 0.7723075151443481, -0.34935250878334045, -0.7603840827941895, -1.03662109375, 0.18115234375, -0.146484375, 0, 
50, 3629658969, 0.2947349548339844, 0.5984066128730774, -0.4301483631134033, 0.6083130836486816, 9.693275451660156, -1.5322891473770142, -0.6718236207962036, 0.6405736207962036, -0.5254247784614563, -0.6671227216720581, -1.036865234375, 0.181640625, -0.148681640625, 0, 
51, 3629667302, 0.29476869106292725, 0.598415195941925, -0.4301326274871826, 0.6082992553710938, 9.689519882202148, -1.5168819427490234, -0.7053060531616211, 0.45827698707580566, -0.8238561749458313, -0.5780107975006104, -1.03466796875, 0.182373046875, -0.1494140625, 0, 
52, 3629675635, 0.2948265075683594, 0.5984068512916565, -0.4301517903804779, 0.6082658767700195, 9.720863342285156, -1.4996721744537354, -0.7318145036697388, 0.027893900871276855, -0.7760984897613525, -0.6147031784057617, -1.039794921875, 0.18310546875, -0.148193359375, 0, 
53, 3629683968, 0.2948930859565735, 0.5983974933624268, -0.430167555809021, 0.6082319021224976, 9.699069023132324, -1.4852091073989868, -0.7197548151016235, -0.27393144369125366, -0.7706170678138733, -0.5683158040046692, -1.041259765625, 0.18017578125, -0.14892578125, 0, 
54, 3629692301, 0.29496872425079346, 0.5983701944351196, -0.4302130937576294, 0.6081898212432861, 9.706214904785156, -1.4856741428375244, -0.740147590637207, -0.46907350420951843, -0.6896376013755798, -0.47076401114463806, -1.03662109375, 0.17822265625, -0.149658203125, 0, 
55, 3629700634, 0.29503849148750305, 0.5983585119247437, -0.4302298426628113, 0.6081554889678955, 9.693288803100586, -1.4884203672409058, -0.74001145362854, -0.33293384313583374, -0.7379974126815796, -0.5735796093940735, -1.03515625, 0.180908203125, -0.14599609375, 0, 
56, 3629708967, 0.29509010910987854, 0.5983444452285767, -0.4302615523338318, 0.6081218719482422, 9.689584732055664, -1.4891432523727417, -0.6695919632911682, -0.05149741470813751, -0.8168762922286987, -0.4271557629108429, -1.038330078125, 0.185302734375, -0.1494140625, 0, 
57, 3629717300, 0.29514366388320923, 0.5983371734619141, -0.4302824139595032, 0.6080884337425232, 9.686471939086914, -1.4744511842727661, -0.705255925655365, -0.19929155707359314, -0.8823975324630737, -0.4275912642478943, -1.0361328125, 0.182861328125, -0.15087890625, 0, 
58, 3629725633, 0.2952124774456024, 0.5983098149299622, -0.43033063411712646, 0.6080478429794312, 9.690156936645508, -1.4606822729110718, -0.7043190598487854, -0.4252474904060364, -0.7291859984397888, -0.3845464885234833, -1.03857421875, 0.179443359375, -0.145263671875, 0, 
59, 3629733966, 0.295292466878891, 0.5982661843299866, -0.43035799264907837, 0.6080323457717896, 9.69464111328125, -1.4640581607818604, -0.6939473748207092, -0.5759873390197754, -0.2912082374095917, -0.30122339725494385, -1.036376953125, 0.1806640625, -0.148681640625, 0, 
60, 3629742299, 0.29537659883499146, 0.5982165336608887, -0.4304036498069763, 0.608008086681366, 9.711078643798828, -1.454809308052063, -0.6768446564674377, -0.5244642496109009, -0.30635905265808105, -0.3369680643081665, -1.037841796875, 0.183349609375, -0.14892578125, 0, 
61, 3629750632, 0.2954369783401489, 0.5981864333152771, -0.4304155707359314, 0.6079999208450317, 9.706064224243164, -1.4609109163284302, -0.6674818396568298, -0.15043239295482635, -0.40127256512641907, -0.3169761300086975, -1.0390625, 0.18212890625, -0.146240234375, 0, 
62, 3629758965, 0.2954910397529602, 0.5981656908988953, -0.43044769763946533, 0.6079712510108948, 9.7272367477417, -1.4691009521484375, -0.657997190952301, -0.07412759214639664, -0.7085665464401245, -0.38536617159843445, -1.03564453125, 0.18310546875, -0.146484375, 0, 
63, 3629767298, 0.2955700159072876, 0.5981478691101074, -0.4304761290550232, 0.6079304218292236, 9.737100601196289, -1.4629709720611572, -0.6705718636512756, -0.5377067923545837, -0.7401617169380188, -0.5454679131507874, -1.037841796875, 0.18310546875, -0.148681640625, 0, 
64, 3629775631, 0.2956615686416626, 0.5981155037879944, -0.4305303394794464, 0.6078794598579407, 9.721643447875977, -1.4929622411727905, -0.6765942573547363, -0.7454767227172852, -0.6604374647140503, -0.5391284227371216, -1.03662109375, 0.181396484375, -0.150634765625, 0, 
65, 3629783964, 0.2957746088504791, 0.598077654838562, -0.43057218194007874, 0.6078318357467651, 9.715048789978027, -1.5001156330108643, -0.6390206813812256, -1.0490821599960327, -0.4808303713798523, -0.6301358342170715, -1.03955078125, 0.18408203125, -0.146240234375, 0, 
66, 3629792297, 0.2959049642086029, 0.5980260968208313, -0.43062448501586914, 0.6077821254730225, 9.729032516479492, -1.4767042398452759, -0.5856530666351318, -1.1199183464050293, -0.2532351315021515, -0.7601920366287231, -1.036865234375, 0.177978515625, -0.147216796875, 0, 
67, 3629800630, 0.29603296518325806, 0.5979800224304199, -0.4306526184082031, 0.6077451705932617, 9.715377807617188, -1.4382150173187256, -0.625809371471405, -1.0281553268432617, -0.17983755469322205, -0.7757270932197571, -1.034423828125, 0.180419921875, -0.14306640625, 0, 
68, 3629808963, 0.2961614727973938, 0.5979263782501221, -0.4306962490081787, 0.6077045202255249, 9.738545417785645, -1.4497313499450684, -0.616289496421814, -0.9863273501396179, -0.13657507300376892, -0.7674280405044556, -1.03662109375, 0.181884765625, -0.14453125, 0, 
69, 3629817296, 0.2962837815284729, 0.5978882312774658, -0.4307238459587097, 0.6076629161834717, 9.743051528930664, -1.4403389692306519, -0.6377468705177307, -0.9934224486351013, -0.31431224942207336, -0.7979345917701721, -1.036865234375, 0.1796875, -0.147705078125, 0, 
70, 3629825629, 0.296414315700531, 0.5978310108184814, -0.4307812452316284, 0.6076148152351379, 9.716743469238281, -1.4470487833023071, -0.6775315999984741, -1.1765642166137695, -0.21198338270187378, -0.6793663501739502, -1.033935546875, 0.1806640625, -0.14794921875, 0, 
71, 3629833962, 0.2965530753135681, 0.5977692604064941, -0.43082690238952637, 0.6075754761695862, 9.722580909729004, -1.4631638526916504, -0.6748703718185425, -1.363714575767517, -0.07414039969444275, -0.636552095413208, -1.03857421875, 0.182861328125, -0.150634765625, 0, 
72, 3629842295, 0.29668301343917847, 0.5977177619934082, -0.4308900535106659, 0.6075179576873779, 9.718846321105957, -1.462012529373169, -0.6500503420829773, -1.2522159814834595, -0.3651181161403656, -0.7012280821800232, -1.041259765625, 0.181396484375, -0.14990234375, 0, 
73, 3629850628, 0.29681938886642456, 0.5976772904396057, -0.430947482585907, 0.6074504256248474, 9.729950904846191, -1.4576845169067383, -0.6702266931533813, -1.5144288539886475, -0.5440592169761658, -0.7594749331474304, -1.035400390625, 0.17919921875, -0.14697265625, 0, 
74, 3629858961, 0.29698294401168823, 0.5976074934005737, -0.4310252070426941, 0.6073840856552124, 9.73719596862793, -1.4908379316329956, -0.6851145029067993, -1.777359127998352, -0.14437463879585266, -0.7887263894081116, -1.039306640625, 0.182373046875, -0.143310546875, 0, 
75, 3629867294, 0.2971642017364502, 0.5975285768508911, -0.4310760796070099, 0.6073368787765503, 9.73237419128418, -1.529268503189087, -0.6705014705657959, -1.9130245447158813, 0.2426564246416092, -0.8761861324310303, -1.0361328125, 0.183349609375, -0.14990234375, 0, 
76, 3629875627, 0.2973420023918152, 0.5974436402320862, -0.4311298131942749, 0.6072953343391418, 9.712301254272461, -1.5642762184143066, -0.6614377498626709, -1.6084715127944946, 0.3679612874984741, -0.9139670729637146, -1.037109375, 0.179443359375, -0.144775390625, 0, 
77, 3629883960, 0.2974996864795685, 0.5973843932151794, -0.4311545491218567, 0.6072587966918945, 9.674971580505371, -1.555385708808899, -0.637368381023407, -1.300985336303711, 0.12194937467575073, -0.9689480662345886, -1.03759765625, 0.18115234375, -0.146240234375, 0, 
78, 3629892293, 0.29762983322143555, 0.5973469018936157, -0.43118172883987427, 0.6072126626968384, 9.676222801208496, -1.5677388906478882, -0.658169150352478, -0.8286205530166626, -0.23992854356765747, -1.034123420715332, -1.03857421875, 0.181396484375, -0.152099609375, 0, 
79, 3629900626, 0.2977249324321747, 0.5973460078239441, -0.4311797618865967, 0.6071681380271912, 9.690314292907715, -1.561186671257019, -0.6702857613563538, -0.39415186643600464, -0.6878702044487, -1.04508638381958, -1.037841796875, 0.1796875, -0.148193359375, 0, 
80, 3629908959, 0.29780668020248413, 0.5973581075668335, -0.43117421865463257, 0.6071200966835022, 9.714232444763184, -1.5655356645584106, -0.6920233368873596, 0.03364429622888565, -0.822780430316925, -1.1997451782226562, -1.035888671875, 0.18359375, -0.1474609375, 0, 
81, 3629917292, 0.2978954315185547, 0.597375750541687, -0.4311431050300598, 0.6070811748504639, 9.70783805847168, -1.5471956729888916, -0.6903852224349976, -0.021964209154248238, -0.7109103798866272, -1.3176348209381104, -1.038818359375, 0.1806640625, -0.1494140625, 0, 
82, 3629925625, 0.29797402024269104, 0.5973998308181763, -0.43112677335739136, 0.6070306301116943, 9.701537132263184, -1.5334694385528564, -0.6934896111488342, 0.18389740586280823, -0.9168359637260437, -1.3431849479675293, -1.03759765625, 0.182373046875, -0.1455078125, 0, 
83, 3629933958, 0.29802727699279785, 0.5974401831626892, -0.43105942010879517, 0.6070125699043274, 9.71241283416748, -1.5013526678085327, -0.6590715646743774, 0.831655740737915, -0.7978577613830566, -1.3700284957885742, -1.037841796875, 0.18115234375, -0.148681640625, 0, 
84, 3629942291, 0.29805493354797363, 0.5974957942962646, -0.4309857487678528, 0.6069965958595276, 9.690997123718262, -1.4694567918777466, -0.700930655002594, 1.4154809713363647, -0.9636843204498291, -1.4346020221710205, -1.035400390625, 0.17919921875, -0.14697265625, 0, 
85, 3629950624, 0.29804855585098267, 0.5975836515426636, -0.43088462948799133, 0.6069850325584412, 9.704951286315918, -1.43585205078125, -0.7106137871742249, 1.8351448774337769, -1.3556846380233765, -1.4039674997329712, -1.0390625, 0.1806640625, -0.147216796875, 0, 
86, 3629958957, 0.29802951216697693, 0.597679853439331, -0.4307760000228882, 0.6069767475128174, 9.742196083068848, -1.4076405763626099, -0.7065891623497009, 2.3030142784118652, -1.3732303380966187, -1.5418745279312134, -1.03662109375, 0.17822265625, -0.149658203125, 0, 
87, 3629967290, 0.2980174124240875, 0.5977720022201538, -0.43063807487487793, 0.6069899201393127, 9.748217582702637, -1.4041744470596313, -0.724241316318512, 2.3455724716186523, -1.068894863128662, -1.5837664604187012, -1.039306640625, 0.179443359375, -0.14501953125, 0, 
88, 3629975623, 0.2980163097381592, 0.5978401303291321, -0.4305203855037689, 0.6070067882537842, 9.755491256713867, -1.4006397724151611, -0.7097015380859375, 2.2638885974884033, -0.7902119755744934, -1.4964733123779297, -1.03759765625, 0.179931640625, -0.145751953125, 0, 
89, 3629983956, 0.29803162813186646, 0.5979052186012268, -0.43039026856422424, 0.6070273518562317, 9.732658386230469, -1.39767587184906, -0.7129167318344116, 2.0451812744140625, -0.6603350043296814, -1.5623401403427124, -1.03955078125, 0.17919921875, -0.1474609375, 0, 
90, 3629992289, 0.29804980754852295, 0.5979509353637695, -0.4302830100059509, 0.6070495247840881, 9.726001739501953, -1.3876664638519287, -0.6979596018791199, 1.9591175317764282, -0.4867216944694519, -1.4172611236572266, -1.037353515625, 0.1796875, -0.149169921875, 0, 
91, 3630000622, 0.29807257652282715, 0.5979946255683899, -0.43016117811203003, 0.6070815920829773, 9.727622985839844, -1.375956416130066, -0.7044059038162231, 1.8603746891021729, -0.3731737732887268, -1.378429889678955, -1.039794921875, 0.1796875, -0.1494140625, 0, 
92, 3630008955, 0.2981116771697998, 0.598021924495697, -0.43006908893585205, 0.607100784778595, 9.738677024841309, -1.4019311666488647, -0.7043826580047607, 1.5671172142028809, -0.2956394851207733, -1.370412826538086, -1.040283203125, 0.176513671875, -0.145263671875, 0, 
93, 3630017288, 0.29817840456962585, 0.5980390310287476, -0.42997297644615173, 0.6071192026138306, 9.72336196899414, -1.405338168144226, -0.6975154876708984, 1.0542947053909302, -0.1003565788269043, -1.4290181398391724, -1.0380859375, 0.177734375, -0.150390625, 0, 
94, 3630025621, 0.29826250672340393, 0.598023533821106, -0.4299083650112152, 0.6071388125419617, 9.73325252532959, -1.4299319982528687, -0.6736761927604675, 0.794079601764679, 0.21747764945030212, -1.2640880346298218, -1.034912109375, 0.1787109375, -0.1474609375, 0, 
95, 3630033954, 0.29832613468170166, 0.5980017185211182, -0.4298350214958191, 0.6071810126304626, 9.7124662399292, -1.4421061277389526, -0.6728751063346863, 0.9423348307609558, 0.29611334204673767, -0.8947820663452148, -1.037109375, 0.177001953125, -0.146240234375, 0, 
96, 3630042287, 0.2983543276786804, 0.5979896783828735, -0.42976856231689453, 0.6072261333465576, 9.695098876953125, -1.4623126983642578, -0.6329267621040344, 1.4341026544570923, 0.07554919272661209, -0.7289554476737976, -1.0341796875, 0.177490234375, -0.14599609375, 0, 
97, 3630050620, 0.29835987091064453, 0.597991943359375, -0.4296812117099762, 0.6072828769683838, 9.685672760009766, -1.4853976964950562, -0.6570203304290771, 1.7580971717834473, -0.07843078672885895, -0.6112068891525269, -1.03662109375, 0.1767578125, -0.14990234375, 0, 
98, 3630058953, 0.298350989818573, 0.5980011820793152, -0.42961710691452026, 0.6073235869407654, 9.681867599487305, -1.4809521436691284, -0.6142038702964783, 1.7817389965057373, -0.366693377494812, -0.542842447757721, -1.03564453125, 0.177734375, -0.149169921875, 0, 
99, 3630067286, 0.2983548641204834, 0.5980123281478882, -0.42955446243286133, 0.607354998588562, 9.736664772033691, -1.4826985597610474, -0.6487342715263367, 1.433897614479065, -0.46886852383613586, -0.5485032200813293, -1.033447265625, 0.178466796875, -0.14697265625, 0, 
100, 3630075619, 0.29837656021118164, 0.5980188846588135, -0.42951327562332153, 0.6073670387268066, 9.73572826385498, -1.4694944620132446, -0.680035412311554, 1.1562649011611938, -0.492279976606369, -0.7133820056915283, -1.0380859375, 0.178955078125, -0.146240234375, 0, 
101, 3630083952, 0.2984110116958618, 0.5980216264724731, -0.4294542670249939, 0.6073892116546631, 9.730698585510254, -1.4481788873672485, -0.6677035689353943, 1.0553191900253296, -0.3097785711288452, -0.761408805847168, -1.038818359375, 0.177734375, -0.14794921875, 0, 
102, 3630092285, 0.29843926429748535, 0.5980271697044373, -0.42939555644989014, 0.6074113845825195, 9.720548629760742, -1.4367128610610962, -0.6880248188972473, 1.3058009147644043, -0.29105454683303833, -0.8651463389396667, -1.033447265625, 0.178466796875, -0.14697265625, 0, 
103, 3630100618, 0.2984435260295868, 0.5980467796325684, -0.4292955994606018, 0.607460618019104, 9.72450065612793, -1.4208259582519531, -0.6903253793716431, 1.8341456651687622, -0.22837650775909424, -0.8309513330459595, -1.0380859375, 0.181396484375, -0.150146484375, 0, 
104, 3630108951, 0.29842209815979004, 0.5980720520019531, -0.42919808626174927, 0.6075150966644287, 9.715156555175781, -1.426576852798462, -0.7095089554786682, 2.3096230030059814, -0.32414817810058594, -0.7519314885139465, -1.037353515625, 0.1796875, -0.148193359375, 0, 
105, 3630117284, 0.2983734905719757, 0.5981218814849854, -0.42906641960144043, 0.6075831055641174, 9.728500366210938, -1.4015799760818481, -0.6581692099571228, 2.800443172454834, -0.5129762887954712, -0.7555431723594666, -1.037841796875, 0.178466796875, -0.15185546875, 0, 
106, 3630125617, 0.29831618070602417, 0.598179817199707, -0.4289461672306061, 0.6076390743255615, 9.73570442199707, -1.3790127038955688, -0.6757622957229614, 2.9386701583862305, -0.7036101818084717, -0.8261999487876892, -1.041015625, 0.17578125, -0.1513671875, 0, 
107, 3630133950, 0.29826509952545166, 0.5982497930526733, -0.42881473898887634, 0.6076878309249878, 9.749040603637695, -1.4064602851867676, -0.6769020557403564, 2.7378032207489014, -0.849713921546936, -0.9248660206794739, -1.040283203125, 0.17578125, -0.149169921875, 0, 
108, 3630142283, 0.2982509434223175, 0.5982930064201355, -0.4287189841270447, 0.607719898223877, 9.76214599609375, -1.4252859354019165, -0.6637676954269409, 2.1772358417510986, -0.6218879818916321, -0.9965217113494873, -1.041015625, 0.175537109375, -0.15234375, 0, 
109, 3630150616, 0.29826492071151733, 0.5983151793479919, -0.42862647771835327, 0.6077563166618347, 9.745506286621094, -1.4132020473480225, -0.6789759993553162, 1.696994423866272, -0.3419116139411926, -0.9249685406684875, -1.03369140625, 0.173583984375, -0.148681640625, 0, 
110, 3630158949, 0.29826444387435913, 0.5983297824859619, -0.42855170369148254, 0.6077948808670044, 9.708359718322754, -1.4006410837173462, -0.6849475502967834, 1.809069275856018, -0.33721134066581726, -0.7437860369682312, -1.036865234375, 0.174560546875, -0.1474609375, 0, 
111, 3630167282, 0.29825371503829956, 0.5983481407165527, -0.42846977710723877, 0.6078399419784546, 9.713800430297852, -1.4343740940093994, -0.6481193900108337, 1.7830839157104492, -0.41529640555381775, -0.5677523016929626, -1.037841796875, 0.176513671875, -0.15234375, 0, 
112, 3630175615, 0.29824090003967285, 0.5983583927154541, -0.4284161627292633, 0.6078739166259766, 9.708073616027832, -1.4341009855270386, -0.6448171734809875, 1.689771056175232, -0.49587884545326233, -0.45850762724876404, -1.038330078125, 0.176513671875, -0.1474609375, 0, 
113, 3630183948, 0.29823416471481323, 0.5983697175979614, -0.42835733294487, 0.6079077124595642, 9.72808837890625, -1.439802885055542, -0.6319606900215149, 1.463174819946289, -0.523222029209137, -0.41633379459381104, -1.0400390625, 0.174560546875, -0.147216796875, 0, 
114, 3630192281, 0.29823827743530273, 0.5983676314353943, -0.4283430576324463, 0.6079177856445312, 9.716285705566406, -1.4432505369186401, -0.6762869954109192, 1.0300123691558838, -0.6509089469909668, -0.3032469153404236, -1.037841796875, 0.175537109375, -0.152099609375, 0, 
115, 3630200614, 0.2982335090637207, 0.5983855128288269, -0.42832377552986145, 0.6079161167144775, 9.72266674041748, -1.439202070236206, -0.6730038523674011, 0.8334359526634216, -1.0015549659729004, -0.28207674622535706, -1.03857421875, 0.176025390625, -0.151611328125, 0, 
116, 3630208947, 0.2982524633407593, 0.5983889698982239, -0.4283408224582672, 0.607891321182251, 9.763151168823242, -1.4379289150238037, -0.6870377063751221, 0.4633871018886566, -1.0266826152801514, -0.34467798471450806, -1.03955078125, 0.17578125, -0.150146484375, 0, 
117, 3630217280, 0.2983000576496124, 0.5983920097351074, -0.4283493161201477, 0.6078590154647827, 9.75132942199707, -1.4204044342041016, -0.7048484086990356, -0.07287249714136124, -0.9342535734176636, -0.5279605984687805, -1.035400390625, 0.1728515625, -0.15234375, 0, 
118, 3630225613, 0.29835402965545654, 0.5983691215515137, -0.42837756872177124, 0.6078351736068726, 9.738574028015137, -1.4428428411483765, -0.6639769673347473, -0.020235244184732437, -0.6379480361938477, -0.3852892816066742, -1.039306640625, 0.17626953125, -0.148681640625, 0, 
119, 3630233946, 0.2983897924423218, 0.5983543992042542, -0.4283764064311981, 0.6078329086303711, 9.709247589111328, -1.4742581844329834, -0.6570029258728027, 0.2742899954319, -0.5801623463630676, -0.2885187268257141, -1.037109375, 0.177001953125, -0.146484375, 0, 
120, 3630242279, 0.29838764667510986, 0.5983502864837646, -0.4283684492111206, 0.6078435182571411, 9.724404335021973, -1.4737646579742432, -0.6383483409881592, 1.024069905281067, -0.692122220993042, -0.1834491491317749, -1.04052734375, 0.17626953125, -0.150146484375, 0, 
121, 3630250612, 0.29835444688796997, 0.5983792543411255, -0.428322434425354, 0.6078637838363647, 9.738387107849121, -1.47138512134552, -0.6653442978858948, 1.4784152507781982, -0.9739044308662415, -0.24218258261680603, -1.0390625, 0.1748046875, -0.149658203125, 0, 
122, 3630258945, 0.29832565784454346, 0.598401665687561, -0.4282993674278259, 0.6078720092773438, 9.751927375793457, -1.470036268234253, -0.6521983742713928, 1.4643274545669556, -1.029410481452942, -0.2513524889945984, -1.03857421875, 0.1787109375, -0.14697265625, 0, 
123, 3630267278, 0.298306941986084, 0.5984290242195129, -0.4282623529434204, 0.6078803539276123, 9.74931812286377, -1.4403250217437744, -0.6743485927581787, 1.1979777812957764, -1.0092648267745972, -0.32580024003982544, -1.03759765625, 0.1748046875, -0.150634765625, 0, 
124, 3630275611, 0.29831749200820923, 0.5984402298927307, -0.4282572865486145, 0.6078677177429199, 9.753395080566406, -1.4185231924057007, -0.6609227061271667, 0.8209105730056763, -0.9496093392372131, -0.4515661299228668, -1.0400390625, 0.17431640625, -0.1513671875, 0, 
125, 3630283944, 0.2983395457267761, 0.5984383821487427, -0.4282495379447937, 0.6078641414642334, 9.706300735473633, -1.4207262992858887, -0.6268179416656494, 0.547888457775116, -0.7647257447242737, -0.31429943442344666, -1.039306640625, 0.17724609375, -0.149658203125, 0, 
126, 3630292277, 0.2983667254447937, 0.5984306931495667, -0.428255558013916, 0.6078541278839111, 9.723174095153809, -1.3989027738571167, -0.6489200592041016, 0.5299201011657715, -0.7165325284004211, -0.37645238637924194, -1.03759765625, 0.173828125, -0.149169921875, 0, 
127, 3630300610, 0.2983953356742859, 0.5984147787094116, -0.4282512366771698, 0.6078588366508484, 9.716142654418945, -1.3864569664001465, -0.6252228617668152, 0.4295635223388672, -0.5492972731590271, -0.22251084446907043, -1.03564453125, 0.17724609375, -0.149658203125, 0, 
128, 3630308943, 0.2984331250190735, 0.5983872413635254, -0.4282694160938263, 0.6078545451164246, 9.715398788452148, -1.3479818105697632, -0.6598140001296997, 0.29284754395484924, -0.49316367506980896, -0.2250850647687912, -1.03662109375, 0.17333984375, -0.1494140625, 0, 
129, 3630317276, 0.29845792055130005, 0.598379909992218, -0.4282684624195099, 0.6078502535820007, 9.71255111694336, -1.3470237255096436, -0.6328336000442505, 0.4106473922729492, -0.7300184965133667, -0.24849647283554077, -1.03857421875, 0.17529296875, -0.150634765625, 0, 
130, 3630325609, 0.29846441745758057, 0.5983787178993225, -0.42827683687210083, 0.6078422665596008, 9.717716217041016, -1.3355644941329956, -0.6137353777885437, 0.7173010110855103, -0.8860347867012024, -0.21491622924804688, -1.03662109375, 0.17431640625, -0.14990234375, 0, 
131, 3630333942, 0.29846376180648804, 0.5983925461769104, -0.4282712936401367, 0.6078329086303711, 9.749518394470215, -1.3588041067123413, -0.6414812803268433, 0.7843334674835205, -1.0915378332138062, -0.22549490630626678, -1.036376953125, 0.17626953125, -0.14794921875, 0, 
132, 3630342275, 0.2984618544578552, 0.5984140038490295, -0.4282720685005188, 0.6078121662139893, 9.737043380737305, -1.3741469383239746, -0.6005455255508423, 0.8699234127998352, -1.1982593536376953, -0.39297357201576233, -1.042236328125, 0.17822265625, -0.149169921875, 0, 
133, 3630350608, 0.2984817922115326, 0.5984256863594055, -0.42827990651130676, 0.6077853441238403, 9.748085975646973, -1.373653769493103, -0.6385629177093506, 0.40986618399620056, -1.1559191942214966, -0.3469960391521454, -1.0400390625, 0.177001953125, -0.151123046875, 0, 
134, 3630358941, 0.29853466153144836, 0.5984157919883728, -0.4282951056957245, 0.6077584028244019, 9.755755424499512, -1.3807847499847412, -0.6614806056022644, 0.13325804471969604, -0.7241144776344299, -0.5715816020965576, -1.037353515625, 0.17529296875, -0.14892578125, 0, 
135, 3630367274, 0.29859596490859985, 0.5983995199203491, -0.42829766869544983, 0.6077427268028259, 9.722495079040527, -1.419195532798767, -0.6293429136276245, 0.010220078751444817, -0.5557135939598083, -0.5230041742324829, -1.036865234375, 0.17626953125, -0.1484375, 0, 
136, 3630375607, 0.2986515164375305, 0.5983801484107971, -0.4283100962638855, 0.6077257394790649, 9.699849128723145, -1.441097617149353, -0.6009246706962585, 0.1543641835451126, -0.5371304750442505, -0.5202763080596924, -1.03955078125, 0.176513671875, -0.14599609375, 0, 
137, 3630383940, 0.298699289560318, 0.598368227481842, -0.4283031225204468, 0.607718825340271, 9.715120315551758, -1.4495950937271118, -0.6606866717338562, 0.2218320667743683, -0.5498095154762268, -0.4722753167152405, -1.041259765625, 0.17822265625, -0.149169921875, 0, 
138, 3630392273, 0.29874080419540405, 0.5983514785766602, -0.4283043146133423, 0.6077141165733337, 9.723381996154785, -1.4531927108764648, -0.6232126355171204, 0.44608473777770996, -0.49543049931526184, -0.4620552062988281, -1.036376953125, 0.177734375, -0.148193359375, 0, 
139, 3630400606, 0.29876625537872314, 0.598351001739502, -0.4282885789871216, 0.6077132225036621, 9.730670928955078, -1.4647523164749146, -0.6316390633583069, 0.5949546098709106, -0.6971426010131836, -0.4032961130142212, -1.039306640625, 0.17724609375, -0.1494140625, 0, 
140, 3630408939, 0.2987954020500183, 0.5983428955078125, -0.4282911419868469, 0.6077048778533936, 9.740161895751953, -1.471983790397644, -0.6446930766105652, 0.550923764705658, -0.675805926322937, -0.41179999709129333, -1.040283203125, 0.177001953125, -0.152587890625, 0, 
141, 3630417272, 0.2988215982913971, 0.5983418822288513, -0.42827659845352173, 0.6077033281326294, 9.726428985595703, -1.4810748100280762, -0.6990187168121338, 0.5623860955238342, -0.696438193321228, -0.40020957589149475, -1.039306640625, 0.17578125, -0.148193359375, 0, 
142, 3630425605, 0.2988453507423401, 0.5983394384384155, -0.42828303575515747, 0.6076894998550415, 9.715456008911133, -1.4467769861221313, -0.7081528902053833, 0.5541383624076843, -0.8159798979759216, -0.39147520065307617, -1.0400390625, 0.176513671875, -0.152099609375, 0, 
143, 3630433938, 0.2988528609275818, 0.5983399152755737, -0.4282757043838501, 0.6076904535293579, 9.712995529174805, -1.4554604291915894, -0.6744844913482666, 0.6684290766716003, -0.8264048099517822, -0.17941489815711975, -1.036376953125, 0.17333984375, -0.151611328125, 0, 
144, 3630442271, 0.29886358976364136, 0.5983277559280396, -0.4282938241958618, 0.6076843738555908, 9.70556354522705, -1.4611612558364868, -0.7250336408615112, 0.5682646632194519, -0.7953476309776306, -0.09789761155843735, -1.04052734375, 0.173828125, -0.15087890625, 0, 
145, 3630450604, 0.2988685369491577, 0.5983219742774963, -0.4282814562320709, 0.6076964139938354, 9.713947296142578, -1.4682855606079102, -0.7014435529708862, 0.7495109438896179, -0.6729371547698975, -0.11728758364915848, -1.037841796875, 0.1748046875, -0.149169921875, 0, 
146, 3630458937, 0.29886484146118164, 0.5983158349990845, -0.42827439308166504, 0.6077092885971069, 9.707874298095703, -1.4606748819351196, -0.6801066398620605, 1.033675193786621, -0.6707599759101868, -0.14205653965473175, -1.036376953125, 0.173095703125, -0.152587890625, 0, 
147, 3630467270, 0.2988360524177551, 0.5983227491378784, -0.4282429814338684, 0.6077387928962708, 9.713875770568848, -1.4431432485580444, -0.6663445234298706, 1.3362177610397339, -0.7576307058334351, 0.0053021470084786415, -1.0400390625, 0.17333984375, -0.15185546875, 0, 
148, 3630475603, 0.29879841208457947, 0.5983372926712036, -0.42822951078414917, 0.6077524423599243, 9.701248168945312, -1.4443281888961792, -0.6631782054901123, 1.4563229084014893, -1.0099307298660278, -0.02808600850403309, -1.03515625, 0.17626953125, -0.150634765625, 0, 
149, 3630483936, 0.29875069856643677, 0.5983622074127197, -0.4281834363937378, 0.607783854007721, 9.735040664672852, -1.418196439743042, -0.6434555649757385, 1.7050114870071411, -0.943359375, -0.05600552260875702, -1.037353515625, 0.177001953125, -0.15234375, 0, 
150, 3630492269, 0.2986986041069031, 0.5983760356903076, -0.4281423091888428, 0.6078248023986816, 9.725034713745117, -1.4121644496917725, -0.6483249664306641, 1.964073896408081, -0.7518417835235596, -0.019786996766924858, -1.037353515625, 0.1748046875, -0.1484375, 0, 
151, 3630500602, 0.29862821102142334, 0.5984042286872864, -0.428072065114975, 0.6078810691833496, 9.712607383728027, -1.4172371625900269, -0.6012170314788818, 2.1953318119049072, -0.7883293032646179, 0.02283509075641632, -1.037841796875, 0.178466796875, -0.15185546875, 0, 
152, 3630508935, 0.29855912923812866, 0.5984392166137695, -0.4280349910259247, 0.607906699180603, 9.723048210144043, -1.4489467144012451, -0.592593252658844, 2.06674861907959, -1.1715950965881348, -0.031223749741911888, -1.034423828125, 0.177001953125, -0.146728515625, 0, 
153, 3630517268, 0.29850852489471436, 0.5984802842140198, -0.4280077815055847, 0.60791015625, 9.732230186462402, -1.4326318502426147, -0.6257562041282654, 1.6511704921722412, -1.4343843460083008, -0.10193184018135071, -1.039794921875, 0.17578125, -0.148681640625, 0, 
154, 3630525601, 0.29846277832984924, 0.5985326766967773, -0.42800086736679077, 0.6078859567642212, 9.738781929016113, -1.4192767143249512, -0.6408377885818481, 1.4015852212905884, -1.7123500108718872, -0.28543221950531006, -1.037841796875, 0.175048828125, -0.14794921875, 0, 
155, 3630533934, 0.29844629764556885, 0.5985764265060425, -0.4279886484146118, 0.6078595519065857, 9.763667106628418, -1.4082542657852173, -0.6744552254676819, 0.9571399092674255, -1.5414903163909912, -0.3907195031642914, -1.037841796875, 0.174072265625, -0.148193359375, 0, 
156, 3630542267, 0.298453152179718, 0.5985924601554871, -0.4279921054840088, 0.6078379154205322, 9.753137588500977, -1.4161341190338135, -0.6918944716453552, 0.7475641965866089, -1.1206740140914917, -0.4147200584411621, -1.03955078125, 0.175537109375, -0.146728515625, 0, 
157, 3630550600, 0.29846739768981934, 0.5985949039459229, -0.4279700517654419, 0.6078441143035889, 9.7457914352417, -1.3879591226577759, -0.6754143238067627, 0.7472825050354004, -0.6961693167686462, -0.34755954146385193, -1.032958984375, 0.173828125, -0.151611328125, 0, 
158, 3630558933, 0.2984774708747864, 0.5985839366912842, -0.4279605746269226, 0.6078565716743469, 9.745133399963379, -1.3822869062423706, -0.661416232585907, 0.918411135673523, -0.5434315800666809, -0.2509170472621918, -1.034423828125, 0.17578125, -0.148193359375, 0, 
159, 3630567266, 0.29846376180648804, 0.5985854268074036, -0.42792224884033203, 0.6078888773918152, 9.743552207946777, -1.377179741859436, -0.649549663066864, 1.2791364192962646, -0.5731185078620911, -0.13475649058818817, -1.03662109375, 0.173828125, -0.14892578125, 0, 
160, 3630575599, 0.2984321117401123, 0.598591685295105, -0.4278930425643921, 0.6079187393188477, 9.730966567993164, -1.3800499439239502, -0.6805312633514404, 1.599800944328308, -0.7077468633651733, -0.09379932284355164, -1.04052734375, 0.17529296875, -0.151123046875, 0, 
161, 3630583932, 0.29838815331459045, 0.5986145734786987, -0.4278427064418793, 0.6079531311988831, 9.7111177444458, -1.395660400390625, -0.6442992687225342, 1.6904882192611694, -0.8579103350639343, -0.09509284794330597, -1.03955078125, 0.176513671875, -0.152099609375, 0, 
162, 3630592265, 0.2983424663543701, 0.5986368656158447, -0.42781782150268555, 0.60797119140625, 9.701361656188965, -1.402305245399475, -0.6727651953697205, 1.6755297183990479, -1.0376968383789062, -0.08369451761245728, -1.03759765625, 0.177734375, -0.14990234375, 0, 
163, 3630600598, 0.2982964813709259, 0.5986776351928711, -0.4277768135070801, 0.6079824566841125, 9.719472885131836, -1.4433183670043945, -0.6686310172080994, 1.608241081237793, -1.2556225061416626, -0.20523405075073242, -1.039794921875, 0.1767578125, -0.149658203125, 0, 
164, 3630608931, 0.2982623279094696, 0.5987123250961304, -0.4277586042881012, 0.6079778671264648, 9.750429153442383, -1.434324026107788, -0.6710743308067322, 1.4420045614242554, -1.2883321046829224, -0.2907343804836273, -1.038330078125, 0.17822265625, -0.14892578125, 0, 
165, 3630617264, 0.29823461174964905, 0.5987510681152344, -0.42771875858306885, 0.607981264591217, 9.753824234008789, -1.4514546394348145, -0.663943886756897, 1.4319638013839722, -1.2072116136550903, -0.37208521366119385, -1.037109375, 0.176513671875, -0.145263671875, 0, 
166, 3630625597, 0.2982194423675537, 0.5987693071365356, -0.42770203948020935, 0.6079825758934021, 9.747307777404785, -1.420425534248352, -0.6739479899406433, 1.241483449935913, -0.9965985417366028, -0.31474772095680237, -1.03857421875, 0.176513671875, -0.151611328125, 0, 
167, 3630633930, 0.29822784662246704, 0.5987730622291565, -0.42767560482025146, 0.6079934239387512, 9.77618408203125, -1.4254828691482544, -0.6812224388122559, 0.8692830204963684, -0.6851550936698914, -0.32215023040771484, -1.038330078125, 0.17724609375, -0.14892578125, 0, 
168, 3630642263, 0.29825007915496826, 0.5987618565559387, -0.4276748597621918, 0.6079940795898438, 9.714447975158691, -1.4237022399902344, -0.7229236364364624, 0.6749735474586487, -0.601729691028595, -0.32665836811065674, -1.036865234375, 0.175048828125, -0.1474609375, 0, 
169, 3630650596, 0.2982698976993561, 0.5987507104873657, -0.427646666765213, 0.6080151796340942, 9.722015380859375, -1.4028513431549072, -0.6948629021644592, 0.7683886885643005, -0.39927470684051514, -0.3015308082103729, -1.0400390625, 0.177490234375, -0.151123046875, 0, 
170, 3630658929, 0.2982757091522217, 0.5987423658370972, -0.4276294708251953, 0.6080326437950134, 9.694884300231934, -1.4258835315704346, -0.6385915279388428, 1.0570865869522095, -0.5175100564956665, -0.2728172242641449, -1.040283203125, 0.17626953125, -0.148193359375, 0, 
171, 3630667262, 0.2982904314994812, 0.5987427234649658, -0.42759209871292114, 0.6080513000488281, 9.704404830932617, -1.4431360960006714, -0.6609513163566589, 1.0516307353973389, -0.5285497307777405, -0.4217383563518524, -1.038330078125, 0.175048828125, -0.148193359375, 0, 
172, 3630675595, 0.2982966899871826, 0.5987424254417419, -0.42757290601730347, 0.6080619692802429, 9.712202072143555, -1.4503819942474365, -0.6744415760040283, 1.0641818046569824, -0.6303406953811646, -0.36828145384788513, -1.03759765625, 0.173828125, -0.149658203125, 0, 
173, 3630683928, 0.298287034034729, 0.5987575650215149, -0.42754194140434265, 0.6080735921859741, 9.705070495605469, -1.4763753414154053, -0.6791266798973083, 1.1728885173797607, -0.8709864020347595, -0.27840110659599304, -1.03857421875, 0.1748046875, -0.149658203125, 0, 
174, 3630692261, 0.29825901985168457, 0.5987751483917236, -0.42753174901008606, 0.6080772280693054, 9.719903945922852, -1.4768002033233643, -0.7179518938064575, 1.303431749343872, -1.0753496885299683, -0.1407630294561386, -1.039794921875, 0.173095703125, -0.148193359375, 0, 
175, 3630700594, 0.29822492599487305, 0.5988082885742188, -0.4274967312812805, 0.6080858111381531, 9.709744453430176, -1.4817969799041748, -0.6889072060585022, 1.4702314138412476, -1.1785237789154053, -0.2272879183292389, -1.039794921875, 0.1767578125, -0.149169921875, 0, 
176, 3630708927, 0.29820185899734497, 0.5988340973854065, -0.42750221490859985, 0.6080677509307861, 9.752179145812988, -1.4838664531707764, -0.6999683380126953, 1.0380042791366577, -1.3566067218780518, -0.18936605751514435, -1.0390625, 0.177490234375, -0.1474609375, 0, 
177, 3630717260, 0.2981962263584137, 0.5988470315933228, -0.4274875521659851, 0.6080683469772339, 9.742201805114746, -1.4749739170074463, -0.7258061170578003, 0.9232010245323181, -0.9880177974700928, -0.20893532037734985, -1.037109375, 0.17578125, -0.1513671875, 0, 
178, 3630725593, 0.2981764078140259, 0.598853588104248, -0.4274715781211853, 0.6080828905105591, 9.761420249938965, -1.4565049409866333, -0.6757147312164307, 1.3032138347625732, -0.8190408945083618, -0.14971521496772766, -1.0380859375, 0.1767578125, -0.150390625, 0, 
179, 3630733926, 0.2981298863887787, 0.5988807678222656, -0.4274170398712158, 0.6081172227859497, 9.794921875, -1.4703989028930664, -0.6766695380210876, 1.8686991930007935, -0.9109189510345459, -0.14113442599773407, -1.037841796875, 0.174560546875, -0.1474609375, 0, 
180, 3630742259, 0.2980519235134125, 0.5989190340042114, -0.4273630380630493, 0.6081557869911194, 9.808084487915039, -1.4265270233154297, -0.6590878963470459, 2.370098114013672, -1.073851227760315, -0.06319031864404678, -1.03662109375, 0.17578125, -0.14990234375, 0, 
181, 3630750592, 0.2979660630226135, 0.598965585231781, -0.4272962808609009, 0.608198881149292, 9.76982307434082, -1.4308592081069946, -0.6347094774246216, 2.3412563800811768, -1.1646536588668823, 0.014356778003275394, -1.03515625, 0.17529296875, -0.150390625, 0, 
182, 3630758925, 0.2978956699371338, 0.5989975929260254, -0.42726606130599976, 0.6082231402397156, 9.726778030395508, -1.454282283782959, -0.5885774493217468, 2.0002284049987793, -1.1930084228515625, 0.046938084065914154, -1.036865234375, 0.17529296875, -0.14892578125, 0, 
183, 3630767258, 0.2978389263153076, 0.599040150642395, -0.4272305369377136, 0.6082339882850647, 9.736605644226074, -1.4836214780807495, -0.5876010656356812, 1.6841486692428589, -1.3633944988250732, -0.0845525786280632, -1.03759765625, 0.176513671875, -0.14599609375, 0, 
184, 3630775591, 0.29778653383255005, 0.5990711450576782, -0.4272477626800537, 0.6082169413566589, 9.799022674560547, -1.444555401802063, -0.5955133438110352, 1.2091071605682373, -1.6124672889709473, 0.1255737692117691, -1.03955078125, 0.17578125, -0.151611328125, 0, 
185, 3630783924, 0.2977803349494934, 0.5990778207778931, -0.4272622764110565, 0.6082031726837158, 9.849078178405762, -1.445289134979248, -0.6522606015205383, 0.614920973777771, -1.1849273443222046, 0.010732363909482956, -1.03955078125, 0.1748046875, -0.151611328125, 0, 
186, 3630792257, 0.29782649874687195, 0.5990290641784668, -0.4273139238357544, 0.6081923246383667, 9.793815612792969, -1.4217920303344727, -0.641903281211853, -0.18256545066833496, -0.4570988416671753, 0.07740621268749237, -1.038330078125, 0.1787109375, -0.14892578125, 0, 
187, 3630800590, 0.29788774251937866, 0.5989601612091064, -0.4273573160171509, 0.6081998348236084, 9.708174705505371, -1.4636361598968506, -0.5695021748542786, -0.5251046419143677, -0.07047756761312485, 0.2281203716993332, -1.038330078125, 0.175048828125, -0.14794921875, 0, 
188, 3630808923, 0.2979562282562256, 0.5988909006118774, -0.42742007970809937, 0.6081902980804443, 9.637633323669434, -1.4565763473510742, -0.6306732892990112, -0.5345434546470642, -0.18916112184524536, 0.10856593400239944, -1.0361328125, 0.17529296875, -0.1494140625, 0, 
189, 3630817256, 0.29802554845809937, 0.5988227725028992, -0.4274756908416748, 0.6081843972206116, 9.618256568908691, -1.4591580629348755, -0.6286777853965759, -0.6975395679473877, -0.20292873680591583, 0.19679415225982666, -1.037109375, 0.1767578125, -0.14990234375, 0, 
190, 3630825589, 0.2980871796607971, 0.5987586379051208, -0.4275508522987366, 0.6081644892692566, 9.625781059265137, -1.447635293006897, -0.6228266358375549, -0.622771680355072, -0.408867210149765, 0.19574399292469025, -1.03857421875, 0.176025390625, -0.151611328125, 0, 
191, 3630833922, 0.29814445972442627, 0.5987187623977661, -0.4275907874107361, 0.6081475019454956, 9.633685111999512, -1.448093295097351, -0.6364743113517761, -0.41141584515571594, -0.5369255542755127, -0.04543965309858322, -1.037841796875, 0.175048828125, -0.1474609375, 0, 
192, 3630842255, 0.298189640045166, 0.5986892580986023, -0.4276276230812073, 0.6081284880638123, 9.666638374328613, -1.4530571699142456, -0.647983193397522, -0.01945401169359684, -0.6295082569122314, -0.18287283182144165, -1.03662109375, 0.17431640625, -0.1494140625, 0, 
193, 3630850588, 0.29821717739105225, 0.5987122058868408, -0.4276149570941925, 0.6081013679504395, 9.723045349121094, -1.4866540431976318, -0.646888792514801, 0.5321229100227356, -1.116652488708496, -0.6446846723556519, -1.03759765625, 0.176513671875, -0.146484375, 0, 
194, 3630858921, 0.2982005476951599, 0.5987695455551147, -0.42757925391197205, 0.6080781817436218, 9.817054748535156, -1.4549270868301392, -0.675960123538971, 1.427366018295288, -1.4572194814682007, -0.7922482490539551, -1.037109375, 0.176025390625, -0.1455078125, 0, 
195, 3630867254, 0.29814276099205017, 0.5988471508026123, -0.4275018870830536, 0.6080845594406128, 9.860139846801758, -1.4605555534362793, -0.6706418395042419, 2.1302335262298584, -1.5215752124786377, -0.6423922181129456, -1.037841796875, 0.1748046875, -0.149169921875, 0, 
196, 3630875587, 0.2980930805206299, 0.5989105105400085, -0.4274364113807678, 0.6080924868583679, 9.799452781677246, -1.4702961444854736, -0.6550995111465454, 2.1570773124694824, -1.3226039409637451, -0.6672380566596985, -1.038818359375, 0.17578125, -0.149169921875, 0, 
197, 3630883920, 0.2980700135231018, 0.5989581346511841, -0.4273698925971985, 0.6081035137176514, 9.741473197937012, -1.4928206205368042, -0.6200194358825684, 1.5963047742843628, -1.0618510246276855, -0.6425715088844299, -1.036865234375, 0.17529296875, -0.14892578125, 0, 
198, 3630892253, 0.2980818450450897, 0.5989767909049988, -0.4273293614387512, 0.6081078052520752, 9.68665885925293, -1.4641728401184082, -0.5868123769760132, 1.2364885807037354, -0.7209894061088562, -0.7290322780609131, -1.0380859375, 0.1767578125, -0.14990234375, 0, 
199, 3630900586, 0.2980915307998657, 0.5989887714385986, -0.4272744059562683, 0.6081297993659973, 9.620831489562988, -1.4913749694824219, -0.5426863431930542, 1.2154722213745117, -0.5411904454231262, -0.5742583274841309, -1.04052734375, 0.1748046875, -0.150634765625, 0, 
200, 3630908919, 0.29808783531188965, 0.5990166068077087, -0.42722755670547485, 0.6081371307373047, 9.588591575622559, -1.4844616651535034, -0.5476077198982239, 1.472844123840332, -0.8376367092132568, -0.6903548240661621, -1.037841796875, 0.1767578125, -0.1494140625, 0, 
201, 3630917252, 0.2980809807777405, 0.5990798473358154, -0.4271466135978699, 0.6081351041793823, 9.603445053100586, -1.5039876699447632, -0.6127527952194214, 1.570857048034668, -1.1458784341812134, -1.0448046922683716, -1.039306640625, 0.17626953125, -0.14794921875, 0, 
202, 3630925585, 0.2980663776397705, 0.5991557836532593, -0.4270690083503723, 0.6081220507621765, 9.636886596679688, -1.5252076387405396, -0.6090112924575806, 1.8985655307769775, -1.3449522256851196, -1.2204926013946533, -1.039306640625, 0.1728515625, -0.149169921875, 0, 
203, 3630933918, 0.2980460524559021, 0.5992627739906311, -0.42694374918937683, 0.60811448097229, 9.702170372009277, -1.50872802734375, -0.6417736411094666, 2.1920533180236816, -1.4568607807159424, -1.57448148727417, -1.0380859375, 0.173828125, -0.150634765625, 0, 
204, 3630942251, 0.29802143573760986, 0.5993711948394775, -0.4268284738063812, 0.6081007122993469, 9.721949577331543, -1.483885645866394, -0.6140871047973633, 2.4245665073394775, -1.526826024055481, -1.640835165977478, -1.0400390625, 0.178466796875, -0.151123046875, 0, 
205, 3630950584, 0.2980099022388458, 0.5994846820831299, -0.4267173111438751, 0.6080725193023682, 9.72624683380127, -1.4760128259658813, -0.6552661657333374, 2.040865421295166, -1.709686279296875, -1.6660395860671997, -1.041748046875, 0.1767578125, -0.148681640625, 0, 
206, 3630958917, 0.29804062843322754, 0.5995543599128723, -0.42666101455688477, 0.6080284118652344, 9.734541893005371, -1.4632267951965332, -0.6959457993507385, 1.1383990049362183, -1.369528889656067, -1.5133017301559448, -1.042236328125, 0.17431640625, -0.14990234375, 0, 
207, 3630967250, 0.29810041189193726, 0.5996147990226746, -0.42659321427345276, 0.6079869270324707, 9.725747108459473, -1.4774677753448486, -0.7010293006896973, 0.7726790904998779, -1.1307276487350464, -1.6464447975158691, -1.040283203125, 0.173095703125, -0.14892578125, 0, 
208, 3630975583, 0.29815465211868286, 0.5996661186218262, -0.4265444874763489, 0.6079438328742981, 9.716163635253906, -1.4940025806427002, -0.6910816431045532, 0.81184321641922, -1.1000417470932007, -1.535919189453125, -1.037841796875, 0.174072265625, -0.1474609375, 0, 
209, 3630983916, 0.2981870770454407, 0.5997417569160461, -0.4264545440673828, 0.6079163551330566, 9.673648834228516, -1.557958722114563, -0.673660933971405, 1.2128338813781738, -1.1929188966751099, -1.6247491836547852, -1.041259765625, 0.1728515625, -0.1494140625, 0, 
210, 3630992249, 0.2981959581375122, 0.5998460054397583, -0.4263586699962616, 0.6078764796257019, 9.635936737060547, -1.5565378665924072, -0.7025818824768066, 1.8157676458358765, -1.588735818862915, -1.8436743021011353, -1.0380859375, 0.17431640625, -0.150146484375, 0, 
211, 3631000582, 0.29817306995391846, 0.5999816656112671, -0.4262288212776184, 0.607844889163971, 9.668655395507812, -1.5634527206420898, -0.6746266484260559, 2.3177554607391357, -1.9045084714889526, -1.8640378713607788, -1.037353515625, 0.172119140625, -0.147705078125, 0, 
212, 3631008915, 0.29811495542526245, 0.600140392780304, -0.42607954144477844, 0.6078213453292847, 9.726759910583496, -1.5938377380371094, -0.6953163743019104, 3.132634162902832, -2.084742784500122, -1.9770348072052002, -1.037353515625, 0.171142578125, -0.146728515625, 0, 
213, 3631017248, 0.29802730679512024, 0.6003099083900452, -0.4258953928947449, 0.6078261137008667, 9.825285911560059, -1.5799007415771484, -0.6651831269264221, 3.661926031112671, -2.0437088012695312, -1.823503017425537, -1.036376953125, 0.173583984375, -0.14794921875, 0, 
214, 3631025581, 0.2979315519332886, 0.6004592776298523, -0.42572832107543945, 0.6078425645828247, 9.855647087097168, -1.5794757604599, -0.640650749206543, 3.7891652584075928, -1.8235160112380981, -1.5885052680969238, -1.03857421875, 0.169189453125, -0.1494140625, 0, 
215, 3631033914, 0.2978351414203644, 0.6005926132202148, -0.4255494475364685, 0.607883095741272, 9.837190628051758, -1.5665061473846436, -0.587236225605011, 3.8466691970825195, -1.5377379655838013, -1.3567988872528076, -1.03857421875, 0.173828125, -0.144775390625, 0, 
216, 3631042247, 0.2977544069290161, 0.6006978154182434, -0.4254019856452942, 0.6079219579696655, 9.747895240783691, -1.5918067693710327, -0.5438815355300903, 3.4517993927001953, -1.260822057723999, -1.2022167444229126, -1.037841796875, 0.17041015625, -0.15234375, 0, 
217, 3631050580, 0.29768189787864685, 0.6008085012435913, -0.42525938153266907, 0.6079480051994324, 9.668070793151855, -1.5797317028045654, -0.5278286337852478, 2.960134983062744, -1.4397377967834473, -1.1670485734939575, -1.039306640625, 0.172607421875, -0.148681640625, 0, 
218, 3631058913, 0.2976377606391907, 0.6008959412574768, -0.42516544461250305, 0.607948899269104, 9.618009567260742, -1.5803066492080688, -0.5429987907409668, 2.4066624641418457, -1.432309627532959, -1.1171265840530396, -1.04052734375, 0.17333984375, -0.14990234375, 0, 
219, 3631067246, 0.2976033687591553, 0.6009976267814636, -0.42506420612335205, 0.6079358458518982, 9.599187850952148, -1.5439627170562744, -0.5364201664924622, 2.114993095397949, -1.6482120752334595, -1.25943922996521, -1.03857421875, 0.171630859375, -0.146728515625, 0, 
220, 3631075579, 0.29759031534194946, 0.601110577583313, -0.42497992515563965, 0.6078894734382629, 9.61392879486084, -1.5351381301879883, -0.5567225217819214, 1.8979636430740356, -1.8929306268692017, -1.6404510736465454, -1.04052734375, 0.172119140625, -0.146484375, 0, 
221, 3631083912, 0.29757750034332275, 0.6012665629386902, -0.42485126852989197, 0.6078314781188965, 9.687600135803223, -1.452899694442749, -0.5747700333595276, 2.1388142108917236, -2.2373905181884766, -2.1683857440948486, -1.041015625, 0.17041015625, -0.146484375, 0, 
222, 3631092245, 0.29755717515945435, 0.6014511585235596, -0.42471587657928467, 0.607753574848175, 9.750678062438965, -1.4094897508621216, -0.6026783585548401, 2.4930975437164307, -2.587601661682129, -2.5504865646362305, -1.038330078125, 0.170654296875, -0.14794921875, 0, 
223, 3631100578, 0.29755017161369324, 0.601643443107605, -0.4245561361312866, 0.6076781749725342, 9.794511795043945, -1.360683798789978, -0.6331918835639954, 2.5115909576416016, -2.541675090789795, -2.7645699977874756, -1.03857421875, 0.167236328125, -0.150146484375, 0, 
224, 3631108911, 0.2975524067878723, 0.6018333435058594, -0.4244126081466675, 0.6075893640518188, 9.781486511230469, -1.3194680213928223, -0.6138553619384766, 2.332496404647827, -2.5565569400787354, -2.88165283203125, -1.040771484375, 0.166259765625, -0.148193359375, 0, 
225, 3631117244, 0.29756513237953186, 0.6020171642303467, -0.42423826456069946, 0.6075227856636047, 9.758759498596191, -1.331892728805542, -0.6241180300712585, 2.4035375118255615, -2.210444450378418, -2.959353446960449, -1.041015625, 0.170166015625, -0.1474609375, 0, 
226, 3631125577, 0.29759275913238525, 0.6021870374679565, -0.42408496141433716, 0.6074479818344116, 9.726784706115723, -1.3848319053649902, -0.5891125202178955, 2.2049758434295654, -2.0845248699188232, -2.9996190071105957, -1.038330078125, 0.168212890625, -0.1474609375, 0, 
227, 3631133910, 0.29765555262565613, 0.6023538112640381, -0.4239357113838196, 0.6073558330535889, 9.638118743896484, -1.4637951850891113, -0.5674803256988525, 1.5946910381317139, -2.0985100269317627, -3.1785857677459717, -1.04150390625, 0.169921875, -0.14306640625, 0, 
228, 3631142243, 0.297748327255249, 0.6025082468986511, -0.4238259196281433, 0.6072338819503784, 9.598400115966797, -1.5695334672927856, -0.593032956123352, 0.9636586904525757, -2.14438533782959, -3.286447048187256, -1.041748046875, 0.170166015625, -0.147705078125, 0, 
229, 3631150576, 0.29782354831695557, 0.602684497833252, -0.42369920015335083, 0.6071105003356934, 9.61354923248291, -1.6423389911651611, -0.5292949676513672, 1.1341984272003174, -2.4518330097198486, -3.2767398357391357, -1.041015625, 0.170654296875, -0.14697265625, 0, 
230, 3631158909, 0.29785966873168945, 0.6028808951377869, -0.4235515296459198, 0.6070009469985962, 9.652039527893066, -1.6932079792022705, -0.5388165712356567, 1.9946447610855103, -2.5663928985595703, -3.3210391998291016, -1.0390625, 0.165771484375, -0.149169921875, 0, 
231, 3631167242, 0.2978387773036957, 0.6031327247619629, -0.42335957288742065, 0.6068946123123169, 9.670082092285156, -1.7332072257995605, -0.6229598522186279, 2.9043850898742676, -3.237152338027954, -3.387815475463867, -1.04345703125, 0.168701171875, -0.141845703125, 0, 
232, 3631175575, 0.29778188467025757, 0.6034066081047058, -0.4231489300727844, 0.6067971587181091, 9.700411796569824, -1.7481179237365723, -0.6225600242614746, 3.6769111156463623, -3.396524667739868, -3.468167781829834, -1.04052734375, 0.16357421875, -0.14697265625, 0, 
233, 3631183908, 0.29771751165390015, 0.6036819219589233, -0.42293453216552734, 0.6067044734954834, 9.695784568786621, -1.700523853302002, -0.631147563457489, 3.744558095932007, -3.4997754096984863, -3.3025200366973877, -1.042236328125, 0.164306640625, -0.14453125, 0, 
234, 3631192241, 0.2976508140563965, 0.603934645652771, -0.42272236943244934, 0.6066336631774902, 9.704931259155273, -1.646846055984497, -0.5894849300384521, 3.839381694793701, -3.0500407218933105, -3.168224811553955, -1.04296875, 0.1650390625, -0.1455078125, 0, 
235, 3631200574, 0.29756176471710205, 0.6041968464851379, -0.4224761724472046, 0.6065877676010132, 9.697702407836914, -1.6040902137756348, -0.5786893367767334, 4.295443058013916, -2.992177963256836, -3.081878900527954, -1.03857421875, 0.1650390625, -0.144775390625, 0, 
236, 3631208907, 0.2974315881729126, 0.6044909358024597, -0.42220455408096313, 0.6065477728843689, 9.706968307495117, -1.5559430122375488, -0.591150164604187, 5.211766719818115, -3.264611005783081, -3.245041608810425, -1.041259765625, 0.165283203125, -0.143798828125, 0, 
237, 3631217240, 0.2972624897956848, 0.6048332452774048, -0.42188161611557007, 0.6065138578414917, 9.667948722839355, -1.5153048038482666, -0.5814974308013916, 6.07268762588501, -3.7257699966430664, -3.4732394218444824, -1.040283203125, 0.16259765625, -0.1474609375, 0, 
238, 3631225573, 0.29703521728515625, 0.6052053570747375, -0.4215541481971741, 0.6064817905426025, 9.680014610290527, -1.4938006401062012, -0.6021960377693176, 6.849361419677734, -4.185059070587158, -3.3231399059295654, -1.0400390625, 0.16259765625, -0.14599609375, 0, 
239, 3631233906, 0.2967504560947418, 0.6056179404258728, -0.42119431495666504, 0.6064593195915222, 9.70996379852295, -1.5111981630325317, -0.5481374263763428, 7.4432549476623535, -4.694859504699707, -3.1543166637420654, -1.044189453125, 0.16357421875, -0.14111328125, 0, 
240, 3631242239, 0.2965032458305359, 0.6060247421264648, -0.42089971899986267, 0.606378436088562, 9.695330619812012, -1.4812849760055542, -0.609266996383667, 6.60051965713501, -5.129993438720703, -3.2818751335144043, -1.041748046875, 0.160888671875, -0.138671875, 0, 
241, 3631250572, 0.2963254749774933, 0.6063922643661499, -0.4206238090991974, 0.6062893867492676, 9.620061874389648, -1.4398499727249146, -0.5701156258583069, 5.447264671325684, -4.624369144439697, -3.375264883041382, -1.044921875, 0.15966796875, -0.142578125, 0, 
242, 3631258905, 0.2962115705013275, 0.6067289710044861, -0.4203726351261139, 0.606182336807251, 9.571266174316406, -1.421915054321289, -0.5903986096382141, 4.690491199493408, -4.168947219848633, -3.7308409214019775, -1.04150390625, 0.15869140625, -0.140380859375, 0, 
243, 3631267238, 0.29615792632102966, 0.6070380210876465, -0.42010462284088135, 0.6060850620269775, 9.60785961151123, -1.459040641784668, -0.5643073320388794, 4.060765266418457, -3.5190114974975586, -4.039339065551758, -1.04736328125, 0.16064453125, -0.142578125, 0, 
244, 3631275571, 0.29608893394470215, 0.6073342561721802, -0.41980642080307007, 0.6060286164283752, 9.695805549621582, -1.414338231086731, -0.5746446847915649, 4.834046840667725, -2.960839033126831, -4.059202671051025, -1.040771484375, 0.159423828125, -0.138671875, 0, 
245, 3631283904, 0.2959161698818207, 0.6077026128768921, -0.4193800091743469, 0.6060389876365662, 9.820623397827148, -1.3525776863098145, -0.5588690638542175, 7.250403881072998, -3.1585936546325684, -4.273401737213135, -1.043701171875, 0.158203125, -0.140380859375, 0, 
246, 3631292237, 0.2956096827983856, 0.6081582307815552, -0.41885149478912354, 0.6060969233512878, 9.813932418823242, -1.2931698560714722, -0.5857803821563721, 10.046197891235352, -3.76396107673645, -4.458746910095215, -1.0419921875, 0.15771484375, -0.140380859375, 0, 
247, 3631300570, 0.2951742708683014, 0.6087170243263245, -0.4182283282279968, 0.6061784625053406, 9.767293930053711, -1.294134497642517, -0.5919483304023743, 12.279401779174805, -4.866603374481201, -4.53776741027832, -1.045654296875, 0.156982421875, -0.13916015625, 0, 
248, 3631308903, 0.2945851683616638, 0.609398603439331, -0.4175344705581665, 0.6062585115432739, 9.67999267578125, -1.3492296934127808, -0.5757426023483276, 14.83598518371582, -6.417749881744385, -4.696038246154785, -1.043212890625, 0.154052734375, -0.14013671875, 0, 
249, 3631317236, 0.29392197728157043, 0.6102168560028076, -0.4168415069580078, 0.6062341928482056, 9.672271728515625, -1.377943515777588, -0.5287981033325195, 15.200246810913086, -8.941676139831543, -5.1410088539123535, -1.04443359375, 0.15576171875, -0.13671875, 0, 
250, 3631325569, 0.29352760314941406, 0.6109592318534851, -0.4163855314254761, 0.6059907674789429, 9.689764022827148, -1.3248014450073242, -0.8077715635299683, 9.608335494995117, -9.483170509338379, -5.980245113372803, -1.0458984375, 0.152099609375, -0.1416015625, 0, 
251, 3631333902, 0.2934001088142395, 0.6115149259567261, -0.4160475730895996, 0.6057242751121521, 9.686626434326172, -1.2327101230621338, -0.7003920674324036, 5.314096450805664, -7.152724266052246, -6.1026177406311035, -1.04443359375, 0.150390625, -0.136474609375, 0, 
252, 3631342235, 0.29339325428009033, 0.6119205951690674, -0.41578900814056396, 0.6054953932762146, 9.69654655456543, -1.1830440759658813, -0.6381822228431702, 3.4331140518188477, -5.134526252746582, -5.5647172927856445, -1.047607421875, 0.15380859375, -0.136962890625, 0, 
253, 3631350568, 0.29342660307884216, 0.6122642755508423, -0.41552644968032837, 0.6053120493888855, 9.685672760009766, -1.160678744316101, -0.6641058325767517, 2.826082468032837, -4.054093360900879, -5.24812650680542, -1.046875, 0.15234375, -0.13818359375, 0, 
254, 3631358901, 0.29350924491882324, 0.6125743985176086, -0.4153127670288086, 0.6051048040390015, 9.723350524902344, -1.1869277954101562, -0.7734657526016235, 2.042325735092163, -3.827727794647217, -5.2985734939575195, -1.045654296875, 0.14892578125, -0.13916015625, 0, 
255, 3631367234, 0.29364311695098877, 0.6128603219985962, -0.4151039123535156, 0.604893684387207, 9.699294090270996, -1.253319501876831, -0.7807098627090454, 1.3576953411102295, -3.481717109680176, -5.435519695281982, -1.046875, 0.1513671875, -0.1376953125, 0, 
256, 3631375567, 0.293817937374115, 0.613141655921936, -0.4149220585823059, 0.6046483516693115, 9.646890640258789, -1.3546829223632812, -0.7578698396682739, 0.6694665551185608, -3.510559320449829, -5.785846710205078, -1.04736328125, 0.14794921875, -0.13330078125, 0, 
257, 3631383900, 0.29405927658081055, 0.6133964657783508, -0.4147605299949646, 0.6043832898139954, 9.581921577453613, -1.4507089853286743, -0.7006858587265015, -0.411441445350647, -3.251931667327881, -5.966733455657959, -1.048583984375, 0.147705078125, -0.135986328125, 0, 
258, 3631392233, 0.29436448216438293, 0.6136084198951721, -0.4146365523338318, 0.6041046380996704, 9.540390968322754, -1.5479203462600708, -0.6969398260116577, -1.38178551197052, -2.704427719116211, -6.120700359344482, -1.045166015625, 0.145751953125, -0.13525390625, 0, 
259, 3631400566, 0.29468220472335815, 0.613821268081665, -0.41450756788253784, 0.6038216948509216, 9.512048721313477, -1.6278891563415527, -0.6678587794303894, -1.7198293209075928, -2.7304646968841553, -6.148940086364746, -1.046142578125, 0.145263671875, -0.135498046875, 0, 
260, 3631408899, 0.2949870824813843, 0.614037036895752, -0.4144025444984436, 0.6035255193710327, 9.492415428161621, -1.7049717903137207, -0.6589670777320862, -1.6222262382507324, -2.9623630046844482, -6.051900863647461, -1.050048828125, 0.145263671875, -0.134765625, 0, 
261, 3631417232, 0.2952859401702881, 0.6142777800559998, -0.41428202390670776, 0.6032172441482544, 9.488497734069824, -1.765208125114441, -0.7524349093437195, -1.596228003501892, -3.3300559520721436, -6.187938690185547, -1.050048828125, 0.145751953125, -0.134765625, 0, 
262, 3631425565, 0.29555344581604004, 0.6145666837692261, -0.414135217666626, 0.6028928160667419, 9.546527862548828, -1.7917824983596802, -0.7638798952102661, -0.8243687152862549, -3.852099895477295, -6.623970031738281, -1.04443359375, 0.14599609375, -0.13134765625, 0, 
263, 3631433898, 0.29580193758010864, 0.614886999130249, -0.4139278531074524, 0.6025865077972412, 9.568971633911133, -1.8266680240631104, -0.8128930330276489, -0.09692428261041641, -3.9104490280151367, -6.954803943634033, -1.049560546875, 0.144775390625, -0.13037109375, 0, 
264, 3631442231, 0.29601919651031494, 0.6152172684669495, -0.413716197013855, 0.602288007736206, 9.551497459411621, -1.831129550933838, -0.8718454241752625, 0.4545631408691406, -3.9970507621765137, -6.887207984924316, -1.046875, 0.1416015625, -0.13330078125, 0, 
265, 3631450564, 0.2961858808994293, 0.6155861616134644, -0.41343992948532104, 0.6020186543464661, 9.601487159729004, -1.7620258331298828, -0.9655959606170654, 1.4912222623825073, -4.172225475311279, -6.976907730102539, -1.050537109375, 0.139404296875, -0.131103515625, 0, 
266, 3631458897, 0.29627329111099243, 0.6160050630569458, -0.413094699382782, 0.6017841696739197, 9.646981239318848, -1.618340253829956, -1.023896336555481, 3.3839101791381836, -4.384645462036133, -7.1858439445495605, -1.049560546875, 0.13818359375, -0.129638671875, 0, 
267, 3631467230, 0.2962852716445923, 0.6165187358856201, -0.41263651847839355, 0.6015666723251343, 9.650287628173828, -1.4364326000213623, -1.1120047569274902, 5.2901082038879395, -5.084848880767822, -7.861790180206299, -1.04931640625, 0.138671875, -0.127685546875, 0, 
268, 3631475563, 0.2962583899497986, 0.6170727610588074, -0.41212213039398193, 0.6013643741607666, 9.705387115478516, -1.2261033058166504, -1.1184346675872803, 6.486011981964111, -5.18950891494751, -8.309578895568848, -1.049560546875, 0.136962890625, -0.130615234375, 0, 
269, 3631483896, 0.29623591899871826, 0.6176378130912781, -0.4115499258041382, 0.6011871099472046, 9.686558723449707, -1.1254665851593018, -1.0587966442108154, 6.890190124511719, -4.888476848602295, -8.663119316101074, -1.0478515625, 0.136962890625, -0.133544921875, 0, 
270, 3631492229, 0.2962455153465271, 0.6181889772415161, -0.41098248958587646, 0.6010040640830994, 9.723036766052246, -1.0579957962036133, -0.9917377829551697, 6.712223052978516, -4.5791335105896, -8.966109275817871, -1.05078125, 0.134765625, -0.12841796875, 0, 
271, 3631500562, 0.29629266262054443, 0.6187277436256409, -0.4103766083717346, 0.6008404493331909, 9.718307495117188, -0.9497231841087341, -0.9086565971374512, 6.398116588592529, -4.0040693283081055, -9.305627822875977, -1.0498046875, 0.13134765625, -0.128662109375, 0, 
272, 3631508895, 0.296387255191803, 0.6192370653152466, -0.4097799062728882, 0.6006763577461243, 9.735458374023438, -0.9381506443023682, -0.84787517786026, 6.167614936828613, -3.474033832550049, -9.605083465576172, -1.052734375, 0.13232421875, -0.1298828125, 0, 
273, 3631517228, 0.2965407967567444, 0.6197173595428467, -0.40920889377593994, 0.600494384765625, 9.730691909790039, -0.8848573565483093, -0.83149254322052, 5.04358434677124, -3.2431209087371826, -9.649447441101074, -1.053955078125, 0.131591796875, -0.12646484375, 0, 
274, 3631525561, 0.2967430353164673, 0.6201258301734924, -0.40866488218307495, 0.6003433465957642, 9.638912200927734, -0.8849536776542664, -0.7358056902885437, 4.477726936340332, -2.137751340866089, -9.422645568847656, -1.048828125, 0.128173828125, -0.127685546875, 0, 
275, 3631533894, 0.29696741700172424, 0.6205092668533325, -0.4081009328365326, 0.6002197265625, 9.550975799560547, -0.9698991179466248, -0.5989592671394348, 4.1803202629089355, -1.560201644897461, -9.37907600402832, -1.052978515625, 0.12548828125, -0.125732421875, 0, 
276, 3631542227, 0.29722273349761963, 0.6208758354187012, -0.4075903594493866, 0.6000612378120422, 9.537888526916504, -1.051547646522522, -0.5736802816390991, 3.5373902320861816, -1.6940232515335083, -9.372198104858398, -1.05322265625, 0.125732421875, -0.128173828125, 0, 
277, 3631550560, 0.2975372076034546, 0.6212219595909119, -0.40712666511535645, 0.5998618602752686, 9.574297904968262, -1.154930591583252, -0.6077779531478882, 2.1336658000946045, -1.8215945959091187, -9.378613471984863, -1.049560546875, 0.122802734375, -0.129150390625, 0, 
278, 3631558893, 0.2978668808937073, 0.6215534806251526, -0.4067150354385376, 0.5996339321136475, 9.648101806640625, -1.1915888786315918, -0.665360152721405, 1.5522356033325195, -1.9864096641540527, -9.2285795211792, -1.052490234375, 0.1259765625, -0.126708984375, 0, 
279, 3631567226, 0.2981627285480499, 0.6218956708908081, -0.40630248188972473, 0.5994120240211487, 9.756250381469727, -1.2173432111740112, -0.7637544274330139, 1.6857882738113403, -2.286864757537842, -8.852869987487793, -1.053466796875, 0.125732421875, -0.127197265625, 0, 
280, 3631575559, 0.2985112965106964, 0.6221904754638672, -0.405989408493042, 0.5991446375846863, 9.775485038757324, -1.2025132179260254, -0.9482656121253967, 0.20705269277095795, -2.3210339546203613, -8.497394561767578, -1.0546875, 0.119873046875, -0.129150390625, 0, 
281, 3631583892, 0.29896295070648193, 0.6224116086959839, -0.40577226877212524, 0.5988366603851318, 9.67612075805664, -1.1315726041793823, -1.0062991380691528, -2.061830759048462, -1.980966567993164, -8.162961959838867, -1.0556640625, 0.122802734375, -0.130126953125, 0, 
282, 3631592225, 0.2995380163192749, 0.6225546598434448, -0.40565529465675354, 0.5984797477722168, 9.58127212524414, -1.0880999565124512, -1.0391649007797241, -4.4685444831848145, -1.3792626857757568, -8.204740524291992, -1.0517578125, 0.11767578125, -0.126953125, 0, 
283, 3631600558, 0.3002467155456543, 0.6226391196250916, -0.4056016206741333, 0.5980730652809143, 9.623132705688477, -1.0492154359817505, -1.1087090969085693, -6.592310905456543, -0.9542071223258972, -8.537430763244629, -1.053955078125, 0.119873046875, -0.12548828125, 0, 
284, 3631608891, 0.30100172758102417, 0.6227105259895325, -0.4055946171283722, 0.5976238250732422, 9.781684875488281, -0.9780192375183105, -1.1852284669876099, -7.724485397338867, -1.027540683746338, -8.72443962097168, -1.056396484375, 0.11669921875, -0.12255859375, 0, 
285, 3631617224, 0.30180978775024414, 0.6227431297302246, -0.40560346841812134, 0.5971761345863342, 9.918492317199707, -0.8810513615608215, -1.2740737199783325, -8.477875709533691, -0.575577437877655, -8.691703796386719, -1.05322265625, 0.117919921875, -0.1240234375, 0, 
286, 3631625557, 0.3026108741760254, 0.6227695941925049, -0.40557703375816345, 0.5967610478401184, 9.9121732711792, -0.8131355047225952, -1.2967567443847656, -7.954975605010986, -0.029161812737584114, -8.878575325012207, -1.0546875, 0.117431640625, -0.123779296875, 0, 
287, 3631633890, 0.303386926651001, 0.6228307485580444, -0.4054466187953949, 0.5963916778564453, 9.86256217956543, -0.8073016405105591, -1.293851375579834, -6.634573936462402, 0.27867013216018677, -9.441485404968262, -1.0537109375, 0.11279296875, -0.12255859375, 0, 
288, 3631642223, 0.30413246154785156, 0.6229210495948792, -0.40526896715164185, 0.596038281917572, 9.885988235473633, -0.8082025051116943, -1.269621729850769, -5.627908229827881, 0.29716354608535767, -9.815990447998047, -1.0537109375, 0.1142578125, -0.122802734375, 0, 
289, 3631650556, 0.30490991473197937, 0.6230082511901855, -0.4050159454345703, 0.5957215428352356, 9.9858980178833, -0.7881722450256348, -1.2778210639953613, -5.243899822235107, 1.0342388153076172, -10.427709579467773, -1.05517578125, 0.109375, -0.122802734375, 0, 
290, 3631658889, 0.3057340383529663, 0.6230448484420776, -0.4047059714794159, 0.5954715609550476, 9.969705581665039, -0.7541893124580383, -1.2637476921081543, -4.8669610023498535, 2.6146628856658936, -10.862715721130371, -1.056884765625, 0.111083984375, -0.126220703125, 0, 
291, 3631667222, 0.3065605163574219, 0.6231063604354858, -0.40425431728363037, 0.5952891111373901, 9.839649200439453, -0.781471848487854, -1.1860698461532593, -3.388200521469116, 3.5031700134277344, -11.824661254882812, -1.057373046875, 0.108154296875, -0.12158203125, 0, 
292, 3631675555, 0.3073025941848755, 0.6232872009277344, -0.4036486744880676, 0.595128059387207, 9.795921325683594, -0.8749072551727295, -1.0969728231430054, -0.6400229334831238, 2.9824066162109375, -13.150938987731934, -1.054931640625, 0.10888671875, -0.124755859375, 0, 
293, 3631683888, 0.3079327344894409, 0.6236535310745239, -0.4028454124927521, 0.5949629545211792, 9.773818016052246, -0.8642764091491699, -1.1199934482574463, 2.5772409439086914, 1.5492900609970093, -14.853621482849121, -1.055908203125, 0.1044921875, -0.126708984375, 0, 
294, 3631692221, 0.3084787130355835, 0.6241885423660278, -0.40189236402511597, 0.5947636961936951, 9.78303337097168, -0.74701988697052, -1.1716177463531494, 5.169325828552246, 0.13897009193897247, -16.650053024291992, -1.057861328125, 0.1025390625, -0.12548828125, 0, 
295, 3631700554, 0.3090214133262634, 0.6248232126235962, -0.4008294343948364, 0.5945327877998352, 9.833745002746582, -0.650294840335846, -1.1937718391418457, 6.252089977264404, -0.5970935225486755, -18.13247299194336, -1.0595703125, 0.098388671875, -0.1298828125, 0, 
296, 3631708887, 0.3096243143081665, 0.6254801154136658, -0.3997533321380615, 0.59425288438797, 9.857887268066406, -0.6084623336791992, -1.2075655460357666, 5.758902549743652, -0.7137025594711304, -19.18964385986328, -1.057861328125, 0.095947265625, -0.126708984375, 0, 
297, 3631717220, 0.3103281259536743, 0.626088559627533, -0.3987079858779907, 0.593947172164917, 9.878091812133789, -0.6114405393600464, -1.2097066640853882, 4.097805023193359, -0.20235250890254974, -19.46013832092285, -1.061279296875, 0.0908203125, -0.123291015625, 0, 
298, 3631725553, 0.3111562728881836, 0.6265928149223328, -0.39777711033821106, 0.593606173992157, 9.845093727111816, -0.6560962796211243, -1.24301016330719, 1.6471621990203857, 0.6230024099349976, -19.20135498046875, -1.0556640625, 0.0888671875, -0.12353515625, 0, 
299, 3631733886, 0.3121325671672821, 0.6269875764846802, -0.39697057008743286, 0.5932164192199707, 9.815855979919434, -0.7895668148994446, -1.2591240406036377, -1.6360588073730469, 1.2951971292495728, -18.812767028808594, -1.059814453125, 0.088623046875, -0.122314453125, 0, 
300, 3631742219, 0.3132881224155426, 0.6272602677345276, -0.3963519334793091, 0.5927324295043945, 9.712428092956543, -0.8916698694229126, -1.2817039489746094, -5.495535850524902, 1.7309209108352661, -18.528959274291992, -1.05810546875, 0.08544921875, -0.1240234375, 0, 
301, 3631750552, 0.31462833285331726, 0.6273822784423828, -0.39592790603637695, 0.5921765565872192, 9.66104507446289, -0.9842923283576965, -1.3526164293289185, -9.796603202819824, 2.4101336002349854, -17.724441528320312, -1.061279296875, 0.07958984375, -0.1259765625, 0, 
302, 3631758885, 0.3161121606826782, 0.6273470520973206, -0.39568841457366943, 0.5915834903717041, 9.600199699401855, -1.257915735244751, -1.4044089317321777, -13.339706420898438, 3.449803590774536, -16.726600646972656, -1.058837890625, 0.0791015625, -0.12646484375, 0, 
303, 3631767218, 0.3176981210708618, 0.6271497011184692, -0.395624041557312, 0.5909859538078308, 9.549528121948242, -1.4312231540679932, -1.552811861038208, -16.555177688598633, 4.438167095184326, -15.056564331054688, -1.059326171875, 0.080322265625, -0.125244140625, 0, 
304, 3631775551, 0.3192571997642517, 0.6268719434738159, -0.3956826329231262, 0.5904009938240051, 9.447510719299316, -1.6438368558883667, -1.69392728805542, -17.424945831298828, 4.6032891273498535, -13.412757873535156, -1.05908203125, 0.079345703125, -0.124267578125, 0, 
305, 3631783884, 0.32076364755630493, 0.6265612840652466, -0.3958379626274109, 0.589809775352478, 9.430956840515137, -1.7806074619293213, -1.8116358518600464, -17.98930549621582, 4.008424282073975, -11.887967109680176, -1.063232421875, 0.076904296875, -0.126220703125, 0, 
306, 3631792217, 0.32221484184265137, 0.6262211799621582, -0.3960677683353424, 0.5892254710197449, 9.45722484588623, -1.79888117313385, -1.893939733505249, -18.15460968017578, 3.776090621948242, -10.717897415161133, -1.06298828125, 0.07666015625, -0.1279296875, 0, 
307, 3631800550, 0.3236476182937622, 0.6258236765861511, -0.39632290601730347, 0.588690459728241, 9.430441856384277, -1.8186181783676147, -1.9687225818634033, -18.252044677734375, 4.354869842529297, -9.712051391601562, -1.062255859375, 0.075439453125, -0.126953125, 0, 
308, 3631808883, 0.32503649592399597, 0.6253799796104431, -0.39658811688423157, 0.5882180333137512, 9.41169548034668, -1.798493504524231, -1.8911222219467163, -17.755435943603516, 5.081801891326904, -8.847774505615234, -1.061279296875, 0.072509765625, -0.12646484375, 0, 
309, 3631817216, 0.3263474106788635, 0.624961793422699, -0.39676302671432495, 0.5878186225891113, 9.392237663269043, -1.7575677633285522, -1.8760510683059692, -15.870469093322754, 5.383677959442139, -8.705781936645508, -1.061279296875, 0.072265625, -0.12451171875, 0, 
310, 3631825549, 0.3274936378002167, 0.6246447563171387, -0.39680933952331543, 0.587486743927002, 9.413434982299805, -1.6215646266937256, -1.810538649559021, -12.5651273727417, 4.922518730163574, -8.830521583557129, -1.0615234375, 0.070556640625, -0.128662109375, 0, 
311, 3631833882, 0.3285014033317566, 0.6244633197784424, -0.39668285846710205, 0.5872024893760681, 9.399026870727539, -1.5069937705993652, -1.7798699140548706, -9.16411018371582, 4.165529251098633, -9.621145248413086, -1.06201171875, 0.070556640625, -0.127685546875, 0, 
312, 3631842215, 0.3293825387954712, 0.6243946552276611, -0.3964139223098755, 0.5869635343551636, 9.438721656799316, -1.4409279823303223, -1.6568759679794312, -6.115296840667725, 3.689359664916992, -10.332399368286133, -1.062255859375, 0.06884765625, -0.130615234375, 0, 
313, 3631850548, 0.3301674425601959, 0.6244107484817505, -0.39602768421173096, 0.5867658853530884, 9.44405460357666, -1.3958756923675537, -1.5295796394348145, -3.7741551399230957, 3.2759969234466553, -10.740050315856934, -1.060791015625, 0.0703125, -0.130615234375, 0, 
314, 3631858881, 0.33087658882141113, 0.6244964003562927, -0.3955589830875397, 0.5865914225578308, 9.505083084106445, -1.308614730834961, -1.4429280757904053, -1.9748833179473877, 2.9662697315216064, -11.207330703735352, -1.063720703125, 0.064697265625, -0.135009765625, 0, 
315, 3631867214, 0.3315103054046631, 0.6246476769447327, -0.394988477230072, 0.5864571332931519, 9.560135841369629, -1.2493903636932373, -1.3004486560821533, 0.041917700320482254, 2.7420685291290283, -11.563010215759277, -1.062255859375, 0.06689453125, -0.130859375, 0, 
316, 3631875547, 0.3320658206939697, 0.6248354315757751, -0.39433789253234863, 0.5863808393478394, 9.529266357421875, -1.2497714757919312, -1.3034383058547974, 1.810644507408142, 2.9790377616882324, -11.638992309570312, -1.0654296875, 0.064208984375, -0.129638671875, 0, 
317, 3631883880, 0.332527220249176, 0.6250737309455872, -0.39359182119369507, 0.5863664150238037, 9.475677490234375, -1.2457664012908936, -1.342227816581726, 3.9973323345184326, 2.937108039855957, -11.608309745788574, -1.059814453125, 0.05859375, -0.129150390625, 0, 
318, 3631892213, 0.3328888416290283, 0.6253929138183594, -0.39275747537612915, 0.5863804221153259, 9.492288589477539, -1.1378331184387207, -1.3434287309646606, 6.047226905822754, 2.483825206756592, -11.954779624938965, -1.06396484375, 0.06103515625, -0.1328125, 0, 
319, 3631900546, 0.3331977128982544, 0.6257941722869873, -0.391812264919281, 0.586409330368042, 9.546257019042969, -0.9756461977958679, -1.2915202379226685, 7.771655082702637, 2.090723991394043, -12.764522552490234, -1.063720703125, 0.0576171875, -0.1298828125, 0, 
320, 3631908879, 0.3334767818450928, 0.6262626647949219, -0.39077645540237427, 0.5864418148994446, 9.673506736755371, -0.8356330394744873, -1.2108088731765747, 9.166094779968262, 1.9159071445465088, -13.742399215698242, -1.06396484375, 0.056396484375, -0.132568359375, 0, 
321, 3631917212, 0.33375084400177, 0.6267611980438232, -0.3896641433238983, 0.5864929556846619, 9.779769897460938, -0.699116051197052, -1.128110408782959, 10.055522918701172, 2.073972225189209, -14.35196590423584, -1.06396484375, 0.05224609375, -0.1318359375, 0, 
322, 3631925545, 0.33404335379600525, 0.627252459526062, -0.38851553201675415, 0.586563229560852, 9.806746482849121, -0.5891109704971313, -1.0601013898849487, 10.266765594482422, 2.648090124130249, -14.771735191345215, -1.06396484375, 0.05224609375, -0.1318359375, 0, 
323, 3631933878, 0.3343981206417084, 0.6277233958244324, -0.3873899579048157, 0.586601972579956, 9.839414596557617, -0.5726752877235413, -1.0382837057113647, 9.257793426513672, 2.680978298187256, -15.027030944824219, -1.062744140625, 0.048583984375, -0.134521484375, 0, 
324, 3631942211, 0.3349088430404663, 0.6280999183654785, -0.3863822817802429, 0.5865722894668579, 9.778570175170898, -0.5907498002052307, -1.0508801937103271, 6.186262130737305, 3.22625470161438, -15.162760734558105, -1.06689453125, 0.0458984375, -0.134033203125, 0, 
325, 3631950544, 0.3356076776981354, 0.6283257603645325, -0.3854917287826538, 0.5865168571472168, 9.684298515319824, -0.7066479325294495, -1.0703269243240356, 2.7896082401275635, 4.596052169799805, -14.905976295471191, -1.065185546875, 0.0458984375, -0.134765625, 0, 
326, 3631958877, 0.3364255428314209, 0.6284128427505493, -0.38469070196151733, 0.5864808559417725, 9.616161346435547, -0.7669316530227661, -1.0736238956451416, 0.4990806579589844, 6.185338973999023, -14.348098754882812, -1.066162109375, 0.03857421875, -0.13427734375, 0, 
327, 3631967210, 0.3372843861579895, 0.6284291744232178, -0.3839113116264343, 0.5864808559417725, 9.550963401794434, -0.8938957452774048, -1.1139228343963623, -0.10305889695882797, 7.0961174964904785, -13.874555587768555, -1.0654296875, 0.03662109375, -0.136962890625, 0, 
328, 3631975543, 0.3380885720252991, 0.628463625907898, -0.3831442594528198, 0.5864824652671814, 9.512894630432129, -1.0143449306488037, -1.1019903421401978, 0.2981497347354889, 6.704322338104248, -13.491647720336914, -1.0634765625, 0.03515625, -0.13720703125, 0, 
329, 3631983876, 0.33884990215301514, 0.6285495758056641, -0.3823750615119934, 0.586452841758728, 9.511951446533203, -1.0976186990737915, -1.0931978225708008, 0.6874348521232605, 5.723987579345703, -13.496563911437988, -1.06689453125, 0.03564453125, -0.137451171875, 0, 
330, 3631992209, 0.33959001302719116, 0.6286733746528625, -0.3816556930541992, 0.5863605737686157, 9.552075386047363, -1.1673295497894287, -1.0407991409301758, 0.3887729346752167, 4.611997127532959, -13.46982479095459, -1.067626953125, 0.03466796875, -0.1357421875, 0, 
331, 3632000542, 0.34035831689834595, 0.6288204193115234, -0.3810439705848694, 0.5861554741859436, 9.480392456054688, -1.323752522468567, -0.9912992715835571, -1.192035436630249, 3.015807628631592, -13.34117603302002, -1.067138671875, 0.032958984375, -0.140625, 0, 
332, 3632008875, 0.3411267399787903, 0.6289699673652649, -0.38055506348609924, 0.58586585521698, 9.386900901794434, -1.5185801982879639, -1.1196309328079224, -2.628135919570923, 1.7703791856765747, -12.762818336486816, -1.066162109375, 0.02978515625, -0.138916015625, 0, 
333, 3632017208, 0.34190553426742554, 0.6290699243545532, -0.38019269704818726, 0.5855398178100586, 9.26960277557373, -1.6888734102249146, -1.2798997163772583, -4.114581108093262, 1.2335304021835327, -11.593195915222168, -1.06591796875, 0.02734375, -0.140380859375, 0, 
334, 3632025541, 0.342667818069458, 0.6291032433509827, -0.379943311214447, 0.5852202773094177, 9.266511917114258, -1.8204289674758911, -1.5002416372299194, -5.20695161819458, 1.2908294200897217, -10.17555046081543, -1.06787109375, 0.027099609375, -0.142578125, 0, 
335, 3632033874, 0.3433271050453186, 0.6291161775588989, -0.3797076940536499, 0.584972620010376, 9.348366737365723, -1.8567970991134644, -1.6036227941513062, -4.154654502868652, 1.3944004774093628, -8.710838317871094, -1.06494140625, 0.02392578125, -0.1416015625, 0, 
336, 3632042207, 0.34381598234176636, 0.6291999220848083, -0.3794339895248413, 0.5847729444503784, 9.448455810546875, -1.7789053916931152, -1.5741337537765503, -1.781700611114502, 0.6084278225898743, -7.882910251617432, -1.064697265625, 0.023681640625, -0.13916015625, 0, 
337, 3632050540, 0.3441317677497864, 0.6294082999229431, -0.3790401816368103, 0.5846185088157654, 9.569537162780762, -1.6320760250091553, -1.4829492568969727, 1.4773396253585815, -0.41395172476768494, -7.899662017822266, -1.06591796875, 0.02392578125, -0.1416015625, 0, 
338, 3632058873, 0.34430992603302, 0.6297584772109985, -0.3784980773925781, 0.584487795829773, 9.761310577392578, -1.4741140604019165, -1.3962125778198242, 4.684767246246338, -1.2868207693099976, -8.770737648010254, -1.0654296875, 0.02197265625, -0.140625, 0, 
339, 3632067206, 0.34441524744033813, 0.630226194858551, -0.3778078556060791, 0.5843679308891296, 9.946913719177246, -1.3479487895965576, -1.3052202463150024, 7.152200222015381, -1.8917139768600464, -9.97026538848877, -1.068603515625, 0.0234375, -0.139892578125, 0, 
340, 3632075539, 0.3445170819759369, 0.6307585835456848, -0.3770233988761902, 0.584240198135376, 10.094310760498047, -1.2345242500305176, -1.2106858491897583, 8.172441482543945, -1.9757033586502075, -11.190581321716309, -1.06689453125, 0.017333984375, -0.140625, 0, 
341, 3632083872, 0.34468215703964233, 0.6312873363494873, -0.37618255615234375, 0.5841138958930969, 10.148636817932129, -1.076103925704956, -1.2430678606033325, 8.167572975158691, -1.4117286205291748, -12.111820220947266, -1.064697265625, 0.015625, -0.137939453125, 0, 
342, 3632092205, 0.345000684261322, 0.6317316889762878, -0.3753194510936737, 0.5840005278587341, 10.130507469177246, -0.9158085584640503, -1.3253536224365234, 6.579772472381592, 0.3513120412826538, -13.090719223022461, -1.0673828125, 0.016845703125, -0.140625, 0, 
343, 3632100538, 0.34552234411239624, 0.6320412755012512, -0.37440818548202515, 0.5839418768882751, 10.00627613067627, -0.8840265274047852, -1.269309163093567, 4.84935188293457, 3.1125783920288086, -14.129327774047852, -1.0673828125, 0.012451171875, -0.139892578125, 0, 
344, 3632108871, 0.34616613388061523, 0.6322842240333557, -0.3734590411186218, 0.5839053392410278, 9.983519554138184, -0.9928643703460693, -1.2405836582183838, 3.8847453594207764, 4.721741199493408, -15.047391891479492, -1.069091796875, 0.01123046875, -0.13916015625, 0, 
345, 3632117204, 0.34688520431518555, 0.6325101256370544, -0.3724712133407593, 0.5838650465011597, 10.134429931640625, -1.0472716093063354, -1.339029312133789, 3.4779398441314697, 5.32600736618042, -15.867892265319824, -1.06640625, 0.0107421875, -0.144775390625, 0, 
346, 3632125537, 0.34763824939727783, 0.632738471031189, -0.3714387118816376, 0.5838273167610168, 10.240801811218262, -1.124732494354248, -1.363075852394104, 3.5283749103546143, 5.78478479385376, -16.578819274902344, -1.067626953125, 0.0048828125, -0.141845703125, 0, 
347, 3632133870, 0.3484300971031189, 0.6330087780952454, -0.3703799247741699, 0.5837352275848389, 10.335679054260254, -1.4480884075164795, -1.4596154689788818, 3.4275827407836914, 5.230236530303955, -17.55208396911621, -1.06787109375, 0.003662109375, -0.14404296875, 0, 
348, 3632142203, 0.3491829037666321, 0.6333153247833252, -0.3692798614501953, 0.583649754524231, 10.35481071472168, -1.718270182609558, -1.6725897789001465, 4.2048468589782715, 5.065715789794922, -17.79159927368164, -1.067138671875, -0.002685546875, -0.148193359375, 0, 
349, 3632150536, 0.3498711585998535, 0.6335980296134949, -0.36816757917404175, 0.5836334228515625, 10.248514175415039, -1.8942234516143799, -1.9563227891921997, 5.166956424713135, 5.524095058441162, -16.885560989379883, -1.06640625, -0.002685546875, -0.1396484375, 0, 
350, 3632158869, 0.35049840807914734, 0.6338832974433899, -0.3671102821826935, 0.5836132168769836, 10.252638816833496, -2.216477155685425, -2.290419101715088, 5.184603691101074, 4.962733268737793, -15.990342140197754, -1.068603515625, -0.005126953125, -0.146484375, 0, 
351, 3632167202, 0.3509858250617981, 0.6342309713363647, -0.3661195635795593, 0.5835649967193604, 10.442819595336914, -2.490964412689209, -2.5404396057128906, 6.083394527435303, 3.1261024475097656, -14.700345039367676, -1.06591796875, -0.009033203125, -0.14404296875, 0, 
352, 3632175535, 0.3512928783893585, 0.634545087814331, -0.36522504687309265, 0.5835993885993958, 10.878777503967285, -2.61965012550354, -2.4904167652130127, 7.082479000091553, 2.8079230785369873, -11.883881568908691, -1.066162109375, -0.0107421875, -0.146728515625, 0, 
353, 3632183868, 0.3514370322227478, 0.634609043598175, -0.3643922209739685, 0.5839633941650391, 11.299567222595215, -2.626736879348755, -2.1728997230529785, 8.465044975280762, 6.515622615814209, -7.154480457305908, -1.072021484375, -0.01220703125, -0.148681640625, 0, 
354, 3632192201, 0.35139715671539307, 0.6343934535980225, -0.363606333732605, 0.5847110152244568, 11.345752716064453, -2.574702739715576, -1.8656033277511597, 10.255877494812012, 11.018465042114258, -2.046910524368286, -1.070068359375, -0.015625, -0.147216796875, 0, 
355, 3632200534, 0.3511592745780945, 0.6340364217758179, -0.36289459466934204, 0.5856823921203613, 11.193302154541016, -2.662515878677368, -1.8302913904190063, 11.826699256896973, 12.703960418701172, 2.0054030418395996, -1.06689453125, -0.012451171875, -0.14990234375, 0, 
356, 3632208867, 0.35070958733558655, 0.633638858795166, -0.3623524308204651, 0.586716890335083, 11.178950309753418, -2.793416976928711, -1.9960116147994995, 12.423663139343262, 11.759843826293945, 5.6719279289245605, -1.068603515625, -0.015869140625, -0.151611328125, 0, 
357, 3632217200, 0.3501008152961731, 0.6331146359443665, -0.3620295226573944, 0.587844729423523, 11.292084693908691, -2.9698164463043213, -2.0109353065490723, 11.905511856079102, 11.693758964538574, 9.966745376586914, -1.068115234375, -0.010986328125, -0.15576171875, 0, 
358, 3632225533, 0.34940797090530396, 0.6323302388191223, -0.3619551360607147, 0.5891456007957458, 11.24322509765625, -3.2469141483306885, -1.7750563621520996, 10.225655555725098, 13.740057945251465, 14.91664981842041, -1.06591796875, -0.009033203125, -0.157958984375, 0, 
359, 3632233866, 0.34870070219039917, 0.6312334537506104, -0.3622297942638397, 0.5905702114105225, 10.91995906829834, -3.5917017459869385, -1.5346184968948364, 6.635563373565674, 15.54822063446045, 20.234066009521484, -1.0673828125, -0.010009765625, -0.16259765625, 0, 
360, 3632242199, 0.34795933961868286, 0.6298225522041321, -0.36294281482696533, 0.5920739769935608, 10.59687328338623, -3.951575756072998, -1.4135459661483765, 2.2626354694366455, 16.565021514892578, 26.244701385498047, -1.0654296875, -0.006103515625, -0.163818359375, 0, 
361, 3632250532, 0.3469938039779663, 0.6282176375389099, -0.36406999826431274, 0.5936517715454102, 10.459342956542969, -4.168028831481934, -1.4965416193008423, 0.15290433168411255, 15.638416290283203, 32.98998260498047, -1.062255859375, -0.00537109375, -0.1650390625, 0, 
362, 3632258865, 0.3456997275352478, 0.6264368295669556, -0.3655882179737091, 0.5953530669212341, 10.343240737915039, -4.2861785888671875, -1.5810332298278809, -0.301787406206131, 14.677863121032715, 40.51078414916992, -1.064208984375, 0.00439453125, -0.170654296875, 0, 
363, 3632267198, 0.3440859913825989, 0.6243678331375122, -0.3674328327178955, 0.5973225235939026, 10.334894180297852, -4.297950267791748, -1.6358603239059448, -0.41697511076927185, 16.14337158203125, 48.665382385253906, -1.06103515625, 0.01123046875, -0.17333984375, 0, 
364, 3632275531, 0.34200575947761536, 0.622129499912262, -0.36957502365112305, 0.59952712059021, 10.080174446105957, -4.324947357177734, -1.6224347352981567, 1.7062079906463623, 15.831707954406738, 57.015708923339844, -1.0595703125, 0.017333984375, -0.176513671875, 0, 
365, 3632283864, 0.3393072783946991, 0.6198865175247192, -0.3719303607940674, 0.6019223928451538, 9.77224349975586, -4.440199851989746, -1.4271329641342163, 6.034122467041016, 13.320171356201172, 64.8487548828125, -1.06103515625, 0.023681640625, -0.174072265625, 0, 
366, 3632292197, 0.3359036445617676, 0.6177883744239807, -0.37441426515579224, 0.6044433116912842, 9.520602226257324, -4.451633453369141, -0.9222216606140137, 12.44974136352539, 9.02400016784668, 71.63570404052734, -1.059326171875, 0.0361328125, -0.179931640625, 0, 
367, 3632300530, 0.3321075439453125, 0.6155598163604736, -0.37703603506088257, 0.607178807258606, 9.768348693847656, -4.4164509773254395, -0.9333059191703796, 14.929340362548828, 9.242717742919922, 77.71382141113281, -1.056396484375, 0.048583984375, -0.185791015625, 0, 
368, 3632308863, 0.3282448947429657, 0.6128420829772949, -0.37968209385871887, 0.6103712916374207, 9.753311157226562, -4.026864051818848, -1.0385712385177612, 15.636813163757324, 16.76902198791504, 83.11637115478516, -1.0537109375, 0.056884765625, -0.187744140625, 0, 
369, 3632317196, 0.32391518354415894, 0.6100523471832275, -0.38234302401542664, 0.6138081550598145, 9.32676887512207, -4.213623046875, -0.6993511915206909, 20.17380714416504, 16.90601921081543, 88.61266326904297, -1.053955078125, 0.070556640625, -0.19091796875, 0, 
370, 3632325529, 0.3197096586227417, 0.6068578958511353, -0.38583457469940186, 0.6169865727424622, 9.006332397460938, -4.682192802429199, -0.6246250867843628, 9.183996200561523, 15.128597259521484, 95.53754425048828, -1.052734375, 0.0830078125, -0.19140625, 0, 
371, 3632333862, 0.31601327657699585, 0.6029226183891296, -0.39034953713417053, 0.6199021339416504, 8.95475959777832, -4.9416399002075195, -0.5539339184761047, -8.62944221496582, 17.409687042236328, 102.49668884277344, -1.045654296875, 0.09765625, -0.19921875, 0, 
372, 3632342195, 0.31314700841903687, 0.5980114936828613, -0.39584797620773315, 0.6226211190223694, 9.1053466796875, -5.062555313110352, -0.23626123368740082, -28.961719512939453, 24.293254852294922, 107.9944076538086, -1.043212890625, 0.111572265625, -0.19921875, 0, 
373, 3632350528, 0.31091463565826416, 0.5923269987106323, -0.40218234062194824, 0.6251094937324524, 9.117634773254395, -4.909873962402344, -0.09927861392498016, -46.14022445678711, 28.862682342529297, 112.6098403930664, -1.04052734375, 0.128662109375, -0.204833984375, 0, 
374, 3632358861, 0.3086457848548889, 0.5866277813911438, -0.4090483784675598, 0.6271496415138245, 9.097057342529297, -4.591953754425049, -0.4154731333255768, -52.73121643066406, 22.869543075561523, 115.46802520751953, -1.03662109375, 0.14697265625, -0.208984375, 0, 
375, 3632367194, 0.305995911359787, 0.5813319087028503, -0.41618672013282776, 0.6286811232566833, 9.263614654541016, -4.22503137588501, -0.6763377785682678, -53.366947174072266, 11.988815307617188, 116.4638900756836, -1.03125, 0.16552734375, -0.208984375, 0, 
376, 3632375527, 0.30303955078125, 0.5763884782791138, -0.42342495918273926, 0.6298303604125977, 9.719303131103516, -3.7496585845947266, -0.6665929555892944, -52.273704528808594, 3.712221622467041, 116.34671783447266, -1.025146484375, 0.18505859375, -0.2109375, 0, 
377, 3632383860, 0.29968011379241943, 0.5718099474906921, -0.4305126667022705, 0.6308053731918335, 10.326976776123047, -3.2476556301116943, -0.5396813154220581, -47.48318099975586, -2.5407493114471436, 115.72686004638672, -1.019775390625, 0.20361328125, -0.209716796875, 0, 
378, 3632392193, 0.29584193229675293, 0.5676379203796387, -0.437211275100708, 0.631777286529541, 10.961508750915527, -2.8202998638153076, -0.5423538088798523, -38.47228240966797, -7.328071594238281, 114.4659423828125, -1.017822265625, 0.220458984375, -0.209716796875, 0, 
379, 3632400526, 0.2913817763328552, 0.5639108419418335, -0.44333043694496155, 0.632922351360321, 11.435222625732422, -2.511425495147705, -0.47678428888320923, -25.965078353881836, -11.202725410461426, 113.30694580078125, -1.00732421875, 0.240478515625, -0.207275390625, 0, 
380, 3632408859, 0.2863215208053589, 0.5606605410575867, -0.44884830713272095, 0.6342288255691528, 11.541183471679688, -2.470693826675415, -0.3332544267177582, -12.950844764709473, -15.374516487121582, 111.67683410644531, -1.00439453125, 0.25537109375, -0.20654296875, 0, 
381, 3632417192, 0.28079754114151, 0.5578863620758057, -0.45385777950286865, 0.6355786323547363, 11.570825576782227, -2.6265552043914795, 0.03014962002635002, -3.067734718322754, -20.008378982543945, 108.9677963256836, -1.000244140625, 0.27294921875, -0.208251953125, 0, 
382, 3632425525, 0.27510541677474976, 0.5553447008132935, -0.45872771739959717, 0.6367965340614319, 11.673720359802246, -2.6566622257232666, 0.37765446305274963, -0.2155076414346695, -23.606748580932617, 107.47069549560547, -0.996826171875, 0.2890625, -0.202880859375, 0, 
383, 3632433858, 0.2693216800689697, 0.5527740120887756, -0.4635593295097351, 0.6380057334899902, 11.421431541442871, -2.6192736625671387, 0.5246720314025879, 0.4135974943637848, -23.811031341552734, 108.06684875488281, -0.984619140625, 0.299560546875, -0.200439453125, 0, 
384, 3632442191, 0.26358893513679504, 0.5500988960266113, -0.4685747027397156, 0.6390474438667297, 11.316864967346191, -2.590352773666382, 0.8095234632492065, -2.7993083000183105, -24.56568145751953, 109.12553405761719, -0.981689453125, 0.320068359375, -0.200439453125, 0, 
385, 3632450524, 0.2578451633453369, 0.5473363399505615, -0.47379299998283386, 0.6399145722389221, 11.384713172912598, -2.5970728397369385, 0.5652366280555725, -6.190672397613525, -25.872873306274414, 110.6297378540039, -0.977783203125, 0.333251953125, -0.1962890625, 0, 
386, 3632458857, 0.2523997128009796, 0.5443241000175476, -0.47931599617004395, 0.6405415534973145, 10.733810424804688, -3.0304479598999023, 0.9995495080947876, -13.317968368530273, -24.669252395629883, 111.1312484741211, -0.967041015625, 0.345458984375, -0.197265625, 0, 
387, 3632467190, 0.2469814121723175, 0.5414648652076721, -0.4853915274143219, 0.6405016779899597, 10.54767894744873, -3.146775722503662, 0.8337581157684326, -22.5054988861084, -32.692718505859375, 111.65184783935547, -0.962890625, 0.36328125, -0.1904296875, 0, 
388, 3632475523, 0.24155659973621368, 0.5383778214454651, -0.49154120683670044, 0.640483021736145, 10.560524940490723, -3.1223442554473877, 0.6441463828086853, -23.488529205322266, -30.88129997253418, 113.90962219238281, -0.954345703125, 0.380126953125, -0.187255859375, 0, 
389, 3632483856, 0.2354935258626938, 0.5354701280593872, -0.4973370432853699, 0.6407041549682617, 10.308450698852539, -3.4447646141052246, 0.31503137946128845, -13.665821075439453, -33.76570129394531, 116.4425277709961, -0.948486328125, 0.396728515625, -0.180419921875, 0, 
390, 3632492189, 0.2291521579027176, 0.5325566530227661, -0.5027709007263184, 0.6411906480789185, 10.456948280334473, -3.516098737716675, -0.17632709443569183, -6.396290302276611, -32.55039978027344, 117.18040466308594, -0.9443359375, 0.412109375, -0.1787109375, 0, 
391, 3632500522, 0.22231267392635345, 0.5297703146934509, -0.5077247619628906, 0.6420025825500488, 10.403543472290039, -3.810102701187134, -0.4429951310157776, 3.8842074871063232, -33.14859390258789, 118.1558837890625, -0.93310546875, 0.429443359375, -0.17529296875, 0, 
392, 3632508855, 0.21533708274364471, 0.5267781019210815, -0.5126925110816956, 0.6428939700126648, 9.7630615234375, -4.065993785858154, -0.7955052852630615, 4.929079055786133, -31.814697265625, 121.18672180175781, -0.922607421875, 0.438720703125, -0.171875, 0, 
393, 3632517188, 0.2080204337835312, 0.5241733193397522, -0.5173529982566833, 0.6436981558799744, 9.896993637084961, -3.454556465148926, -1.2160457372665405, 10.390057563781738, -37.28318405151367, 118.94425201416016, -0.915771484375, 0.4580078125, -0.170654296875, 0, 
394, 3632525521, 0.20067539811134338, 0.5216683745384216, -0.5215121507644653, 0.6447077393531799, 9.890656471252441, -2.8603947162628174, -1.191381812095642, 17.037443161010742, -35.5381965637207, 115.50160217285156, -0.9052734375, 0.47216796875, -0.16943359375, 0, 
395, 3632533854, 0.19340157508850098, 0.5192766189575195, -0.5253123044967651, 0.6457756757736206, 9.9219388961792, -2.3339180946350098, -1.0733721256256104, 20.189105987548828, -34.53009033203125, 111.60616302490234, -0.89794921875, 0.487548828125, -0.1689453125, 0, 
396, 3632542187, 0.18648308515548706, 0.5169418454170227, -0.5290922522544861, 0.6465976238250732, 9.300104141235352, -2.03922700881958, -0.6190140247344971, 16.457693099975586, -34.26162338256836, 107.27745819091797, -0.887451171875, 0.498291015625, -0.16455078125, 0, 
397, 3632550520, 0.18035544455051422, 0.5143805742263794, -0.5333418846130371, 0.6468870043754578, 9.85047721862793, -1.8012747764587402, -0.4565904438495636, 1.9117767810821533, -31.36185646057129, 103.84368896484375, -0.881591796875, 0.511962890625, -0.166748046875, 0, 
398, 3632558853, 0.17465637624263763, 0.512354850769043, -0.5379674434661865, 0.6462279558181763, 8.697608947753906, -1.238811731338501, -0.23651909828186035, -9.80052375793457, -40.74679183959961, 96.4344253540039, -0.870361328125, 0.523193359375, -0.16357421875, 0, 
399, 3632567186, 0.169623464345932, 0.5099334120750427, -0.5426905751228333, 0.6455342769622803, 9.58049488067627, -1.0081520080566406, -0.1314670294523239, -16.84444236755371, -32.65578842163086, 94.02995300292969, -0.867431640625, 0.536865234375, -0.1591796875, 0, 
400, 3632575519, 0.16496653854846954, 0.5076786279678345, -0.5473893284797668, 0.6445503830909729, 8.308956146240234, -1.3350825309753418, 0.1647602617740631, -20.764822006225586, -33.430908203125, 88.61552429199219, -0.856201171875, 0.54736328125, -0.151123046875, 0, 
401, 3632583852, 0.16038484871387482, 0.5054438710212708, -0.5520728826522827, 0.6434673070907593, 8.469779968261719, -1.4880512952804565, 0.29666075110435486, -22.11854362487793, -33.580902099609375, 87.46344757080078, -0.84619140625, 0.558349609375, -0.151123046875, 0, 
402, 3632592185, 0.1559610813856125, 0.503471851348877, -0.5563076138496399, 0.6424528360366821, 8.481064796447754, -1.5597347021102905, 0.0401788130402565, -17.88038444519043, -33.35981750488281, 81.10820007324219, -0.837158203125, 0.56982421875, -0.141845703125, 0, 
403, 3632600518, 0.1517314910888672, 0.5019214153289795, -0.5600782036781311, 0.6414018273353577, 7.981471538543701, -1.9489209651947021, 0.132818803191185, -14.530208587646484, -34.8961067199707, 72.84659576416016, -0.83203125, 0.57958984375, -0.1396484375, 0, 
404, 3632608851, 0.14801979064941406, 0.5004777908325195, -0.563656210899353, 0.6402620077133179, 8.240702629089355, -2.245781660079956, 0.19847358763217926, -16.838268280029297, -32.021026611328125, 65.96895599365234, -0.823486328125, 0.587890625, -0.136474609375, 0, 
405, 3632617184, 0.14459972083568573, 0.4991642236709595, -0.5671008825302124, 0.6390260457992554, 7.613482475280762, -2.6076529026031494, 0.34593868255615234, -18.185338973999023, -31.335128784179688, 61.260738372802734, -0.81982421875, 0.596923828125, -0.13134765625, 0, 
406, 3632625517, 0.14166444540023804, 0.4979134202003479, -0.5704231858253479, 0.6377009153366089, 7.703672409057617, -2.274383783340454, 0.3871919810771942, -20.974679946899414, -28.434316635131836, 55.514183044433594, -0.8115234375, 0.604736328125, -0.125732421875, 0, 
407, 3632633850, 0.1388910561800003, 0.49706828594207764, -0.5733324885368347, 0.6363597512245178, 7.36550760269165, -1.9930235147476196, 0.44875624775886536, -17.8261775970459, -30.073022842407227, 48.03778839111328, -0.807373046875, 0.608642578125, -0.11767578125, 0, 
408, 3632642183, 0.13615991175174713, 0.49647974967956543, -0.57598477602005, 0.6350128054618835, 6.890878677368164, -1.9307676553726196, 0.638180673122406, -15.390124320983887, -31.48927879333496, 43.89424514770508, -0.802490234375, 0.615478515625, -0.11669921875, 0, 
409, 3632650516, 0.13373926281929016, 0.49612200260162354, -0.5784348249435425, 0.6335783004760742, 7.41953706741333, -1.4973381757736206, 0.5624028444290161, -16.04071044921875, -31.31279754638672, 37.80024719238281, -0.80078125, 0.619384765625, -0.113525390625, 0, 
410, 3632658849, 0.13179755210876465, 0.49582213163375854, -0.5805312395095825, 0.6323012113571167, 6.859294414520264, -1.4825044870376587, 0.8114390969276428, -14.833277702331543, -26.234785079956055, 31.052095413208008, -0.795654296875, 0.62451171875, -0.109130859375, 0, 
411, 3632667182, 0.13022755086421967, 0.49578607082366943, -0.5825687050819397, 0.6307792067527771, 6.7994160652160645, -1.4399259090423584, 0.8229667544364929, -18.369991302490234, -27.172082901000977, 24.867576599121094, -0.792724609375, 0.627197265625, -0.104248046875, 0, 
412, 3632675515, 0.12925660610198975, 0.4958575963973999, -0.58455491065979, 0.6290827393531799, 6.564385414123535, -1.2978426218032837, 0.8999173641204834, -23.17765998840332, -24.356098175048828, 18.15007781982422, -0.79150390625, 0.631103515625, -0.097412109375, 0, 
413, 3632683848, 0.1288757473230362, 0.4961211383342743, -0.5865434408187866, 0.6270990967750549, 6.549346923828125, -1.215290904045105, 0.738306999206543, -29.222728729248047, -23.2927188873291, 11.012354850769043, -0.791748046875, 0.633056640625, -0.093994140625, 0, 
414, 3632692181, 0.12911301851272583, 0.4967213273048401, -0.5886560082435608, 0.6245907545089722, 6.349578857421875, -1.3270199298858643, 0.5403401255607605, -38.11090850830078, -24.953826904296875, 2.877943515777588, -0.787353515625, 0.636962890625, -0.08544921875, 0, 
415, 3632700514, 0.13010181486606598, 0.4975602924823761, -0.5907005667686462, 0.6217811107635498, 6.29793643951416, -1.4612160921096802, 0.3274131715297699, -44.709327697753906, -22.91642951965332, -6.498717308044434, -0.788818359375, 0.638427734375, -0.080810546875, 0, 
416, 3632708847, 0.1316283941268921, 0.49876272678375244, -0.5923891067504883, 0.6188832521438599, 6.118844032287598, -1.7427359819412231, 0.2846781015396118, -45.37651443481445, -21.564741134643555, -16.65373992919922, -0.7890625, 0.639404296875, -0.078369140625, 0, 
417, 3632717180, 0.1338026523590088, 0.5002174973487854, -0.5938074588775635, 0.6158761382102966, 5.793459415435791, -2.0264089107513428, 0.13944391906261444, -47.98828887939453, -18.75796127319336, -26.253856658935547, -0.793701171875, 0.634765625, -0.0625, 0, 
418, 3632725513, 0.13673235476016998, 0.5019135475158691, -0.595177412033081, 0.6125213503837585, 5.539007186889648, -2.4188191890716553, -0.1572553813457489, -55.1343879699707, -16.87248420715332, -35.613059997558594, -0.7939453125, 0.634033203125, -0.05908203125, 0, 
419, 3632733846, 0.140363872051239, 0.503759503364563, -0.5964943170547485, 0.6088927388191223, 5.315478324890137, -2.9324100017547607, -0.596255362033844, -61.527889251708984, -14.250143051147461, -43.60856246948242, -0.79736328125, 0.630859375, -0.048095703125, 0, 
420, 3632742179, 0.14444969594478607, 0.5058200359344482, -0.5975430011749268, 0.6051895618438721, 5.126918792724609, -3.749488115310669, -1.021824598312378, -62.590030670166016, -12.251359939575195, -51.198856353759766, -0.8046875, 0.623291015625, -0.042724609375, 0, 
421, 3632750512, 0.1487724930047989, 0.5082954168319702, -0.5981484651565552, 0.6014586091041565, 5.002171516418457, -4.746758937835693, -1.4381557703018188, -59.98582458496094, -13.139904022216797, -59.69184494018555, -0.809326171875, 0.62109375, -0.03369140625, 0, 
422, 3632758845, 0.15334026515483856, 0.5110731720924377, -0.5983031988143921, 0.5977924466133118, 5.125089168548584, -5.61478853225708, -1.891896367073059, -56.78656005859375, -12.179062843322754, -67.24848175048828, -0.811767578125, 0.614013671875, -0.023193359375, 0, 
423, 3632767178, 0.15762807428836823, 0.5145386457443237, -0.5980021357536316, 0.5939936637878418, 5.27789306640625, -6.691951274871826, -2.5845518112182617, -50.7474250793457, -20.17848014831543, -74.0662612915039, -0.81689453125, 0.607177734375, -0.01904296875, 0, 
424, 3632775511, 0.1612815409898758, 0.5185537338256836, -0.5970007181167603, 0.5905184745788574, 6.314010143280029, -7.824528217315674, -2.9327995777130127, -36.65312957763672, -26.0052433013916, -77.68010711669922, -0.82421875, 0.6005859375, -0.010009765625, 0, 
425, 3632783844, 0.16457998752593994, 0.522423267364502, -0.5954099893569946, 0.5877974629402161, 7.019384384155273, -9.052504539489746, -3.5581257343292236, -23.498214721679688, -21.124324798583984, -76.11734008789062, -0.833740234375, 0.58984375, -0.00146484375, 0, 
426, 3632792177, 0.16751019656658173, 0.525711715221405, -0.593587338924408, 0.5858782529830933, 7.588881969451904, -10.364559173583984, -4.305513381958008, -13.697016716003418, -13.08754825592041, -68.24776458740234, -0.83984375, 0.58056640625, 0.00390625, 0, 
427, 3632800510, 0.17025895416736603, 0.5282799005508423, -0.5920695066452026, 0.584309458732605, 7.240738391876221, -11.228160858154297, -4.781486511230469, -13.66958999633789, -7.001723766326904, -57.890628814697266, -0.843994140625, 0.576904296875, 0.005859375, 0, 
428, 3632808843, 0.1726483255624771, 0.5302248597145081, -0.5907564759254456, 0.5831745266914368, 7.399161338806152, -11.734134674072266, -5.183854579925537, -10.601754188537598, -2.180595636367798, -47.43051528930664, -0.8515625, 0.5703125, 0.00732421875, 0, 
429, 3632817176, 0.17450585961341858, 0.5318632125854492, -0.5893635749816895, 0.5825387239456177, 7.261263370513916, -12.13267993927002, -5.329344272613525, -2.7810184955596924, -0.2797847092151642, -40.07875061035156, -0.85400390625, 0.5654296875, 0.005859375, 0, 
430, 3632825509, 0.17577104270458221, 0.5332213044166565, -0.5880647897720337, 0.5822292566299438, 7.123852729797363, -12.116167068481445, -5.457042694091797, 2.793682813644409, -0.6086971759796143, -31.586217880249023, -0.860107421875, 0.56396484375, 0.0107421875, 0, 
431, 3632833842, 0.1763436198234558, 0.5342699885368347, -0.5867282748222351, 0.5824431777000427, 7.098825931549072, -11.534619331359863, -5.4577507972717285, 11.625706672668457, 0.14086556434631348, -22.567588806152344, -0.859619140625, 0.560302734375, 0.0126953125, 0, 
432, 3632842175, 0.17617519199848175, 0.534890353679657, -0.5853550434112549, 0.5833058953285217, 6.964339256286621, -10.758996963500977, -4.697738170623779, 21.59483528137207, 2.5064055919647217, -11.855722427368164, -0.861572265625, 0.5537109375, 0.008056640625, 0, 
433, 3632850508, 0.17527452111244202, 0.5351371169090271, -0.5844600200653076, 0.5842475891113281, 6.623628616333008, -9.741793632507324, -3.8436193466186523, 22.836095809936523, -1.0203561782836914, 0.7017534971237183, -0.863037109375, 0.555419921875, 0.005126953125, 0, 
434, 3632858841, 0.17366726696491241, 0.5351943969726562, -0.5841805338859558, 0.5849542617797852, 6.812864780426025, -8.097856521606445, -3.178912878036499, 20.781837463378906, -8.33960247039795, 11.895180702209473, -0.86181640625, 0.55859375, 0.00439453125, 0, 
435, 3632867174, 0.17173640429973602, 0.5347632765769958, -0.5848538279533386, 0.5852455496788025, 6.888309001922607, -6.13955020904541, -2.8410913944244385, 10.960237503051758, -12.389114379882812, 24.3992919921875, -0.85986328125, 0.559326171875, 0.005615234375, 0, 
436, 3632875507, 0.1698242872953415, 0.5340449810028076, -0.5867381691932678, 0.584572970867157, 6.760680198669434, -4.05469274520874, -3.103607654571533, -7.316870212554932, -19.82854461669922, 33.2299690246582, -0.856689453125, 0.562744140625, 0.007568359375, 0, 
437, 3632883840, 0.16774842143058777, 0.5333983302116394, -0.5893704295158386, 0.5831130743026733, 6.229133605957031, -1.5844887495040894, -4.199772357940674, -18.352294921875, -29.296436309814453, 37.57339859008789, -0.851806640625, 0.568115234375, 0.009765625, 0, 
438, 3632892173, 0.16243912279605865, 0.5356429815292358, -0.5909951329231262, 0.5809102058410645, 6.6254377365112305, 2.518399238586426, -6.380454063415527, 14.132367134094238, -81.76981353759766, 31.013696670532227, -0.849609375, 0.570068359375, 0.01708984375, 0, 
439, 3632900506, 0.15007156133651733, 0.5429829359054565, -0.5838471055030823, 0.5846384763717651, 10.882111549377441, 6.002989768981934, -6.755047798156738, 195.7571258544922, -116.59693145751953, -5.428340911865234, -0.850341796875, 0.57421875, 0.022216796875, 0, 
440, 3632908839, 0.13854189217090607, 0.5514764785766602, -0.5698748230934143, 0.5932570099830627, 18.642831802368164, 2.957291841506958, 6.282352447509766, 286.0545654296875, -68.50464630126953, -62.246334075927734, -0.85546875, 0.566162109375, 0.00146484375, 0, 
441, 3632917172, 0.13912907242774963, 0.5565794706344604, -0.5622498393058777, 0.5956249833106995, 19.932329177856445, 0.7540569305419922, 13.353741645812988, 86.89839172363281, -5.417877674102783, -98.32095336914062, -0.864013671875, 0.55419921875, -0.012451171875, 0, 
442, 3632925505, 0.1527131199836731, 0.5570022463798523, -0.5626336932182312, 0.591525137424469, 16.53226661682129, -3.026124954223633, 11.356175422668457, -137.11175537109375, 68.61692810058594, -119.64105224609375, -0.8720703125, 0.542724609375, -0.0078125, 0, 
