PacketCounter,SampleTimeFine,Quat_W,Quat_X,Quat_Y,Quat_Z,Acc_X,Acc_Y,Acc_Z,Gyr_X,Gyr_Y,Gyr_Z,Mag_X,Mag_Y,Mag_Z,Status,
0, 1006747223, -0.28341418504714966, -0.5999796390533447, 0.4064042866230011, -0.6281334757804871, 0, 0, 0, 0, 0, 0, -1.0537109375, -0.105712890625, -0.129638671875, 0, 
1, 1006755556, -0.28351402282714844, -0.599863588809967, 0.40655526518821716, -0.6281013488769531, 9.647146224975586, -1.8646159172058105, -0.44883623719215393, -1.932785987854004, -0.11901654303073883, 0.5422276854515076, -1.05517578125, -0.1025390625, -0.130126953125, 0, 
2, 1006763889, -0.28355497121810913, -0.5997700691223145, 0.40664738416671753, -0.6281126141548157, 9.71992015838623, -1.8440529108047485, -0.551663339138031, -0.6147544384002686, -0.07542110979557037, 0.7622283697128296, -1.057373046875, -0.10498046875, -0.125, 0, 
3, 1006772222, -0.283547967672348, -0.5996987819671631, 0.40670087933540344, -0.6281493306159973, 9.721678733825684, -1.8113716840744019, -0.6439489722251892, 0.3489170968532562, -0.1545690894126892, 0.6791614294052124, -1.052001953125, -0.10400390625, -0.13134765625, 0, 
4, 1006780555, -0.28356310725212097, -0.5996517539024353, 0.40674519538879395, -0.6281587481498718, 9.664900779724121, -1.8068078756332397, -0.5789943337440491, 0.1827063411474228, -0.4522833824157715, 0.3244042992591858, -1.053955078125, -0.106689453125, -0.129150390625, 0, 
5, 1006788888, -0.28354042768478394, -0.599629819393158, 0.4067631959915161, -0.6281781196594238, 9.714569091796875, -1.8067365884780884, -0.4066462814807892, 0.8782865405082703, -0.6725145578384399, 0.17809578776359558, -1.057373046875, -0.10595703125, -0.13037109375, 0, 
6, 1006797221, -0.2835228443145752, -0.5995917320251465, 0.406765878200531, -0.6282206177711487, 9.683282852172852, -1.8677146434783936, -0.32115548849105835, 1.0322792530059814, -0.2775430381298065, 0.3423854410648346, -1.05322265625, -0.10498046875, -0.131103515625, 0, 
7, 1006805554, -0.28349873423576355, -0.5995305180549622, 0.40676960349082947, -0.6282876133918762, 9.625358581542969, -1.8961113691329956, -0.4257515072822571, 1.1259762048721313, 0.10760541260242462, 0.479114294052124, -1.055908203125, -0.10302734375, -0.129150390625, 0, 
8, 1006813887, -0.28343313932418823, -0.5995349287986755, 0.4067513346672058, -0.6283247470855713, 9.56708812713623, -1.9432011842727661, -0.41955527663230896, 1.7452257871627808, -0.874149739742279, 0.3260692059993744, -1.056640625, -0.10498046875, -0.13037109375, 0, 
9, 1006822220, -0.28333616256713867, -0.5995936393737793, 0.4067784249782562, -0.6282950043678284, 9.612582206726074, -1.935623049736023, -0.4687645137310028, 1.4518917798995972, -2.227682590484619, 0.25204408168792725, -1.055908203125, -0.10498046875, -0.13232421875, 0, 
10, 1006830553, -0.2832699716091156, -0.5996361374855042, 0.4068124294281006, -0.6282622814178467, 9.649869918823242, -1.897860050201416, -0.4731859862804413, 1.0552808046340942, -1.9847317934036255, 0.277299702167511, -1.055908203125, -0.10546875, -0.1298828125, 0, 
11, 1006838886, -0.2832002639770508, -0.599661648273468, 0.40685027837753296, -0.6282448768615723, 9.683000564575195, -1.8714075088500977, -0.5571796298027039, 1.074235439300537, -1.7276928424835205, 0.3390556275844574, -1.058349609375, -0.105224609375, -0.12890625, 0, 
12, 1006847219, -0.2831138074398041, -0.5997035503387451, 0.4068570137023926, -0.6282395720481873, 9.745660781860352, -1.8408557176589966, -0.5308421850204468, 1.609240174293518, -1.7617599964141846, 0.3388507664203644, -1.055908203125, -0.105712890625, -0.12890625, 0, 
13, 1006855552, -0.2829689085483551, -0.5997611880302429, 0.40680748224258423, -0.6282818913459778, 9.67757797241211, -1.7925506830215454, -0.5940817594528198, 2.9089064598083496, -1.592936635017395, 0.3195119798183441, -1.05810546875, -0.10498046875, -0.13134765625, 0, 
14, 1006863885, -0.28278475999832153, -0.5998479723930359, 0.40667155385017395, -0.6283698678016663, 9.654303550720215, -1.7745617628097534, -0.5501394867897034, 4.344711780548096, -1.3711941242218018, 0.11674968153238297, -1.0546875, -0.10693359375, -0.13037109375, 0, 
15, 1006872218, -0.2825540006160736, -0.5999497175216675, 0.40647590160369873, -0.6285032033920288, 9.68212604522705, -1.8038657903671265, -0.5241981148719788, 5.559313774108887, -1.1351332664489746, -0.03328569978475571, -1.0556640625, -0.10546875, -0.13134765625, 0, 
16, 1006880551, -0.28234022855758667, -0.6000621318817139, 0.40627992153167725, -0.6286185383796692, 9.667401313781738, -1.8258954286575317, -0.4182206094264984, 5.36016321182251, -1.2997304201126099, -0.16071653366088867, -1.05419921875, -0.10546875, -0.130126953125, 0, 
17, 1006888884, -0.2821595072746277, -0.6001471877098083, 0.4061586856842041, -0.6286967992782593, 9.696438789367676, -1.806611180305481, -0.4126362204551697, 4.1326775550842285, -1.4542866945266724, 0.026049677282571793, -1.055908203125, -0.103759765625, -0.127685546875, 0, 
18, 1006897217, -0.28203722834587097, -0.6002163887023926, 0.4061247408390045, -0.6287075877189636, 9.690117835998535, -1.8322606086730957, -0.34021204710006714, 2.4525115489959717, -1.9068644046783447, 0.2228182554244995, -1.0537109375, -0.105712890625, -0.129638671875, 0, 
19, 1006905550, -0.2819470763206482, -0.6002596020698547, 0.40617048740386963, -0.6286773085594177, 9.691507339477539, -1.8328282833099365, -0.3879042863845825, 1.1714669466018677, -2.130783796310425, 0.4335465431213379, -1.0546875, -0.1044921875, -0.132080078125, 0, 
20, 1006913883, -0.28191250562667847, -0.6002775430679321, 0.406259685754776, -0.6286180019378662, 9.702342987060547, -1.8392714262008667, -0.46506011486053467, 0.07438374310731888, -2.0284295082092285, 0.49525126814842224, -1.056884765625, -0.105224609375, -0.12939453125, 0, 
21, 1006922216, -0.2818838953971863, -0.6002572774887085, 0.40638676285743713, -0.6285680532455444, 9.675665855407715, -1.8277007341384888, -0.5741029977798462, -0.39613696932792664, -1.7176010608673096, 0.8522369265556335, -1.05419921875, -0.1025390625, -0.131103515625, 0, 
22, 1006930549, -0.28182053565979004, -0.600269615650177, 0.406421959400177, -0.6285619735717773, 9.618755340576172, -1.8705435991287231, -0.6199862360954285, 1.0529755353927612, -1.4949105978012085, 0.5347739458084106, -1.053955078125, -0.105712890625, -0.128662109375, 0, 
23, 1006938882, -0.28172624111175537, -0.6003103256225586, 0.40642040967941284, -0.6285662651062012, 9.632270812988281, -1.8933007717132568, -0.5395057797431946, 1.7987595796585083, -1.6621462106704712, 0.22878633439540863, -1.05224609375, -0.102783203125, -0.12548828125, 0, 
24, 1006947215, -0.28163889050483704, -0.6003339290618896, 0.4063705503940582, -0.6286150217056274, 9.67850399017334, -1.8888148069381714, -0.44921568036079407, 2.3368124961853027, -0.9444865584373474, 0.18995517492294312, -1.0556640625, -0.1044921875, -0.13134765625, 0, 
25, 1006955548, -0.28153854608535767, -0.6003096103668213, 0.406272828578949, -0.628746509552002, 9.696717262268066, -1.8571829795837402, -0.4139690697193146, 3.1398441791534424, 0.28795522451400757, 0.342411071062088, -1.058349609375, -0.10693359375, -0.133544921875, 0, 
26, 1006963881, -0.2814529240131378, -0.6003111600875854, 0.406207412481308, -0.6288256049156189, 9.657726287841797, -1.850553274154663, -0.37365347146987915, 2.5409579277038574, -0.43161270022392273, 0.2876734733581543, -1.05615234375, -0.107666015625, -0.12744140625, 0, 
27, 1006972214, -0.28137531876564026, -0.6003249883651733, 0.40620771050453186, -0.6288468241691589, 9.689682006835938, -1.8344560861587524, -0.4009520411491394, 1.6336758136749268, -1.2064944505691528, 0.314594030380249, -1.055908203125, -0.1044921875, -0.1298828125, 0, 
28, 1006980547, -0.28130820393562317, -0.6003348231315613, 0.4062195122241974, -0.62885981798172, 9.73385238647461, -1.8515009880065918, -0.5090880393981934, 1.3833478689193726, -1.2440192699432373, 0.46323341131210327, -1.056396484375, -0.104736328125, -0.1279296875, 0, 
29, 1006988880, -0.2812514901161194, -0.6003463864326477, 0.40623992681503296, -0.6288610100746155, 9.702388763427734, -1.8781458139419556, -0.45627474784851074, 1.167496681213379, -1.3113590478897095, 0.234831303358078, -1.05517578125, -0.10693359375, -0.12646484375, 0, 
30, 1006997213, -0.2812146842479706, -0.6003460884094238, 0.4062778949737549, -0.6288533806800842, 9.692225456237793, -1.8750602006912231, -0.4977093040943146, 0.7519058585166931, -1.259720802307129, 0.3933578133583069, -1.058349609375, -0.105712890625, -0.129638671875, 0, 
31, 1007005546, -0.28111377358436584, -0.6003696918487549, 0.40626612305641174, -0.6288834810256958, 9.611505508422852, -1.865424633026123, -0.6052640080451965, 2.0162503719329834, -1.301139235496521, 0.3975585699081421, -1.056884765625, -0.10498046875, -0.1298828125, 0, 
32, 1007013879, -0.28098222613334656, -0.6004447340965271, 0.406253844499588, -0.6288785338401794, 9.684935569763184, -1.8426384925842285, -0.6041250228881836, 2.2760298252105713, -2.224609375, 0.38820937275886536, -1.0556640625, -0.10546875, -0.1298828125, 0, 
33, 1007022212, -0.2808857560157776, -0.6004651784896851, 0.4062565863132477, -0.6289002299308777, 9.7054443359375, -1.7765376567840576, -0.6057668924331665, 1.7971203327178955, -1.3736786842346191, 0.46343833208084106, -1.05615234375, -0.104736328125, -0.12744140625, 0, 
34, 1007030545, -0.2808488607406616, -0.600441575050354, 0.406234472990036, -0.6289535760879517, 9.674256324768066, -1.7733114957809448, -0.5492240786552429, 1.5236625671386719, -0.32446831464767456, 0.2635960876941681, -1.056884765625, -0.1025390625, -0.129150390625, 0, 
35, 1007038878, -0.28081366419792175, -0.6004419326782227, 0.40622976422309875, -0.628972053527832, 9.68005657196045, -1.7920947074890137, -0.46145135164260864, 1.2570185661315918, -0.854836642742157, -0.027829868718981743, -1.0546875, -0.10400390625, -0.129638671875, 0, 
36, 1007047211, -0.28076454997062683, -0.600459098815918, 0.4061993360519409, -0.6289972066879272, 9.716421127319336, -1.845261812210083, -0.3620387315750122, 1.6964563131332397, -0.9425141215324402, -0.0361032634973526, -1.05615234375, -0.101318359375, -0.126708984375, 0, 
37, 1007055544, -0.2806738018989563, -0.6004430055618286, 0.40610796213150024, -0.6291120052337646, 9.671772956848145, -1.8726998567581177, -0.5071315765380859, 2.942986011505127, 0.10364799946546555, 0.19944524765014648, -1.055908203125, -0.10302734375, -0.130126953125, 0, 
38, 1007063877, -0.2805729806423187, -0.6004324555397034, 0.4060046970844269, -0.629233717918396, 9.606928825378418, -1.9520657062530518, -0.6556899547576904, 3.1857705116271973, 0.08583330363035202, 0.3389275372028351, -1.05859375, -0.101318359375, -0.127197265625, 0, 
39, 1007072210, -0.28049203753471375, -0.600431501865387, 0.40593764185905457, -0.6293140649795532, 9.593323707580566, -1.9987561702728271, -0.667074978351593, 2.5190317630767822, -0.3493909537792206, 0.09833304584026337, -1.056640625, -0.10546875, -0.13134765625, 0, 
40, 1007080543, -0.28045135736465454, -0.600419819355011, 0.405852347612381, -0.6293984651565552, 9.574508666992188, -1.9813977479934692, -0.563744306564331, 2.3207521438598633, 0.05291900783777237, -0.17211483418941498, -1.05517578125, -0.1044921875, -0.130126953125, 0, 
41, 1007088876, -0.280378520488739, -0.6004044413566589, 0.4057425558567047, -0.6295161247253418, 9.623944282531738, -1.9481855630874634, -0.40962937474250793, 2.9683566093444824, 0.29535773396492004, -0.10029252618551254, -1.057373046875, -0.103515625, -0.12939453125, 0, 
42, 1007097209, -0.2802809774875641, -0.6004461050033569, 0.4056421220302582, -0.6295846104621887, 9.670821189880371, -1.9205132722854614, -0.3969108760356903, 3.038104772567749, -0.7993050217628479, -0.16463549435138702, -1.054443359375, -0.103271484375, -0.127685546875, 0, 
43, 1007105542, -0.2801702320575714, -0.6005396842956543, 0.40560293197631836, -0.6295698881149292, 9.714147567749023, -1.862862467765808, -0.3406410217285156, 2.3576109409332275, -2.2257871627807617, -0.3046172559261322, -1.054443359375, -0.103759765625, -0.128173828125, 0, 
44, 1007113875, -0.2800566256046295, -0.6006184220314026, 0.4055856168270111, -0.6295565366744995, 9.75624942779541, -1.7705016136169434, -0.33636221289634705, 2.137366771697998, -2.2037975788116455, 0.1394054889678955, -1.053955078125, -0.1044921875, -0.132080078125, 0, 
45, 1007122208, -0.27994152903556824, -0.6006831526756287, 0.4055885374546051, -0.6295440196990967, 9.756889343261719, -1.7579494714736938, -0.44288170337677, 1.92885422706604, -2.1465368270874023, 0.24776647984981537, -1.05615234375, -0.103271484375, -0.126220703125, 0, 
46, 1007130541, -0.2798920273780823, -0.6006776690483093, 0.40560320019721985, -0.6295618414878845, 9.704684257507324, -1.8434807062149048, -0.5824917554855347, 1.180457592010498, -0.9837020039558411, 0.4373117983341217, -1.05419921875, -0.101806640625, -0.126953125, 0, 
47, 1007138874, -0.27983325719833374, -0.6006576418876648, 0.4055751860141754, -0.6296250224113464, 9.631966590881348, -1.9038389921188354, -0.5240862965583801, 1.8294200897216797, -0.3527720868587494, 0.2685396075248718, -1.0546875, -0.10498046875, -0.130615234375, 0, 
48, 1007147207, -0.279814749956131, -0.6006439328193665, 0.40554946660995483, -0.6296629905700684, 9.631302833557129, -1.949607491493225, -0.5110276937484741, 1.3553773164749146, -0.41729429364204407, -0.039509959518909454, -1.055908203125, -0.105224609375, -0.12939453125, 0, 
49, 1007155540, -0.2798230051994324, -0.6005777716636658, 0.4055321216583252, -0.6297335028648376, 9.63733959197998, -1.9529907703399658, -0.5017576217651367, 1.0500298738479614, 0.4379521608352661, 0.06242188811302185, -1.056884765625, -0.101806640625, -0.1337890625, 0, 
50, 1007163873, -0.2797918915748596, -0.600581169128418, 0.4054957330226898, -0.6297675967216492, 9.6248140335083, -1.8865492343902588, -0.4982365667819977, 1.5955874919891357, -0.6276895999908447, -0.13000504672527313, -1.056396484375, -0.104736328125, -0.1279296875, 0, 
51, 1007172206, -0.27976757287979126, -0.6006224751472473, 0.4054803252220154, -0.6297489404678345, 9.663756370544434, -1.8270881175994873, -0.47361359000205994, 1.212372899055481, -1.4170689582824707, -0.5821474194526672, -1.057373046875, -0.10107421875, -0.130615234375, 0, 
52, 1007180539, -0.27975091338157654, -0.6006888747215271, 0.4055054485797882, -0.6296767592430115, 9.723116874694824, -1.8054819107055664, -0.3320145606994629, 0.594199001789093, -2.2068581581115723, -0.506329357624054, -1.05615234375, -0.10400390625, -0.130859375, 0, 
53, 1007188872, -0.2796698808670044, -0.6007658243179321, 0.40553826093673706, -0.6296181678771973, 9.783211708068848, -1.7938153743743896, -0.32242488861083984, 1.1786648035049438, -2.5572612285614014, -0.045196324586868286, -1.057373046875, -0.10302734375, -0.12939453125, 0, 
54, 1007197205, -0.27955111861228943, -0.6008522510528564, 0.40553075075149536, -0.6295933127403259, 9.75427532196045, -1.8427034616470337, -0.3396603763103485, 2.0602807998657227, -2.4328014850616455, 0.17804452776908875, -1.052490234375, -0.105224609375, -0.1279296875, 0, 
55, 1007205538, -0.27948838472366333, -0.6008471250534058, 0.4055343270301819, -0.6296237707138062, 9.630006790161133, -1.9300445318222046, -0.4501158595085144, 1.4642122983932495, -0.8966647982597351, 0.3547571897506714, -1.057373046875, -0.103515625, -0.12890625, 0, 
56, 1007213871, -0.27949538826942444, -0.6008076071739197, 0.4055651128292084, -0.6296384334564209, 9.589615821838379, -2.036428689956665, -0.5231088399887085, 0.4268868863582611, -0.4626571238040924, 0.25977954268455505, -1.057373046875, -0.10595703125, -0.13037109375, 0, 
57, 1007222204, -0.2795253396034241, -0.60073322057724, 0.40561148524284363, -0.6296663880348206, 9.590997695922852, -2.0096845626831055, -0.5643093585968018, 0.044261395931243896, 0.03501465916633606, 0.282986044883728, -1.055419921875, -0.105224609375, -0.128173828125, 0, 
58, 1007230537, -0.2794947624206543, -0.6007230877876282, 0.4055953919887543, -0.6296999454498291, 9.62419319152832, -1.9806221723556519, -0.5859036445617676, 1.3614733219146729, -0.5906001925468445, 0.1071443259716034, -1.05712890625, -0.10498046875, -0.13037109375, 0, 
59, 1007238870, -0.2794838547706604, -0.6007066369056702, 0.40559425950050354, -0.6297211647033691, 9.69600772857666, -1.9282491207122803, -0.4925733804702759, 0.9792322516441345, -0.5671120285987854, -0.10503118485212326, -1.05712890625, -0.1025390625, -0.13037109375, 0, 
60, 1007247203, -0.2794858515262604, -0.6006833910942078, 0.40561094880104065, -0.6297316551208496, 9.704855918884277, -1.9205740690231323, -0.5007275938987732, 0.6293930411338806, -0.6115526556968689, 0.07968588918447495, -1.05810546875, -0.10546875, -0.131103515625, 0, 
61, 1007255536, -0.27942273020744324, -0.6007243990898132, 0.4056153893470764, -0.6297177672386169, 9.674717903137207, -1.908148169517517, -0.4888642728328705, 1.3842188119888306, -1.6688827276229858, -0.0626908391714096, -1.05615234375, -0.103759765625, -0.127685546875, 0, 
62, 1007263869, -0.27936485409736633, -0.6007925868034363, 0.4056587517261505, -0.6296505331993103, 9.682963371276855, -1.9028246402740479, -0.40879255533218384, 0.8102038502693176, -2.481698989868164, 0.009246737696230412, -1.05810546875, -0.102783203125, -0.126220703125, 0, 
63, 1007272202, -0.27926599979400635, -0.6008654832839966, 0.40569230914115906, -0.6296030282974243, 9.671944618225098, -1.8784741163253784, -0.44479337334632874, 1.3656485080718994, -2.5338497161865234, 0.180836483836174, -1.057373046875, -0.104736328125, -0.12939453125, 0, 
64, 1007280535, -0.2791650593280792, -0.6009241938591003, 0.40568992495536804, -0.6295933723449707, 9.6898832321167, -1.8612736463546753, -0.47064900398254395, 1.8465815782546997, -1.9866786003112793, 0.278964638710022, -1.056884765625, -0.1015625, -0.128662109375, 0, 
65, 1007288868, -0.279130220413208, -0.6009259223937988, 0.40576961636543274, -0.629555881023407, 9.681961059570312, -1.8749326467514038, -0.6130610108375549, 0.2204873263835907, -1.654538631439209, 0.44374099373817444, -1.056640625, -0.1044921875, -0.125732421875, 0, 
66, 1007297201, -0.27916768193244934, -0.6008742451667786, 0.40583786368370056, -0.6295446157455444, 9.652103424072266, -1.8766556978225708, -0.5797021389007568, -0.3406308889389038, -0.54508376121521, 0.2748919725418091, -1.056396484375, -0.1015625, -0.129638671875, 0, 
67, 1007305534, -0.2791960835456848, -0.6008319854736328, 0.4059351980686188, -0.6295095682144165, 9.693060874938965, -1.888858437538147, -0.43393436074256897, -0.6107586622238159, -0.9690505862236023, 0.2946149706840515, -1.054443359375, -0.103759765625, -0.128173828125, 0, 
68, 1007313867, -0.27924615144729614, -0.6007295846939087, 0.4059644341468811, -0.6295662522315979, 9.691436767578125, -1.9129563570022583, -0.44668787717819214, 0.0774318277835846, 0.6766768097877502, 0.3861601948738098, -1.056396484375, -0.103515625, -0.129638671875, 0, 
69, 1007322200, -0.2792438268661499, -0.6006456613540649, 0.40598347783088684, -0.6296351552009583, 9.612434387207031, -1.918950080871582, -0.5112993121147156, 0.7416345477104187, 0.3810117244720459, 0.5483494997024536, -1.0556640625, -0.10302734375, -0.131103515625, 0, 
70, 1007330533, -0.2792358994483948, -0.6006336808204651, 0.4060056507587433, -0.629635751247406, 9.643670082092285, -1.928141474723816, -0.47162994742393494, 0.6517030000686646, -0.8668497204780579, 0.1109352633357048, -1.056396484375, -0.1015625, -0.129638671875, 0, 
71, 1007338866, -0.27925926446914673, -0.60062175989151, 0.4060753285884857, -0.6295917630195618, 9.676946640014648, -1.925087809562683, -0.4926378130912781, -0.265683650970459, -1.2270883321762085, -0.0920959860086441, -1.05517578125, -0.100341796875, -0.12744140625, 0, 
72, 1007347199, -0.2793300449848175, -0.6005548238754272, 0.4061124622821808, -0.6296002268791199, 9.6752290725708, -1.9168689250946045, -0.4795909523963928, -0.29516562819480896, 0.055864643305540085, -0.1117677092552185, -1.053955078125, -0.1025390625, -0.12890625, 0, 
73, 1007355532, -0.27937081456184387, -0.6005120873451233, 0.40613222122192383, -0.6296101212501526, 9.612762451171875, -1.957268238067627, -0.5346821546554565, 0.20880721509456635, -0.22521314024925232, -0.27539142966270447, -1.05712890625, -0.103271484375, -0.127685546875, 0, 
74, 1007363865, -0.27937981486320496, -0.6005312204360962, 0.4061587154865265, -0.6295707821846008, 9.635645866394043, -1.936567783355713, -0.6158955693244934, 0.3704074025154114, -1.3875101804733276, -0.3285921812057495, -1.05712890625, -0.1044921875, -0.130859375, 0, 
75, 1007372198, -0.27938324213027954, -0.6005273461341858, 0.4061891436576843, -0.6295533180236816, 9.679162979125977, -1.9550436735153198, -0.6137282252311707, 0.42061132192611694, -1.038772463798523, -0.18666373193264008, -1.0576171875, -0.103759765625, -0.12744140625, 0, 
76, 1007380531, -0.279375821352005, -0.6005067229270935, 0.4062211513519287, -0.6295555830001831, 9.71657943725586, -1.9618531465530396, -0.4658360481262207, 0.538283109664917, -0.8132902979850769, 0.24028712511062622, -1.055419921875, -0.103759765625, -0.127685546875, 0, 
77, 1007388864, -0.279336541891098, -0.6004950404167175, 0.40627944469451904, -0.6295467019081116, 9.69901180267334, -1.9722462892532349, -0.3296888470649719, 0.5494253039360046, -1.2427128553390503, 0.4903332591056824, -1.053466796875, -0.099853515625, -0.127197265625, 0, 
78, 1007397197, -0.2793155908584595, -0.600475013256073, 0.4063251316547394, -0.6295456886291504, 9.677696228027344, -1.9405591487884521, -0.42726075649261475, 0.5147692561149597, -0.9733793139457703, 0.456061452627182, -1.054443359375, -0.10205078125, -0.12890625, 0, 
79, 1007405530, -0.2792569398880005, -0.6004628539085388, 0.4063344895839691, -0.6295772194862366, 9.682774543762207, -1.9253093004226685, -0.4880313277244568, 1.3582972288131714, -0.8299395442008972, 0.4100070595741272, -1.052978515625, -0.103271484375, -0.126953125, 0, 
80, 1007413863, -0.27922186255455017, -0.6004617810249329, 0.40635308623313904, -0.6295817494392395, 9.605009078979492, -1.9350872039794922, -0.4657144546508789, 0.9710869789123535, -1.0657955408096313, 0.26930809020996094, -1.053955078125, -0.1005859375, -0.12841796875, 0, 
81, 1007422196, -0.27921950817108154, -0.6004558205604553, 0.40644577145576477, -0.6295285820960999, 9.601304054260254, -1.9318255186080933, -0.4761146903038025, -0.28041180968284607, -1.5854825973510742, 0.25181353092193604, -1.05908203125, -0.103271484375, -0.1279296875, 0, 
82, 1007430529, -0.27919265627861023, -0.6004469990730286, 0.4065256714820862, -0.6294971704483032, 9.648055076599121, -1.8833650350570679, -0.5338810682296753, 0.14244075119495392, -1.4865604639053345, 0.6100285649299622, -1.057861328125, -0.103759765625, -0.12841796875, 0, 
83, 1007438862, -0.27910634875297546, -0.6004449129104614, 0.4065400958061218, -0.6295282244682312, 9.688891410827637, -1.8297368288040161, -0.562200665473938, 1.5769915580749512, -1.094201683998108, 0.6335936784744263, -1.05712890625, -0.101806640625, -0.126708984375, 0, 
84, 1007447195, -0.27902233600616455, -0.6004466414451599, 0.4065713584423065, -0.6295436024665833, 9.681265830993652, -1.8012113571166992, -0.5527313351631165, 1.336320161819458, -1.3223989009857178, 0.8234207630157471, -1.0546875, -0.099609375, -0.12744140625, 0, 
85, 1007455528, -0.2789652943611145, -0.6004394888877869, 0.40661025047302246, -0.6295506358146667, 9.717696189880371, -1.80631422996521, -0.6153665781021118, 0.9707539677619934, -1.1781138181686401, 0.5188931822776794, -1.055908203125, -0.102294921875, -0.127685546875, 0, 
86, 1007463861, -0.2789403796195984, -0.6004340648651123, 0.4066111147403717, -0.6295663714408875, 9.65575885772705, -1.885603904724121, -0.5141391754150391, 1.0861459970474243, -0.8122401833534241, 0.10271308571100235, -1.055908203125, -0.100830078125, -0.12548828125, 0, 
87, 1007472194, -0.2789435088634491, -0.6003975868225098, 0.40661367774009705, -0.6295981407165527, 9.599186897277832, -1.994706153869629, -0.4756068289279938, 0.8130982518196106, -0.2421441674232483, -0.04360823333263397, -1.054443359375, -0.10107421875, -0.12841796875, 0, 
88, 1007480527, -0.27890685200691223, -0.6003917455673218, 0.40659216046333313, -0.6296337842941284, 9.59145450592041, -1.9999992847442627, -0.3842221200466156, 1.4870089292526245, -0.6234889030456543, 0.09848673641681671, -1.0576171875, -0.101806640625, -0.127685546875, 0, 
89, 1007488860, -0.2788482904434204, -0.6004261374473572, 0.40661191940307617, -0.6296142339706421, 9.624927520751953, -2.0182886123657227, -0.36468738317489624, 1.1584548950195312, -1.6928062438964844, 0.038882408291101456, -1.05517578125, -0.104248046875, -0.127197265625, 0, 
90, 1007497193, -0.2788177728652954, -0.6004524827003479, 0.40664416551589966, -0.6295818090438843, 9.692639350891113, -1.9835518598556519, -0.41279587149620056, 0.7126391530036926, -1.6355841159820557, 0.047565627843141556, -1.056396484375, -0.1025390625, -0.128662109375, 0, 
91, 1007505526, -0.2787995934486389, -0.6004430651664734, 0.4067137539386749, -0.6295539140701294, 9.713624954223633, -1.8956750631332397, -0.4223253130912781, 0.17763470113277435, -1.3462969064712524, 0.31377434730529785, -1.052978515625, -0.09912109375, -0.129150390625, 0, 
92, 1007513859, -0.2787870764732361, -0.6004164814949036, 0.40677475929260254, -0.6295453906059265, 9.713582038879395, -1.8041043281555176, -0.4664154350757599, 0.24681876599788666, -0.9894394874572754, 0.5183808207511902, -1.055419921875, -0.1005859375, -0.12841796875, 0, 
93, 1007522192, -0.2787136435508728, -0.6004190444946289, 0.4068327844142914, -0.62953782081604, 9.702317237854004, -1.7479592561721802, -0.6157001256942749, 0.8939880132675171, -1.5492898225784302, 0.706389307975769, -1.0576171875, -0.104248046875, -0.12744140625, 0, 
94, 1007530525, -0.2786701023578644, -0.6004056334495544, 0.4068771302700043, -0.6295412182807922, 9.698352813720703, -1.7884613275527954, -0.6666947603225708, 0.764431357383728, -1.1152310371398926, 0.6201719641685486, -1.0546875, -0.100341796875, -0.1318359375, 0, 
95, 1007538858, -0.2786930203437805, -0.6003513336181641, 0.4069615602493286, -0.6295284032821655, 9.62379264831543, -1.866348385810852, -0.621131420135498, -0.37595292925834656, -0.6619102358818054, 0.39174407720565796, -1.05322265625, -0.100830078125, -0.126220703125, 0, 
96, 1007547191, -0.2787127196788788, -0.6003358364105225, 0.4070327579975128, -0.6294885277748108, 9.569523811340332, -1.9804004430770874, -0.5605826377868652, -0.24060732126235962, -1.2026267051696777, 0.1399049460887909, -1.05859375, -0.10107421875, -0.128173828125, 0, 
97, 1007555524, -0.2787083387374878, -0.6003485918045044, 0.407106876373291, -0.6294302344322205, 9.586821556091309, -2.073911428451538, -0.512975811958313, -0.0579778216779232, -1.7305103540420532, -0.006595665588974953, -1.05810546875, -0.1025390625, -0.13134765625, 0, 
98, 1007563857, -0.27873796224594116, -0.6003214716911316, 0.40716561675071716, -0.6294049620628357, 9.636881828308105, -2.0459635257720947, -0.46839678287506104, -0.17744264006614685, -0.880246102809906, 0.07072090357542038, -1.06005859375, -0.103271484375, -0.128662109375, 0, 
99, 1007572190, -0.2787284553050995, -0.6002975106239319, 0.4071720838546753, -0.6294278502464294, 9.609451293945312, -2.0069730281829834, -0.3960815370082855, 0.88241046667099, -0.5120157599449158, -0.004905126057565212, -1.05615234375, -0.101318359375, -0.127197265625, 0, 
100, 1007580523, -0.2786749303340912, -0.6003209352493286, 0.40715205669403076, -0.6294421553611755, 9.66384506225586, -1.9085267782211304, -0.42754971981048584, 1.6061406135559082, -1.1531400680541992, 0.011705704964697361, -1.055908203125, -0.10205078125, -0.128662109375, 0, 
101, 1007588856, -0.2785910367965698, -0.6003313064575195, 0.40711551904678345, -0.6294931173324585, 9.735121726989746, -1.8429584503173828, -0.542868971824646, 2.1576404571533203, -0.8283259272575378, 0.19789555668830872, -1.0556640625, -0.097412109375, -0.12646484375, 0, 
102, 1007597189, -0.27849775552749634, -0.6003652811050415, 0.40704652667045593, -0.6295466423034668, 9.713055610656738, -1.8587790727615356, -0.7109896540641785, 2.6174418926239014, -0.9556798934936523, 0.04218664765357971, -1.056640625, -0.098388671875, -0.131591796875, 0, 
103, 1007605522, -0.2783910632133484, -0.6004374027252197, 0.40695443749427795, -0.629584550857544, 9.626764297485352, -1.9097087383270264, -0.6665679812431335, 2.98956561088562, -1.3885350227355957, -0.45845645666122437, -1.055908203125, -0.1015625, -0.130126953125, 0, 
104, 1007613855, -0.2783104181289673, -0.600532054901123, 0.40686485171318054, -0.6295878887176514, 9.613456726074219, -1.9650444984436035, -0.49230822920799255, 2.6428511142730713, -1.7450850009918213, -0.7701815962791443, -1.054443359375, -0.100830078125, -0.1279296875, 0, 
105, 1007622188, -0.27818578481674194, -0.6006403565406799, 0.4068003296852112, -0.6295814514160156, 9.652909278869629, -1.9765422344207764, -0.4614379405975342, 2.789518356323242, -2.2714576721191406, -0.447160542011261, -1.055908203125, -0.101806640625, -0.125, 0, 
106, 1007630521, -0.278064101934433, -0.600715696811676, 0.4067118465900421, -0.6296204328536987, 9.693039894104004, -1.991531491279602, -0.4073982238769531, 3.0986053943634033, -1.5190138816833496, -0.16076774895191193, -1.056884765625, -0.10009765625, -0.129150390625, 0, 
107, 1007638854, -0.27795886993408203, -0.6007599234580994, 0.40665534138679504, -0.6296610832214355, 9.63580322265625, -2.0003392696380615, -0.453440397977829, 2.5781750679016113, -1.2492958307266235, -0.009515687823295593, -1.05859375, -0.100830078125, -0.126708984375, 0, 
108, 1007647187, -0.2778715491294861, -0.6007845401763916, 0.4065808653831482, -0.6297242641448975, 9.679073333740234, -1.9481619596481323, -0.5218752026557922, 2.633514881134033, -0.7396878600120544, 0.032235514372587204, -1.053466796875, -0.099609375, -0.127685546875, 0, 
109, 1007655520, -0.27781081199645996, -0.6007452011108398, 0.406514436006546, -0.6298314929008484, 9.6802978515625, -1.925972580909729, -0.42971527576446533, 2.3536791801452637, 0.31032925844192505, 0.24232345819473267, -1.059326171875, -0.1025390625, -0.13037109375, 0, 
110, 1007663853, -0.27773696184158325, -0.6007531881332397, 0.40646445751190186, -0.6298887133598328, 9.655762672424316, -1.8833898305892944, -0.5026372075080872, 2.2145683765411377, -0.6651504635810852, 0.19081324338912964, -1.05615234375, -0.101318359375, -0.1259765625, 0, 
111, 1007672186, -0.277615487575531, -0.6008131504058838, 0.4064323306083679, -0.6299058198928833, 9.702901840209961, -1.8756091594696045, -0.47683316469192505, 2.4274227619171143, -1.7637708187103271, 0.1535189300775528, -1.0576171875, -0.101318359375, -0.128173828125, 0, 
112, 1007680519, -0.27754905819892883, -0.6008563041687012, 0.4064115285873413, -0.6299073100090027, 9.660581588745117, -1.8930027484893799, -0.5278526544570923, 1.7227493524551392, -1.498253345489502, -0.043339282274246216, -1.05712890625, -0.101318359375, -0.127197265625, 0, 
113, 1007688852, -0.27747002243995667, -0.6009061336517334, 0.40642237663269043, -0.6298874616622925, 9.625517845153809, -1.9106948375701904, -0.5211594104766846, 1.4607415199279785, -1.9093877077102661, 0.05613359808921814, -1.0556640625, -0.101318359375, -0.127197265625, 0, 
114, 1007697185, -0.2774001657962799, -0.6009715795516968, 0.40644556283950806, -0.6298407316207886, 9.632805824279785, -1.9179767370224, -0.5077502131462097, 1.1859005689620972, -2.2784628868103027, 0.042993493378162384, -1.054931640625, -0.1025390625, -0.128662109375, 0, 
115, 1007705518, -0.27734407782554626, -0.6010140180587769, 0.40647488832473755, -0.6298061609268188, 9.61870002746582, -1.9132415056228638, -0.6016883254051208, 1.0011708736419678, -1.9096436500549316, -0.004636176396161318, -1.05712890625, -0.104736328125, -0.1259765625, 0, 
116, 1007713851, -0.2773551940917969, -0.6010071635246277, 0.4064808189868927, -0.6298039555549622, 9.673190116882324, -1.90445876121521, -0.5957674384117126, 0.6398820281028748, -0.7654045820236206, -0.22742879390716553, -1.053466796875, -0.1005859375, -0.12841796875, 0, 
117, 1007722184, -0.2774432599544525, -0.600904107093811, 0.4064924120903015, -0.6298559308052063, 9.676108360290527, -1.9067476987838745, -0.6083206534385681, -0.11003874987363815, 0.9373656511306763, -0.25862693786621094, -1.0576171875, -0.10107421875, -0.128173828125, 0, 
118, 1007730517, -0.2775414288043976, -0.6007965207099915, 0.40647438168525696, -0.6299269795417786, 9.673033714294434, -1.8972344398498535, -0.4867224097251892, 0.15300661325454712, 1.2886135578155518, -0.3378005027770996, -1.055908203125, -0.101806640625, -0.127685546875, 0, 
119, 1007738850, -0.2776133716106415, -0.6007053256034851, 0.4064517021179199, -0.6299967765808105, 9.663439750671387, -1.9207525253295898, -0.38975125551223755, 0.46813860535621643, 1.0263752937316895, -0.3964827358722687, -1.056640625, -0.099609375, -0.1279296875, 0, 
120, 1007747183, -0.2776769995689392, -0.6006881594657898, 0.4064634144306183, -0.6299775242805481, 9.681708335876465, -1.956445336341858, -0.3527139723300934, 0.020862791687250137, -0.5461210608482361, -0.6434551477432251, -1.055908203125, -0.102294921875, -0.128173828125, 0, 
121, 1007755516, -0.2777394652366638, -0.6006703972816467, 0.4065224230289459, -0.6299290060997009, 9.702445030212402, -1.9601722955703735, -0.4054088294506073, -0.5399481058120728, -0.9534386992454529, -0.5027562379837036, -1.05712890625, -0.102783203125, -0.127685546875, 0, 
122, 1007763849, -0.27776962518692017, -0.6006604433059692, 0.4065564274787903, -0.6299031972885132, 9.617240905761719, -2.0217154026031494, -0.47918325662612915, 0.09493916481733322, -0.9340999722480774, -0.23434464633464813, -1.057861328125, -0.10205078125, -0.12890625, 0, 
123, 1007772182, -0.27772486209869385, -0.6006603240966797, 0.4065415859222412, -0.629932701587677, 9.572027206420898, -2.023918867111206, -0.5387933850288391, 1.486432671546936, -0.7809012532234192, 0.01427993644028902, -1.052734375, -0.100341796875, -0.126708984375, 0, 
124, 1007780515, -0.277619332075119, -0.600721001625061, 0.406501829624176, -0.6299470067024231, 9.595874786376953, -2.0178608894348145, -0.5119829177856445, 2.3485565185546875, -1.6918201446533203, 0.09007246047258377, -1.057373046875, -0.09814453125, -0.12890625, 0, 
125, 1007788848, -0.27753084897994995, -0.600768506526947, 0.4064895212650299, -0.629948616027832, 9.699789047241211, -1.8970586061477661, -0.6299660801887512, 1.8513330221176147, -1.678961992263794, 0.04153348505496979, -1.058837890625, -0.099853515625, -0.124267578125, 0, 
126, 1007797181, -0.27747097611427307, -0.6008111238479614, 0.40647757053375244, -0.629941999912262, 9.67790699005127, -1.8638836145401, -0.6927893757820129, 1.5448329448699951, -1.5581393241882324, -0.05491691455245018, -1.05615234375, -0.099853515625, -0.12744140625, 0, 
127, 1007805514, -0.2774803340435028, -0.6008145809173584, 0.4064715504646301, -0.6299384236335754, 9.699234008789062, -1.9045517444610596, -0.5394745469093323, 0.7864978909492493, -0.8132007122039795, -0.5265262126922607, -1.054931640625, -0.098876953125, -0.125, 0, 
128, 1007813847, -0.27754852175712585, -0.6008160710334778, 0.4064861536026001, -0.6298975348472595, 9.637890815734863, -1.9244939088821411, -0.4600636959075928, -0.09139158576726913, -0.8723183870315552, -0.8455513715744019, -1.057373046875, -0.1025390625, -0.124267578125, 0, 
129, 1007822180, -0.2775733768939972, -0.6008195281028748, 0.4064490497112274, -0.629907488822937, 9.6898775100708, -1.919916033744812, -0.4968436360359192, 1.0077025890350342, -0.4975309371948242, -0.8656331300735474, -1.056396484375, -0.102783203125, -0.125244140625, 0, 
130, 1007830513, -0.2775637209415436, -0.6008301973342896, 0.40633612871170044, -0.6299744248390198, 9.628393173217773, -1.9559673070907593, -0.47652962803840637, 2.294126272201538, -0.008990596979856491, -0.864224374294281, -1.055908203125, -0.102783203125, -0.128173828125, 0, 
131, 1007838846, -0.27750861644744873, -0.6008664965629578, 0.40622204542160034, -0.6300376057624817, 9.599685668945312, -1.946669101715088, -0.476814866065979, 2.7585887908935547, -0.4968392848968506, -0.7908650040626526, -1.054931640625, -0.103271484375, -0.128173828125, 0, 
132, 1007847179, -0.27741140127182007, -0.6009511351585388, 0.4060690701007843, -0.630098283290863, 9.649169921875, -1.9337806701660156, -0.4756982922554016, 3.611081838607788, -1.0360444784164429, -0.8745467662811279, -1.0576171875, -0.102294921875, -0.127685546875, 0, 
133, 1007855512, -0.2773118317127228, -0.6010559797286987, 0.4059140682220459, -0.6301420331001282, 9.65333366394043, -1.926148772239685, -0.5133131742477417, 3.632725715637207, -1.3449265956878662, -1.2001038789749146, -1.05615234375, -0.104736328125, -0.127197265625, 0, 
134, 1007863845, -0.27727726101875305, -0.6011185050010681, 0.4057859480381012, -0.6301801204681396, 9.66344165802002, -1.9654189348220825, -0.5185844898223877, 2.6674022674560547, -0.7763930559158325, -1.173977255821228, -1.05517578125, -0.101318359375, -0.12548828125, 0, 
135, 1007872178, -0.27726247906684875, -0.6011309623718262, 0.40567952394485474, -0.6302433609962463, 9.692387580871582, -1.9550265073776245, -0.5309106707572937, 2.2671289443969727, -0.0953361913561821, -0.9444736838340759, -1.056396484375, -0.100341796875, -0.12451171875, 0, 
136, 1007880511, -0.27729532122612, -0.6011364459991455, 0.40560540556907654, -0.6302712559700012, 9.652179718017578, -2.030261278152466, -0.471750408411026, 1.3689401149749756, -0.19566714763641357, -1.0314598083496094, -1.05517578125, -0.101806640625, -0.127197265625, 0, 
137, 1007888844, -0.2773655951023102, -0.6011338233947754, 0.4056347906589508, -0.6302239894866943, 9.616689682006836, -2.051034688949585, -0.37211236357688904, -0.28677695989608765, -0.920703649520874, -0.8962419629096985, -1.05712890625, -0.09912109375, -0.127685546875, 0, 
138, 1007897177, -0.27738404273986816, -0.6011306643486023, 0.40566331148147583, -0.6302003860473633, 9.723231315612793, -1.9808725118637085, -0.41661733388900757, 0.27854204177856445, -1.019984483718872, -0.20724478363990784, -1.05615234375, -0.102294921875, -0.126708984375, 0, 
139, 1007905510, -0.2773720324039459, -0.6011154651641846, 0.40567833185195923, -0.6302105784416199, 9.704791069030762, -1.9562667608261108, -0.5117072463035583, 0.785191535949707, -0.7396878600120544, -0.011423948220908642, -1.056640625, -0.100341796875, -0.127197265625, 0, 
140, 1007913843, -0.27738505601882935, -0.6010938286781311, 0.40569278597831726, -0.630216121673584, 9.62111759185791, -1.9769527912139893, -0.5656110644340515, 0.5370920896530151, -0.5950186848640442, -0.06231943517923355, -1.055419921875, -0.103515625, -0.129638671875, 0, 
141, 1007922176, -0.2773958444595337, -0.6010922789573669, 0.40571731328964233, -0.6301969885826111, 9.567887306213379, -1.973655104637146, -0.553787350654602, 0.40502506494522095, -1.0105583667755127, -0.3194095194339752, -1.056640625, -0.101318359375, -0.126220703125, 0, 
142, 1007930509, -0.27736711502075195, -0.6011486649513245, 0.4056849777698517, -0.6301767230033875, 9.580290794372559, -1.9287127256393433, -0.5415122509002686, 1.4416331052780151, -1.5388007164001465, -0.6200437545776367, -1.056640625, -0.103515625, -0.122802734375, 0, 
143, 1007938842, -0.27730581164360046, -0.6012206077575684, 0.40562358498573303, -0.6301745772361755, 9.679803848266602, -1.8842148780822754, -0.4216644763946533, 2.122485399246216, -1.5814741849899292, -0.7500616312026978, -1.054443359375, -0.103271484375, -0.128173828125, 0, 
144, 1007947175, -0.277261346578598, -0.6012638807296753, 0.40554729104042053, -0.6302018761634827, 9.740349769592285, -1.8483015298843384, -0.46619895100593567, 2.166541576385498, -0.9521835446357727, -0.5950442552566528, -1.0576171875, -0.101318359375, -0.128173828125, 0, 
145, 1007955508, -0.27728989720344543, -0.6012603044509888, 0.4055328667163849, -0.630202054977417, 9.729976654052734, -1.8600538969039917, -0.4474889934062958, 0.6985898017883301, -0.5860024094581604, -0.7103339433670044, -1.055419921875, -0.100830078125, -0.12451171875, 0, 
146, 1007963841, -0.2773706316947937, -0.6012318134307861, 0.4055543541908264, -0.6301799416542053, 9.707623481750488, -1.8729146718978882, -0.5044542551040649, -0.2645694315433502, -0.4124916195869446, -0.6570819020271301, -1.05615234375, -0.10498046875, -0.125732421875, 0, 
147, 1007972174, -0.2774251699447632, -0.6012083888053894, 0.4055477976799011, -0.6301825046539307, 9.681687355041504, -1.8771706819534302, -0.5259628295898438, 0.3525415360927582, -0.2792976200580597, -0.7510093450546265, -1.054931640625, -0.099609375, -0.1279296875, 0, 
148, 1007980507, -0.27749907970428467, -0.6011563539505005, 0.40551552176475525, -0.6302204728126526, 9.689105033874512, -1.8874636888504028, -0.5003554821014404, 0.5034092664718628, 0.45453742146492004, -0.6823375225067139, -1.05712890625, -0.097900390625, -0.126953125, 0, 
149, 1007988840, -0.2775562107563019, -0.6011267900466919, 0.40550822019577026, -0.6302281618118286, 9.664542198181152, -1.8836654424667358, -0.4937106668949127, 0.34454983472824097, -0.16813182830810547, -0.72580486536026, -1.05908203125, -0.103271484375, -0.12841796875, 0, 
150, 1007997173, -0.2776029407978058, -0.6011216640472412, 0.40549570322036743, -0.6302205324172974, 9.623827934265137, -1.857643723487854, -0.5360701680183411, 0.4804077744483948, -0.5559313297271729, -0.7208357453346252, -1.05517578125, -0.10107421875, -0.130126953125, 0, 
151, 1008005506, -0.27759140729904175, -0.6011779308319092, 0.4054935574531555, -0.6301732063293457, 9.620192527770996, -1.8636215925216675, -0.5129130482673645, 0.8813344836235046, -1.766088604927063, -0.775150716304779, -1.055908203125, -0.10205078125, -0.128662109375, 0, 
152, 1008013839, -0.2775523364543915, -0.6012696623802185, 0.40547677874565125, -0.6301136612892151, 9.664359092712402, -1.859419822692871, -0.4729973077774048, 1.3080421686172485, -2.2870819568634033, -0.7504330277442932, -1.0546875, -0.105224609375, -0.127197265625, 0, 
153, 1008022172, -0.2775583267211914, -0.6012890934944153, 0.40543657541275024, -0.6301183700561523, 9.675207138061523, -1.8425079584121704, -0.39718306064605713, 1.224783182144165, -0.776060163974762, -0.8368682861328125, -1.059814453125, -0.10546875, -0.125244140625, 0, 
154, 1008030505, -0.2775730490684509, -0.601331889629364, 0.40541914105415344, -0.6300822496414185, 9.651394844055176, -1.8747817277908325, -0.39080700278282166, 0.812188982963562, -1.3670060634613037, -0.8602284789085388, -1.0556640625, -0.103759765625, -0.126708984375, 0, 
155, 1008038838, -0.2775520086288452, -0.6013738512992859, 0.405403733253479, -0.6300615072250366, 9.692014694213867, -1.8905633687973022, -0.5097845196723938, 1.1735033988952637, -1.4266616106033325, -0.6197620034217834, -1.057373046875, -0.10400390625, -0.13037109375, 0, 
156, 1008047171, -0.2775394022464752, -0.6014144420623779, 0.40537410974502563, -0.6300473213195801, 9.624505043029785, -1.926626443862915, -0.5261309742927551, 1.2576972246170044, -1.2713624238967896, -0.6280866265296936, -1.05517578125, -0.097900390625, -0.125732421875, 0, 
157, 1008055504, -0.2775286138057709, -0.6014459729194641, 0.4053506851196289, -0.6300368905067444, 9.657120704650879, -1.9292631149291992, -0.5302672982215881, 1.175577998161316, -1.162758231163025, -0.6777526140213013, -1.05859375, -0.103271484375, -0.1279296875, 0, 
158, 1008063837, -0.27756229043006897, -0.6014639735221863, 0.4053172171115875, -0.6300264596939087, 9.616131782531738, -1.9095730781555176, -0.5768696069717407, 0.8425161838531494, -0.7732168436050415, -0.919474184513092, -1.0556640625, -0.104248046875, -0.126220703125, 0, 
159, 1008072170, -0.27757757902145386, -0.6015081405639648, 0.4052947461605072, -0.6299920678138733, 9.619559288024902, -1.8768093585968018, -0.581868052482605, 0.8660812973976135, -1.3285846710205078, -1.0584826469421387, -1.054931640625, -0.1015625, -0.129638671875, 0, 
160, 1008080503, -0.2776360809803009, -0.6015332341194153, 0.4052623510360718, -0.629963219165802, 9.692781448364258, -1.8607333898544312, -0.4655642509460449, 0.5515896677970886, -0.8531331419944763, -1.2373723983764648, -1.05615234375, -0.105224609375, -0.126220703125, 0, 
161, 1008088836, -0.27771270275115967, -0.6015251278877258, 0.40525755286216736, -0.6299402117729187, 9.756148338317871, -1.8277015686035156, -0.39535194635391235, 0.06970914453268051, -0.5063422322273254, -1.108199954032898, -1.055419921875, -0.104248046875, -0.128173828125, 0, 
162, 1008097169, -0.27780547738075256, -0.6014924645423889, 0.40523749589920044, -0.6299434900283813, 9.727258682250977, -1.8852747678756714, -0.42854827642440796, 0.12070707976818085, 0.056902021169662476, -0.9877873063087463, -1.05615234375, -0.103271484375, -0.127197265625, 0, 
163, 1008105502, -0.27790436148643494, -0.6014443635940552, 0.40522149205207825, -0.6299560070037842, 9.631503105163574, -1.9514529705047607, -0.45022138953208923, 0.02993023209273815, 0.2991102337837219, -1.0346871614456177, -1.0537109375, -0.10205078125, -0.130859375, 0, 
164, 1008113835, -0.27795764803886414, -0.6014487743377686, 0.4051821529865265, -0.6299534440040588, 9.599522590637207, -1.9809225797653198, -0.49888932704925537, 0.7239478826522827, -0.45934003591537476, -1.0321255922317505, -1.058349609375, -0.1044921875, -0.12939453125, 0, 
165, 1008122168, -0.277961790561676, -0.6014724373817444, 0.40512552857398987, -0.6299655437469482, 9.625892639160156, -1.9680497646331787, -0.47214213013648987, 1.4355372190475464, -0.6980136036872864, -0.9511334300041199, -1.054931640625, -0.103759765625, -0.128662109375, 0, 
166, 1008130501, -0.27796751260757446, -0.6014984846115112, 0.4050823152065277, -0.6299660205841064, 9.666159629821777, -1.9707403182983398, -0.4439160227775574, 1.2500897645950317, -0.8706021904945374, -0.7622027397155762, -1.05712890625, -0.105712890625, -0.126953125, 0, 
167, 1008138834, -0.2779567241668701, -0.6015220880508423, 0.40507784485816956, -0.6299511194229126, 9.688109397888184, -1.9669249057769775, -0.5147687792778015, 0.9559615850448608, -1.2049190998077393, -0.49430346488952637, -1.053955078125, -0.104736328125, -0.127197265625, 0, 
168, 1008147167, -0.27794909477233887, -0.6015784740447998, 0.40506207942962646, -0.6299107074737549, 9.639678955078125, -1.923891305923462, -0.5526716709136963, 1.0111603736877441, -1.6498639583587646, -0.7450156211853027, -1.056396484375, -0.1025390625, -0.128662109375, 0, 
169, 1008155500, -0.2779557704925537, -0.6016474366188049, 0.4050966501235962, -0.6298195719718933, 9.671211242675781, -1.9216055870056152, -0.5833666324615479, 0.22810758650302887, -2.279871940612793, -0.8669906854629517, -1.056884765625, -0.10498046875, -0.1298828125, 0, 
170, 1008163833, -0.27799561619758606, -0.6016719937324524, 0.40513455867767334, -0.6297540664672852, 9.695000648498535, -1.8924777507781982, -0.5525070428848267, -0.10804083943367004, -1.5232784748077393, -0.6301613450050354, -1.05419921875, -0.104736328125, -0.126708984375, 0, 
171, 1008172166, -0.2780342400074005, -0.6016477942466736, 0.40515315532684326, -0.6297484040260315, 9.690628051757812, -1.900038480758667, -0.47879719734191895, 0.215889573097229, -0.5267311334609985, -0.42942264676094055, -1.055908203125, -0.106689453125, -0.12890625, 0, 
172, 1008180499, -0.27803972363471985, -0.6016543507575989, 0.4051499366760254, -0.6297417879104614, 9.686366081237793, -1.881941556930542, -0.4369957745075226, 0.7918768525123596, -0.9138133525848389, -0.3474571108818054, -1.054443359375, -0.104248046875, -0.127685546875, 0, 
173, 1008188832, -0.27801209688186646, -0.601675271987915, 0.40512746572494507, -0.6297482848167419, 9.666691780090332, -1.8618063926696777, -0.4459224045276642, 1.3628696203231812, -1.0294874906539917, -0.4019642174243927, -1.055908203125, -0.104248046875, -0.127685546875, 0, 
174, 1008197165, -0.2779892086982727, -0.6017409563064575, 0.4050726592540741, -0.6297309398651123, 9.673240661621094, -1.9102903604507446, -0.4833926856517792, 1.6400408744812012, -1.474867582321167, -0.8976507782936096, -1.0576171875, -0.102783203125, -0.127197265625, 0, 
175, 1008205498, -0.2779814302921295, -0.6017993092536926, 0.40502089262008667, -0.6297120451927185, 9.643982887268066, -1.9160887002944946, -0.4814121127128601, 1.4530059099197388, -1.3422882556915283, -1.121314287185669, -1.05419921875, -0.103759765625, -0.126708984375, 0, 
176, 1008213831, -0.2779754400253296, -0.6018534898757935, 0.40497615933418274, -0.6296916604042053, 9.69204044342041, -1.8615654706954956, -0.4847276210784912, 1.351317286491394, -1.3471550941467285, -0.9108677506446838, -1.055908203125, -0.103271484375, -0.125244140625, 0, 
177, 1008222164, -0.2779732942581177, -0.6018893122673035, 0.4049617648124695, -0.6296675205230713, 9.679442405700684, -1.826641321182251, -0.4959365129470825, 0.9665403962135315, -1.3010751008987427, -0.7537245750427246, -1.056396484375, -0.104248046875, -0.12890625, 0, 
178, 1008230497, -0.27803942561149597, -0.6018955707550049, 0.4049941599369049, -0.6296114921569824, 9.680314064025879, -1.8249262571334839, -0.45168057084083557, -0.29517844319343567, -1.1193419694900513, -0.7651996612548828, -1.056396484375, -0.107177734375, -0.12841796875, 0, 
179, 1008238830, -0.2781144380569458, -0.6018550395965576, 0.40503042936325073, -0.6295937895774841, 9.691650390625, -1.816814661026001, -0.5157483220100403, -0.3637605309486389, -0.351721853017807, -0.5538437366485596, -1.0556640625, -0.10546875, -0.125244140625, 0, 
180, 1008247163, -0.27815040946006775, -0.6018409132957458, 0.40500608086586, -0.629607081413269, 9.652311325073242, -1.8515992164611816, -0.5375293493270874, 0.7531865239143372, -0.32037001848220825, -0.5963889956474304, -1.0546875, -0.105712890625, -0.127197265625, 0, 
181, 1008255496, -0.27816343307495117, -0.601844072341919, 0.4049556255340576, -0.6296307444572449, 9.649471282958984, -1.8692739009857178, -0.5144968628883362, 1.297937273979187, -0.3988136351108551, -0.8186821341514587, -1.0546875, -0.104736328125, -0.126708984375, 0, 
182, 1008263829, -0.2781513035297394, -0.6018960475921631, 0.4048886299133301, -0.6296295523643494, 9.653524398803711, -1.863518238067627, -0.43534332513809204, 1.6931136846542358, -1.1172418594360352, -0.9547193646430969, -1.05224609375, -0.1044921875, -0.12548828125, 0, 
183, 1008272162, -0.27809756994247437, -0.6019654870033264, 0.4048038721084595, -0.6296414136886597, 9.699950218200684, -1.905112624168396, -0.5016435980796814, 2.3311002254486084, -1.3116921186447144, -0.9388257265090942, -1.0546875, -0.107177734375, -0.12939453125, 0, 
184, 1008280495, -0.2780853807926178, -0.6020300984382629, 0.4047258198261261, -0.629635214805603, 9.652362823486328, -1.9514678716659546, -0.496953547000885, 1.810644507408142, -1.2262941598892212, -1.1351845264434814, -1.05712890625, -0.106689453125, -0.1279296875, 0, 
185, 1008288828, -0.27813732624053955, -0.6020464301109314, 0.40472176671028137, -0.6295993328094482, 9.662568092346191, -1.9131923913955688, -0.504768967628479, 0.2907855808734894, -0.9672702550888062, -1.0735437870025635, -1.05712890625, -0.105712890625, -0.126953125, 0, 
186, 1008297161, -0.27822864055633545, -0.6020239591598511, 0.4047113060951233, -0.6295871734619141, 9.674320220947266, -1.8607333898544312, -0.5539090037345886, 0.002318088198080659, -0.20460650324821472, -1.0104047060012817, -1.0517578125, -0.104248046875, -0.1259765625, 0, 
187, 1008305494, -0.2782970368862152, -0.601984977722168, 0.4047166407108307, -0.6295908689498901, 9.691902160644531, -1.8210136890411377, -0.4409656226634979, 0.08008290827274323, -0.10581240057945251, -0.6785979270935059, -1.0556640625, -0.103271484375, -0.125244140625, 0, 
188, 1008313827, -0.27838703989982605, -0.6019341349601746, 0.40471845865249634, -0.6295986175537109, 9.6920166015625, -1.8008211851119995, -0.4906206429004669, -0.09172457456588745, 0.1516234576702118, -0.663101315498352, -1.0546875, -0.1064453125, -0.125244140625, 0, 
189, 1008322160, -0.27847424149513245, -0.601881206035614, 0.40473103523254395, -0.629602313041687, 9.65041446685791, -1.8031671047210693, -0.46018511056900024, -0.19041621685028076, 0.09224966168403625, -0.7039303779602051, -1.0556640625, -0.1064453125, -0.125244140625, 0, 
190, 1008330493, -0.27849942445755005, -0.60190349817276, 0.4047014117240906, -0.6295889019966125, 9.64915657043457, -1.827765941619873, -0.511342465877533, 0.8800410628318787, -0.897036075592041, -0.8491118550300598, -1.05517578125, -0.107177734375, -0.126953125, 0, 
191, 1008338826, -0.27847009897232056, -0.6019737720489502, 0.404659241437912, -0.629561722278595, 9.680075645446777, -1.8503729104995728, -0.5149489045143127, 1.5456268787384033, -1.669253945350647, -0.9533105492591858, -1.056884765625, -0.105224609375, -0.12939453125, 0, 
192, 1008347159, -0.2784537076950073, -0.6020456552505493, 0.4045940339565277, -0.6295421719551086, 9.658674240112305, -1.899800181388855, -0.5464407801628113, 1.6882725954055786, -1.4710767269134521, -1.0821757316589355, -1.0537109375, -0.106689453125, -0.126708984375, 0, 
193, 1008355492, -0.27845126390457153, -0.6021059155464172, 0.4045587182044983, -0.629508376121521, 9.64667797088623, -1.9151723384857178, -0.5126625299453735, 1.1917662620544434, -1.5155173540115356, -1.098645806312561, -1.059814453125, -0.105712890625, -0.128662109375, 0, 
194, 1008363825, -0.27844661474227905, -0.6021672487258911, 0.40453794598579407, -0.6294650435447693, 9.675915718078613, -1.9179496765136719, -0.47878506779670715, 1.032983660697937, -1.681343913078308, -0.8502132892608643, -1.055908203125, -0.103759765625, -0.1328125, 0, 
195, 1008372158, -0.27845603227615356, -0.6021968722343445, 0.4045378267765045, -0.6294326186180115, 9.668976783752441, -1.8849886655807495, -0.5223363637924194, 0.6770225763320923, -1.3071712255477905, -0.731875479221344, -1.055419921875, -0.107177734375, -0.12744140625, 0, 
196, 1008380491, -0.27850717306137085, -0.6021935939788818, 0.4045364260673523, -0.6294140815734863, 9.65341854095459, -1.8411492109298706, -0.5055917501449585, 0.29350072145462036, -0.6815692186355591, -0.7190684676170349, -1.057373046875, -0.1064453125, -0.12548828125, 0, 
197, 1008388824, -0.27855536341667175, -0.6021538376808167, 0.4045765697956085, -0.6294050812721252, 9.695098876953125, -1.8109925985336304, -0.496106892824173, -0.1274564415216446, -0.4487358033657074, -0.258498877286911, -1.056396484375, -0.107177734375, -0.1279296875, 0, 
198, 1008397157, -0.2786206603050232, -0.6021125316619873, 0.40459883213043213, -0.6294013857841492, 9.68613052368164, -1.8085681200027466, -0.532493531703949, -0.09192948788404465, -0.2414398044347763, -0.37827104330062866, -1.05615234375, -0.107421875, -0.1259765625, 0, 
199, 1008405490, -0.27867764234542847, -0.6020760536193848, 0.4045952260494232, -0.6294132471084595, 9.619241714477539, -1.8501899242401123, -0.48489150404930115, 0.30740922689437866, -0.08906068652868271, -0.6340291500091553, -1.058349609375, -0.106689453125, -0.128662109375, 0, 
200, 1008413823, -0.27872517704963684, -0.6020675897598267, 0.40457555651664734, -0.6294130086898804, 9.682310104370117, -1.834754228591919, -0.47902557253837585, 0.5630393624305725, -0.4363897144794464, -0.7405074834823608, -1.05712890625, -0.1083984375, -0.12548828125, 0, 
201, 1008422156, -0.27867671847343445, -0.6021339297294617, 0.4045185148715973, -0.6294076442718506, 9.665483474731445, -1.8419665098190308, -0.4794486165046692, 1.9403935670852661, -1.5030434131622314, -0.8031599521636963, -1.054443359375, -0.110107421875, -0.1279296875, 0, 
202, 1008430489, -0.2785876393318176, -0.6022699475288391, 0.4044656455516815, -0.6293509602546692, 9.751375198364258, -1.8323328495025635, -0.499176025390625, 2.22245717048645, -2.786623239517212, -0.8523647785186768, -1.06103515625, -0.105712890625, -0.126708984375, 0, 
203, 1008438822, -0.27855420112609863, -0.6023510694503784, 0.4044645130634308, -0.6292888522148132, 9.71715259552002, -1.8384454250335693, -0.5184882879257202, 1.0725064277648926, -2.231691360473633, -0.7691954970359802, -1.05615234375, -0.107177734375, -0.126953125, 0, 
204, 1008447155, -0.2785707116127014, -0.6023880839347839, 0.4044666290283203, -0.6292447447776794, 9.657383918762207, -1.8787133693695068, -0.4941447079181671, 0.5624245405197144, -1.4486130475997925, -0.7115634083747864, -1.052490234375, -0.111328125, -0.12744140625, 0, 
205, 1008455488, -0.27857065200805664, -0.6024168133735657, 0.4044865369796753, -0.6292043328285217, 9.62944221496582, -1.8727718591690063, -0.4882030785083771, 0.537194550037384, -1.494769811630249, -0.5108246803283691, -1.05859375, -0.108154296875, -0.127197265625, 0, 
206, 1008463821, -0.2785877287387848, -0.6024265885353088, 0.4044974148273468, -0.629180371761322, 9.657668113708496, -1.851048469543457, -0.5517131090164185, 0.48970574140548706, -1.0760540962219238, -0.4161800742149353, -1.056396484375, -0.107177734375, -0.12890625, 0, 
207, 1008472154, -0.278617799282074, -0.6023845672607422, 0.4045121371746063, -0.6291977763175964, 9.696486473083496, -1.8314567804336548, -0.6113463640213013, 0.38040977716445923, -0.21562062203884125, -0.19733205437660217, -1.05859375, -0.1083984375, -0.126220703125, 0, 
208, 1008480487, -0.2786286473274231, -0.6023355722427368, 0.40446341037750244, -0.6292712092399597, 9.699712753295898, -1.8443028926849365, -0.6368318796157837, 1.373832106590271, 0.4336361885070801, -0.15460750460624695, -1.0537109375, -0.10498046875, -0.125732421875, 0, 
209, 1008488820, -0.27862831950187683, -0.6023081541061401, 0.40441522002220154, -0.6293286085128784, 9.651473999023438, -1.8634586334228516, -0.45473483204841614, 1.4567456245422363, 0.06053924933075905, -0.3853917717933655, -1.052734375, -0.10791015625, -0.125732421875, 0, 
210, 1008497153, -0.27860507369041443, -0.6023481488227844, 0.40440285205841064, -0.6293085217475891, 9.687288284301758, -1.8378262519836426, -0.4903301000595093, 1.1619511842727661, -1.440390706062317, -0.41192808747291565, -1.055908203125, -0.10595703125, -0.125, 0, 
211, 1008505486, -0.2785610258579254, -0.6024100184440613, 0.40440547466278076, -0.629267156124115, 9.707136154174805, -1.8420462608337402, -0.43867671489715576, 1.1709932088851929, -1.9667119979858398, -0.4601084887981415, -1.053466796875, -0.105712890625, -0.126708984375, 0, 
212, 1008513819, -0.27853962779045105, -0.6024339199066162, 0.40441009402275085, -0.6292508244514465, 9.700113296508789, -1.8426152467727661, -0.4482615292072296, 0.9583949446678162, -1.3247936964035034, -0.183961421251297, -1.0546875, -0.107421875, -0.13037109375, 0, 
213, 1008522152, -0.27852749824523926, -0.6024465560913086, 0.40444543957710266, -0.6292213797569275, 9.644476890563965, -1.8830076456069946, -0.5477361083030701, 0.501923680305481, -1.392287254333496, -0.14589865505695343, -1.0546875, -0.105712890625, -0.126708984375, 0, 
214, 1008530485, -0.2785566449165344, -0.6024408340454102, 0.40449386835098267, -0.629182755947113, 9.621088981628418, -1.9132496118545532, -0.5844373106956482, -0.07633042335510254, -1.1404480934143066, -0.17976069450378418, -1.056640625, -0.107421875, -0.12646484375, 0, 
215, 1008538818, -0.27853870391845703, -0.6024652719497681, 0.40454426407814026, -0.6291349530220032, 9.647906303405762, -1.842737078666687, -0.5531436204910278, 0.3637349307537079, -1.734519124031067, -0.10617100447416306, -1.0556640625, -0.107177734375, -0.126953125, 0, 
216, 1008547151, -0.2785034775733948, -0.6025042533874512, 0.40453580021858215, -0.6291186809539795, 9.699502944946289, -1.8155444860458374, -0.4593060314655304, 1.245248794555664, -1.4811686277389526, -0.2552202343940735, -1.056640625, -0.10693359375, -0.12646484375, 0, 
217, 1008555484, -0.2784557640552521, -0.6024947762489319, 0.404507040977478, -0.629167377948761, 9.717036247253418, -1.729352593421936, -0.48591408133506775, 1.7010540962219238, -0.5065215229988098, 0.05285497382283211, -1.05078125, -0.107421875, -0.12548828125, 0, 
218, 1008563817, -0.27843067049980164, -0.6024932861328125, 0.40446507930755615, -0.6292068958282471, 9.656665802001953, -1.7253986597061157, -0.5582385063171387, 1.6059997081756592, -0.4839809536933899, -0.18234772980213165, -1.055908203125, -0.10400390625, -0.124267578125, 0, 
219, 1008572150, -0.2784132659435272, -0.6024987101554871, 0.40440794825553894, -0.6292460560798645, 9.672080993652344, -1.7433409690856934, -0.6220968961715698, 1.700465202331543, -0.4349041283130646, -0.5631290078163147, -1.05419921875, -0.1103515625, -0.1259765625, 0, 
220, 1008580483, -0.27840670943260193, -0.6025218367576599, 0.404319703578949, -0.6292835474014282, 9.669922828674316, -1.8162193298339844, -0.5695764422416687, 1.936090350151062, -0.4346991777420044, -0.8708071112632751, -1.055419921875, -0.10595703125, -0.124755859375, 0, 
221, 1008588816, -0.27840712666511536, -0.6025287508964539, 0.404236376285553, -0.6293303370475769, 9.67607593536377, -1.820739984512329, -0.504332959651947, 1.823272466659546, -0.18451213836669922, -0.9140310883522034, -1.055908203125, -0.10693359375, -0.125, 0, 
222, 1008597149, -0.2784176766872406, -0.6025438904762268, 0.4041602313518524, -0.6293600797653198, 9.708534240722656, -1.8592530488967896, -0.44573742151260376, 1.616552710533142, -0.3812422454357147, -0.9027480483055115, -1.05712890625, -0.10498046875, -0.12548828125, 0, 
223, 1008605482, -0.27842774987220764, -0.6025775074958801, 0.4041386842727661, -0.6293373703956604, 9.721334457397461, -1.9049816131591797, -0.46712374687194824, 0.9295533299446106, -1.175872802734375, -0.9004683494567871, -1.05908203125, -0.106689453125, -0.127685546875, 0, 
224, 1008613815, -0.2784472107887268, -0.6026041507720947, 0.40410691499710083, -0.6293237805366516, 9.67691707611084, -1.9039006233215332, -0.45883312821388245, 0.9606746435165405, -0.9586639404296875, -0.842195987701416, -1.054931640625, -0.107421875, -0.124267578125, 0, 
225, 1008622148, -0.27845457196235657, -0.602613627910614, 0.40408164262771606, -0.6293274164199829, 9.649835586547852, -1.8920271396636963, -0.3949871361255646, 1.0360060930252075, -0.7480893135070801, -0.6720150113105774, -1.054931640625, -0.107177734375, -0.1279296875, 0, 
226, 1008630481, -0.2784886956214905, -0.6026290059089661, 0.4041481912136078, -0.6292548775672913, 9.634703636169434, -1.8605892658233643, -0.34278690814971924, -0.38178014755249023, -1.6454071998596191, -0.31882038712501526, -1.057373046875, -0.107421875, -0.12548828125, 0, 
227, 1008638814, -0.27851760387420654, -0.6026128530502319, 0.40423503518104553, -0.6292018890380859, 9.699769973754883, -1.808896780014038, -0.48451927304267883, -0.5262700915336609, -1.306889533996582, -0.0004866704693995416, -1.055908203125, -0.108642578125, -0.12890625, 0, 
228, 1008647147, -0.27853256464004517, -0.6025828123092651, 0.4042584002017975, -0.629209041595459, 9.702917098999023, -1.7977454662322998, -0.5935572385787964, 0.41918978095054626, -0.5327504873275757, 0.04547807574272156, -1.056640625, -0.10888671875, -0.126220703125, 0, 
229, 1008655480, -0.27850964665412903, -0.6025621294975281, 0.404233455657959, -0.6292548775672913, 9.64511489868164, -1.8176517486572266, -0.7115576267242432, 1.4050815105438232, -0.30990660190582275, -0.0757668986916542, -1.05419921875, -0.1064453125, -0.124755859375, 0, 
230, 1008663813, -0.27846094965934753, -0.602584183216095, 0.4041443169116974, -0.6293126344680786, 9.653695106506348, -1.869380235671997, -0.6438416242599487, 2.4012961387634277, -0.4872083365917206, -0.43037036061286926, -1.055908203125, -0.10693359375, -0.125, 0, 
231, 1008672146, -0.2784613072872162, -0.6025708317756653, 0.40409547090530396, -0.6293566226959229, 9.665608406066895, -1.8712981939315796, -0.46879732608795166, 1.4337184429168701, -0.1676451712846756, -0.5245282649993896, -1.05712890625, -0.10986328125, -0.126708984375, 0, 
232, 1008680479, -0.2784885764122009, -0.602549135684967, 0.4040878117084503, -0.6293702125549316, 9.691436767578125, -1.821364164352417, -0.4690333604812622, 0.6541235446929932, -0.3645161986351013, -0.3389531970024109, -1.059326171875, -0.1083984375, -0.125732421875, 0, 
233, 1008688812, -0.2784706950187683, -0.6025569438934326, 0.4040721356868744, -0.6293805837631226, 9.681137084960938, -1.8095262050628662, -0.4330688714981079, 1.1935594081878662, -0.8558740019798279, -0.336135596036911, -1.05517578125, -0.10791015625, -0.12548828125, 0, 
234, 1008697145, -0.27844762802124023, -0.6026045680046082, 0.4040646553039551, -0.629349946975708, 9.717757225036621, -1.7652851343154907, -0.42749112844467163, 1.089258074760437, -1.6097266674041748, -0.45670178532600403, -1.056396484375, -0.109619140625, -0.129150390625, 0, 
235, 1008705478, -0.27840477228164673, -0.6026575565338135, 0.40407517552375793, -0.629311740398407, 9.738609313964844, -1.7655119895935059, -0.45658186078071594, 1.0760667324066162, -1.8886655569076538, -0.34015703201293945, -1.053955078125, -0.108154296875, -0.12744140625, 0, 
236, 1008713811, -0.2783772945404053, -0.6027104258537292, 0.40409234166145325, -0.6292621493339539, 9.68744945526123, -1.7921561002731323, -0.5165243148803711, 0.8275319337844849, -1.9337977170944214, -0.31651508808135986, -1.055419921875, -0.107666015625, -0.1279296875, 0, 
237, 1008722144, -0.27837902307510376, -0.6027042865753174, 0.4041350185871124, -0.6292397379875183, 9.683069229125977, -1.8262135982513428, -0.5197756886482239, 0.28832659125328064, -1.122313380241394, -0.0701061561703682, -1.057373046875, -0.10888671875, -0.125244140625, 0, 
238, 1008730477, -0.2784092128276825, -0.6026729941368103, 0.4041712284088135, -0.629233181476593, 9.6731538772583, -1.8156132698059082, -0.5044757127761841, 0.10075358301401138, -0.599398672580719, -0.023872464895248413, -1.053466796875, -0.104736328125, -0.126953125, 0, 
239, 1008738810, -0.278439462184906, -0.6026492714881897, 0.4042058289051056, -0.6292202472686768, 9.667680740356445, -1.8136320114135742, -0.5706037282943726, 0.10710591822862625, -0.7027521133422852, -0.2496875524520874, -1.0556640625, -0.1083984375, -0.125, 0, 
240, 1008747143, -0.27849653363227844, -0.6026309728622437, 0.40423882007598877, -0.6291912794113159, 9.682740211486816, -1.8277088403701782, -0.5635010600090027, -0.16877220571041107, -0.7352054119110107, -0.4423578679561615, -1.055908203125, -0.10693359375, -0.1240234375, 0, 
241, 1008755476, -0.2785849869251251, -0.6025838255882263, 0.40428733825683594, -0.6291661858558655, 9.703268051147461, -1.834761381149292, -0.47770261764526367, -0.6513956189155579, -0.33044925332069397, -0.5544201135635376, -1.0556640625, -0.10888671875, -0.125, 0, 
242, 1008763809, -0.27868616580963135, -0.6025242805480957, 0.40433233976364136, -0.6291494369506836, 9.676816940307617, -1.8215930461883545, -0.48606428503990173, -0.7275210618972778, -0.07896868139505386, -0.44655853509902954, -1.056640625, -0.1064453125, -0.12548828125, 0, 
243, 1008772142, -0.27875688672065735, -0.6024789810180664, 0.40436238050460815, -0.629142165184021, 9.63713264465332, -1.8748602867126465, -0.480721116065979, -0.2414141595363617, -0.22709578275680542, -0.4964294731616974, -1.056884765625, -0.103515625, -0.12939453125, 0, 
244, 1008780475, -0.2788357436656952, -0.6024574041366577, 0.40440425276756287, -0.6291009783744812, 9.649234771728516, -1.904008150100708, -0.514468252658844, -0.5062397122383118, -0.7226032018661499, -0.5847985744476318, -1.0546875, -0.106201171875, -0.126708984375, 0, 
245, 1008788808, -0.2789386808872223, -0.6023999452590942, 0.404457688331604, -0.6290762424468994, 9.664335250854492, -1.9081209897994995, -0.5109275579452515, -0.8515707850456238, -0.17448416352272034, -0.5785999894142151, -1.0517578125, -0.1064453125, -0.1259765625, 0, 
246, 1008797141, -0.2789803743362427, -0.6023980975151062, 0.4044869542121887, -0.6290407180786133, 9.66345500946045, -1.9036147594451904, -0.5541951060295105, 0.017430488020181656, -1.0036171674728394, -0.455856591463089, -1.056884765625, -0.110595703125, -0.124267578125, 0, 
247, 1008805474, -0.2789897322654724, -0.6024069786071777, 0.40450531244277954, -0.629016101360321, 9.64849853515625, -1.9431625604629517, -0.5915542840957642, 0.48268744349479675, -1.1368110179901123, -0.42972999811172485, -1.055908203125, -0.10546875, -0.125244140625, 0, 
248, 1008813807, -0.27900612354278564, -0.6024107933044434, 0.40449240803718567, -0.6290135383605957, 9.60549545288086, -2.0040836334228516, -0.516485333442688, 0.7969997525215149, -0.7594364881515503, -0.4918958246707916, -1.05908203125, -0.111328125, -0.12646484375, 0, 
249, 1008822140, -0.2789555490016937, -0.6024259924888611, 0.4044320583343506, -0.6290600895881653, 9.622087478637695, -1.9698419570922852, -0.5325537323951721, 2.0790176391601562, -0.6307249069213867, -0.32632529735565186, -1.0546875, -0.1064453125, -0.126220703125, 0, 
250, 1008830473, -0.2788854241371155, -0.6024770140647888, 0.4043654203414917, -0.6290851831436157, 9.648575782775879, -1.9208756685256958, -0.5582721829414368, 2.31320858001709, -1.2140378952026367, -0.34530550241470337, -1.05615234375, -0.10546875, -0.125732421875, 0, 
251, 1008838806, -0.2787882089614868, -0.6025580167770386, 0.4043126106262207, -0.6290846467018127, 9.710915565490723, -1.8696403503417969, -0.5292595624923706, 2.3890013694763184, -1.878522515296936, -0.40672844648361206, -1.056884765625, -0.10693359375, -0.12451171875, 0, 
252, 1008847139, -0.27871066331863403, -0.6026045680046082, 0.4042486548423767, -0.6291154623031616, 9.74172592163086, -1.8682180643081665, -0.47486671805381775, 2.3672420978546143, -1.1794970035552979, -0.21145831048488617, -1.053955078125, -0.109130859375, -0.123779296875, 0, 
253, 1008855472, -0.27862709760665894, -0.6026603579521179, 0.4042360186576843, -0.6291071772575378, 9.700250625610352, -1.8245775699615479, -0.45086607336997986, 1.7900123596191406, -1.8031907081604004, -0.08047991991043091, -1.0546875, -0.107421875, -0.1259765625, 0, 
254, 1008863805, -0.27857843041419983, -0.6027060151100159, 0.40423402190208435, -0.6290863752365112, 9.707600593566895, -1.7800965309143066, -0.5438656210899353, 1.3004474639892578, -1.676297903060913, -0.1412625014781952, -1.056884765625, -0.10693359375, -0.125, 0, 
255, 1008872138, -0.27859270572662354, -0.602702796459198, 0.4042646288871765, -0.6290633678436279, 9.680371284484863, -1.7954493761062622, -0.5175368189811707, 0.2986748218536377, -1.037888765335083, -0.2988668978214264, -1.052734375, -0.105224609375, -0.12646484375, 0, 
256, 1008880471, -0.278644859790802, -0.6026655435562134, 0.40429434180259705, -0.6290568709373474, 9.636174201965332, -1.802180290222168, -0.495162695646286, -0.046259310096502304, -0.4003504812717438, -0.23288464546203613, -1.055419921875, -0.108154296875, -0.12744140625, 0, 
257, 1008888804, -0.27866339683532715, -0.6026411652565002, 0.40430739521980286, -0.6290637254714966, 9.711215019226074, -1.7801780700683594, -0.42677438259124756, 0.49534085392951965, -0.5143594145774841, -0.2477920949459076, -1.055419921875, -0.108154296875, -0.123046875, 0, 
258, 1008897137, -0.27872994542121887, -0.6025780439376831, 0.40433597564697266, -0.6290762424468994, 9.735649108886719, -1.7758864164352417, -0.4605143368244171, -0.15043240785598755, 0.06427892297506332, -0.15219978988170624, -1.0556640625, -0.104248046875, -0.127197265625, 0, 
259, 1008905470, -0.2788161039352417, -0.6024718284606934, 0.4043843448162079, -0.6291086673736572, 9.732157707214355, -1.7750279903411865, -0.5321857929229736, -0.5378220677375793, 0.6445693373680115, 0.012691853567957878, -1.0537109375, -0.107421875, -0.125732421875, 0, 
260, 1008913803, -0.2788677215576172, -0.6024008989334106, 0.4043804407119751, -0.629156231880188, 9.683675765991211, -1.8250621557235718, -0.523380696773529, 0.4198300838470459, 0.4643988609313965, -0.11344543844461441, -1.0546875, -0.10693359375, -0.125732421875, 0, 
261, 1008922136, -0.27891552448272705, -0.6023443937301636, 0.4044171869754791, -0.6291654706001282, 9.659627914428711, -1.8792376518249512, -0.5300042033195496, -0.058912742882966995, -0.14589866995811462, -0.11700582504272461, -1.0576171875, -0.107666015625, -0.127197265625, 0, 
262, 1008930469, -0.2789731025695801, -0.6023062467575073, 0.4044678807258606, -0.6291438341140747, 9.653899192810059, -1.8949097394943237, -0.48993396759033203, -0.36054593324661255, -0.5691226720809937, -0.16026827692985535, -1.05712890625, -0.107177734375, -0.12744140625, 0, 
263, 1008938802, -0.27903664112091064, -0.6022605299949646, 0.40453243255615234, -0.6291179656982422, 9.661787986755371, -1.9287641048431396, -0.5299040675163269, -0.5813918709754944, -0.5488618612289429, -0.21728557348251343, -1.055419921875, -0.106689453125, -0.12841796875, 0, 
264, 1008947135, -0.2791042923927307, -0.6022102236747742, 0.404585063457489, -0.6291022896766663, 9.613377571105957, -1.9874532222747803, -0.48821014165878296, -0.4741450548171997, -0.36715441942214966, -0.14144179224967957, -1.05419921875, -0.106201171875, -0.126708984375, 0, 
265, 1008955468, -0.279127299785614, -0.6021871566772461, 0.4046269655227661, -0.6290872097015381, 9.6289644241333, -1.9077204465866089, -0.49625709652900696, 0.09232650697231293, -0.794886589050293, -0.13934144377708435, -1.0556640625, -0.105712890625, -0.126953125, 0, 
266, 1008963801, -0.2790927290916443, -0.6022260189056396, 0.40464457869529724, -0.6290540099143982, 9.640189170837402, -1.8868590593338013, -0.4553649425506592, 0.9195894598960876, -1.7168452739715576, -0.10898856073617935, -1.056396484375, -0.107666015625, -0.1279296875, 0, 
267, 1008972134, -0.27904582023620605, -0.6022524833679199, 0.4046436548233032, -0.6290501356124878, 9.697689056396484, -1.8395899534225464, -0.48944416642189026, 1.29619562625885, -1.3549675941467285, -0.12266658246517181, -1.0576171875, -0.108642578125, -0.130615234375, 0, 
268, 1008980467, -0.27902084589004517, -0.6022545695304871, 0.40463653206825256, -0.6290639638900757, 9.678576469421387, -1.8458340167999268, -0.4680534303188324, 1.1743485927581787, -0.860177218914032, -0.01298641785979271, -1.0556640625, -0.10693359375, -0.13134765625, 0, 
269, 1008988800, -0.2790098488330841, -0.6022469401359558, 0.4046759605407715, -0.6290506720542908, 9.702667236328125, -1.8287816047668457, -0.4623812139034271, 0.46813860535621643, -1.093343734741211, 0.056671492755413055, -1.0576171875, -0.1123046875, -0.1259765625, 0, 
270, 1008997133, -0.2790287435054779, -0.6022453904151917, 0.40474992990493774, -0.6289961934089661, 9.705083847045898, -1.820226788520813, -0.4813433587551117, -0.2842923700809479, -1.461881160736084, 0.036359407007694244, -1.05517578125, -0.1064453125, -0.126220703125, 0, 
271, 1009005466, -0.27907198667526245, -0.602194607257843, 0.4048319160938263, -0.6289727687835693, 9.708475112915039, -1.8185745477676392, -0.46494194865226746, -0.5735539197921753, -0.6653041243553162, 0.1414802372455597, -1.056640625, -0.105712890625, -0.126953125, 0, 
272, 1009013799, -0.27908429503440857, -0.602148711681366, 0.4048689007759094, -0.6289874315261841, 9.677203178405762, -1.8220579624176025, -0.6464954018592834, 0.305257648229599, -0.4005553722381592, 0.30039089918136597, -1.05712890625, -0.104248046875, -0.126953125, 0, 
273, 1009022132, -0.27904313802719116, -0.6021628379821777, 0.40485018491744995, -0.6290042996406555, 9.644994735717773, -1.8282630443572998, -0.6465131044387817, 1.4720118045806885, -0.9773880243301392, -0.17000168561935425, -1.054443359375, -0.10302734375, -0.128662109375, 0, 
274, 1009030465, -0.2789965271949768, -0.6021971106529236, 0.4048234820365906, -0.6290093660354614, 9.65760326385498, -1.825347900390625, -0.5307890772819519, 1.5977518558502197, -1.2587859630584717, -0.20114858448505402, -1.05908203125, -0.107666015625, -0.127197265625, 0, 
275, 1009038798, -0.27895620465278625, -0.6022244691848755, 0.40480777621269226, -0.6290110945701599, 9.646998405456543, -1.8056526184082031, -0.5085542798042297, 1.4066568613052368, -1.2224265336990356, -0.28343430161476135, -1.05517578125, -0.10546875, -0.125244140625, 0, 
276, 1009047131, -0.2789365351200104, -0.6022599339485168, 0.4047853946685791, -0.6290003061294556, 9.672200202941895, -1.8342504501342773, -0.46311864256858826, 1.2529971599578857, -1.2657145261764526, -0.46637117862701416, -1.05517578125, -0.10791015625, -0.12548828125, 0, 
277, 1009055464, -0.27895286679267883, -0.6022452712059021, 0.4047800302505493, -0.6290104985237122, 9.664885520935059, -1.8336670398712158, -0.5054270625114441, 0.7329769730567932, -0.5133477449417114, -0.4209059178829193, -1.049560546875, -0.10693359375, -0.12646484375, 0, 
278, 1009063797, -0.2789704203605652, -0.6022467017173767, 0.404761403799057, -0.6290132999420166, 9.644478797912598, -1.8504905700683594, -0.49143606424331665, 0.8582433462142944, -0.6654322147369385, -0.5147436857223511, -1.053466796875, -0.105224609375, -0.127197265625, 0, 
279, 1009072130, -0.2789953052997589, -0.6022627949714661, 0.4047994613647461, -0.6289623379707336, 9.675915718078613, -1.8672066926956177, -0.4324394166469574, 0.06548279523849487, -1.405299425125122, -0.5413312315940857, -1.056640625, -0.104736328125, -0.126220703125, 0, 
280, 1009080463, -0.27902936935424805, -0.6022592186927795, 0.40483492612838745, -0.6289278268814087, 9.722573280334473, -1.8237603902816772, -0.45224565267562866, 0.026190554723143578, -1.0481088161468506, -0.32550567388534546, -1.054443359375, -0.110107421875, -0.12255859375, 0, 
281, 1009088796, -0.27907514572143555, -0.6022089719772339, 0.40485477447509766, -0.6289429664611816, 9.654664039611816, -1.8527723550796509, -0.5301830172538757, 0.16253511607646942, -0.09595092386007309, -0.24899598956108093, -1.056884765625, -0.106201171875, -0.12890625, 0, 
282, 1009097129, -0.27910926938056946, -0.6021876335144043, 0.404878705739975, -0.6289329528808594, 9.674720764160156, -1.8379945755004883, -0.5658113360404968, 0.19386133551597595, -0.6461703181266785, -0.2277105301618576, -1.055908203125, -0.108642578125, -0.12841796875, 0, 
283, 1009105462, -0.2791104018688202, -0.6021791100502014, 0.4048825204372406, -0.6289380192756653, 9.668404579162598, -1.842908501625061, -0.5582865476608276, 0.774023711681366, -0.7290835380554199, -0.2669515311717987, -1.055419921875, -0.107177734375, -0.1279296875, 0, 
284, 1009113795, -0.2790721654891968, -0.6022205948829651, 0.4048653841018677, -0.6289262771606445, 9.685142517089844, -1.8334211111068726, -0.5248258113861084, 1.3800052404403687, -1.4498937129974365, -0.2990718185901642, -1.054931640625, -0.109619140625, -0.12353515625, 0, 
285, 1009122128, -0.27903321385383606, -0.6022288203239441, 0.40486055612564087, -0.6289388537406921, 9.735569953918457, -1.8498539924621582, -0.4916292130947113, 1.2838494777679443, -1.001414179801941, -0.05627446994185448, -1.054443359375, -0.109130859375, -0.12744140625, 0, 
286, 1009130461, -0.27907249331474304, -0.6021583676338196, 0.40485236048698425, -0.6289941668510437, 9.67548656463623, -1.8641595840454102, -0.5872412323951721, 0.6037914752960205, 0.4709305167198181, -0.01646995358169079, -1.056396484375, -0.108154296875, -0.12841796875, 0, 
287, 1009138794, -0.27913498878479004, -0.6021063327789307, 0.4048588275909424, -0.6290121078491211, 9.598114013671875, -1.909251093864441, -0.5564268231391907, 0.14837044477462769, 0.08605101704597473, -0.48134270310401917, -1.059326171875, -0.107666015625, -0.128662109375, 0, 
288, 1009147127, -0.2791995406150818, -0.6020893454551697, 0.40490788221359253, -0.6289680600166321, 9.681371688842773, -1.8970052003860474, -0.4304150342941284, -0.44794175028800964, -0.8921181559562683, -0.43872061371803284, -1.057861328125, -0.110107421875, -0.128662109375, 0, 
289, 1009155460, -0.2792535722255707, -0.6020446419715881, 0.4049643278121948, -0.6289505958557129, 9.677360534667969, -1.9150161743164062, -0.40450748801231384, -0.38421347737312317, -0.5109015107154846, -0.17397187650203705, -1.057861328125, -0.10693359375, -0.125, 0, 
290, 1009163793, -0.27931302785873413, -0.6020119786262512, 0.4050287902355194, -0.628913938999176, 9.684112548828125, -1.88522469997406, -0.4578463137149811, -0.5576218962669373, -0.7832064628601074, -0.15150819718837738, -1.057373046875, -0.105712890625, -0.12841796875, 0, 
291, 1009172126, -0.27933621406555176, -0.602001428604126, 0.4050772488117218, -0.6288824081420898, 9.644392967224121, -1.8653970956802368, -0.5192034244537354, -0.005686359945684671, -1.0624016523361206, -0.2166195958852768, -1.05419921875, -0.105224609375, -0.126708984375, 0, 
292, 1009180459, -0.2793068587779999, -0.6020318865776062, 0.4050866365432739, -0.6288602948188782, 9.686747550964355, -1.8273355960845947, -0.5264923572540283, 0.9764531254768372, -1.491363286972046, -0.13462843000888824, -1.05712890625, -0.104248046875, -0.126953125, 0, 
293, 1009188792, -0.2792758643627167, -0.6020533442497253, 0.4051031470298767, -0.6288428902626038, 9.717924118041992, -1.7880381345748901, -0.528107225894928, 0.918308675289154, -1.4022512435913086, -0.13695931434631348, -1.05712890625, -0.103759765625, -0.126708984375, 0, 
294, 1009197125, -0.2792969346046448, -0.6020253300666809, 0.40508848428726196, -0.6288697719573975, 9.694669723510742, -1.8226587772369385, -0.557549774646759, 0.815787672996521, -0.20820529758930206, -0.2558477520942688, -1.05517578125, -0.107177734375, -0.126953125, 0, 
295, 1009205458, -0.279306560754776, -0.6019957065582275, 0.4050907492637634, -0.6288923621177673, 9.60791301727295, -1.8235743045806885, -0.5920979380607605, 0.7343729138374329, -0.3483791947364807, -0.1674402505159378, -1.056640625, -0.109375, -0.127197265625, 0, 
296, 1009213791, -0.27931123971939087, -0.6019826531410217, 0.40505051612854004, -0.6289287805557251, 9.670736312866211, -1.8189107179641724, -0.5619487762451172, 1.2829785346984863, -0.25035351514816284, -0.37332746386528015, -1.058349609375, -0.1064453125, -0.12451171875, 0, 
297, 1009222124, -0.27928459644317627, -0.6019769906997681, 0.40500250458717346, -0.6289768815040588, 9.664263725280762, -1.8065730333328247, -0.4682503938674927, 1.7015408277511597, -0.3548339903354645, -0.30678167939186096, -1.0556640625, -0.10693359375, -0.12646484375, 0, 
298, 1009230457, -0.27925553917884827, -0.6019881367683411, 0.4049597680568695, -0.6290066838264465, 9.718828201293945, -1.8160251379013062, -0.40062645077705383, 1.63996422290802, -0.6925064325332642, -0.26198238134384155, -1.052734375, -0.10986328125, -0.124267578125, 0, 
299, 1009238790, -0.27923890948295593, -0.6019759178161621, 0.40496209263801575, -0.6290242671966553, 9.714712142944336, -1.8525934219360352, -0.43413466215133667, 0.9890809059143066, -0.6877164840698242, -0.056043945252895355, -1.05908203125, -0.104736328125, -0.12744140625, 0, 
300, 1009247123, -0.2792428135871887, -0.6020059585571289, 0.40500113368034363, -0.6289686560630798, 9.679227828979492, -1.8621976375579834, -0.4853726327419281, 0.25641128420829773, -1.6936644315719604, -0.3038104176521301, -1.054443359375, -0.1064453125, -0.123291015625, 0, 
301, 1009255456, -0.2792624533176422, -0.6020140051841736, 0.4050556421279907, -0.6289171576499939, 9.694998741149902, -1.887284755706787, -0.5300042033195496, -0.06664824485778809, -1.4326298236846924, -0.3151063323020935, -1.05615234375, -0.10595703125, -0.1259765625, 0, 
302, 1009263789, -0.27928826212882996, -0.6019920706748962, 0.40506884455680847, -0.6289181113243103, 9.667975425720215, -1.8967550992965698, -0.5005702376365662, 0.41406694054603577, -0.5559826493263245, -0.20178894698619843, -1.059326171875, -0.10791015625, -0.125732421875, 0, 
303, 1009272122, -0.2792859971523285, -0.6019752621650696, 0.4050654172897339, -0.6289374232292175, 9.639264106750488, -1.8630868196487427, -0.4441772997379303, 0.9121357798576355, -0.5302914977073669, -0.19479624927043915, -1.05615234375, -0.104248046875, -0.126708984375, 0, 
304, 1009280455, -0.2792157530784607, -0.6020197868347168, 0.40502917766571045, -0.6289493441581726, 9.660164833068848, -1.8500633239746094, -0.43811488151550293, 1.9529958963394165, -1.3856276273727417, -0.10663206875324249, -1.056640625, -0.1064453125, -0.12646484375, 0, 
305, 1009288788, -0.2790931761264801, -0.6020625233650208, 0.40497636795043945, -0.6289969682693481, 9.711432456970215, -1.7850111722946167, -0.48855721950531006, 2.7217559814453125, -1.2913416624069214, 0.21284151077270508, -1.05615234375, -0.105224609375, -0.126220703125, 0, 
306, 1009297121, -0.27902543544769287, -0.6021042466163635, 0.40493375062942505, -0.6290144920349121, 9.67635726928711, -1.8010343313217163, -0.5304328203201294, 2.00811767578125, -1.2738215923309326, -0.14279936254024506, -1.05419921875, -0.10888671875, -0.124755859375, 0, 
307, 1009305454, -0.2790288031101227, -0.6021287441253662, 0.40497082471847534, -0.6289655566215515, 9.641489028930664, -1.8492316007614136, -0.4618018567562103, 0.2937312126159668, -1.5794504880905151, -0.40117010474205017, -1.0537109375, -0.10595703125, -0.126220703125, 0, 
308, 1009313787, -0.2790793180465698, -0.602107048034668, 0.4050481915473938, -0.6289140582084656, 9.660865783691406, -1.857600450515747, -0.5255193710327148, -0.6359246373176575, -1.0986201763153076, -0.08483434468507767, -1.0546875, -0.10791015625, -0.125244140625, 0, 
309, 1009322120, -0.27916833758354187, -0.6020091772079468, 0.40513068437576294, -0.6289151906967163, 9.683160781860352, -1.8737516403198242, -0.575996994972229, -0.9993905425071716, 0.1962178349494934, 0.10928312689065933, -1.057373046875, -0.107177734375, -0.128662109375, 0, 
310, 1009330453, -0.27933815121650696, -0.6018549203872681, 0.4052428901195526, -0.6289151310920715, 9.690914154052734, -1.881884217262268, -0.5715926885604858, -2.148188829421997, 1.0027332305908203, 0.1060045138001442, -1.0576171875, -0.104736328125, -0.12646484375, 0, 
311, 1009338786, -0.2794512212276459, -0.6017631888389587, 0.4053431749343872, -0.6288880705833435, 9.673053741455078, -1.8270578384399414, -0.5330799221992493, -1.487290620803833, -0.02110612951219082, -0.09390179067850113, -1.055419921875, -0.10546875, -0.124755859375, 0, 
312, 1009347119, -0.27949488162994385, -0.6017419695854187, 0.4054166376590729, -0.6288416385650635, 9.72964859008789, -1.8038400411605835, -0.48052090406417847, -0.5161524415016174, -1.087938904762268, -0.04228910058736801, -1.055419921875, -0.106689453125, -0.1279296875, 0, 
313, 1009355452, -0.27949535846710205, -0.6017432808876038, 0.4054418206214905, -0.6288239359855652, 9.682002067565918, -1.8474076986312866, -0.5356835722923279, 0.5034605860710144, -1.0877597332000732, -0.22502103447914124, -1.058837890625, -0.105224609375, -0.129150390625, 0, 
314, 1009363785, -0.27952027320861816, -0.6017471551895142, 0.405434250831604, -0.6288139224052429, 9.60627555847168, -1.8751678466796875, -0.5512838959693909, 0.6394977569580078, -0.7937595248222351, -0.5503473877906799, -1.0576171875, -0.10986328125, -0.127197265625, 0, 
315, 1009372118, -0.2795439660549164, -0.601748526096344, 0.4054385721683502, -0.6287994384765625, 9.61374282836914, -1.872413992881775, -0.4788685441017151, 0.5115546584129333, -0.8542090654373169, -0.5860792994499207, -1.056640625, -0.10693359375, -0.12646484375, 0, 
316, 1009380451, -0.2795351445674896, -0.6017863750457764, 0.40542250871658325, -0.6287775039672852, 9.685701370239258, -1.865249514579773, -0.4854585826396942, 1.0564464330673218, -1.342262864112854, -0.5638461709022522, -1.05810546875, -0.105712890625, -0.12744140625, 0, 
317, 1009388784, -0.2795156240463257, -0.6017898321151733, 0.4053885042667389, -0.6288048624992371, 9.698819160461426, -1.8816198110580444, -0.48049238324165344, 1.4424015283584595, -0.6185837984085083, -0.38052505254745483, -1.05712890625, -0.10498046875, -0.12548828125, 0, 
318, 1009397117, -0.2795270085334778, -0.6017776727676392, 0.40537774562835693, -0.6288183927536011, 9.711479187011719, -1.8980355262756348, -0.46804627776145935, 0.8492783308029175, -0.5241184830665588, -0.27934888005256653, -1.05517578125, -0.106201171875, -0.127197265625, 0, 
319, 1009405450, -0.27952995896339417, -0.6017777323722839, 0.4053689241409302, -0.6288225054740906, 9.727144241333008, -1.8997163772583008, -0.5326150059700012, 0.8955121040344238, -0.7516241073608398, -0.4376191794872284, -1.05615234375, -0.106689453125, -0.12646484375, 0, 
320, 1009413783, -0.2795601487159729, -0.601749062538147, 0.40535613894462585, -0.6288447976112366, 9.687081336975098, -1.9096589088439941, -0.5001911520957947, 0.6966943740844727, -0.19687099754810333, -0.332139790058136, -1.056640625, -0.104248046875, -0.126220703125, 0, 
321, 1009422116, -0.27957624197006226, -0.6017023324966431, 0.4053499698638916, -0.6288864612579346, 9.67385482788086, -1.8880071640014648, -0.5324934124946594, 0.7915950417518616, 0.024448784068226814, -0.12458762526512146, -1.05322265625, -0.1064453125, -0.125732421875, 0, 
322, 1009430449, -0.279565691947937, -0.6016608476638794, 0.4052877128124237, -0.6289709210395813, 9.654792785644531, -1.9066431522369385, -0.4763742685317993, 1.7584812641143799, 0.39173129200935364, -0.07871254533529282, -1.05517578125, -0.1083984375, -0.13134765625, 0, 
323, 1009438782, -0.2794947922229767, -0.6016693711280823, 0.4052314758300781, -0.6290304064750671, 9.614544868469238, -1.871565341949463, -0.3731849193572998, 2.257497787475586, -0.597298264503479, -0.02494826354086399, -1.05810546875, -0.106689453125, -0.127197265625, 0, 
324, 1009447115, -0.2793465852737427, -0.60178542137146, 0.4051930904388428, -0.6290100812911987, 9.697152137756348, -1.7984851598739624, -0.3868044316768646, 2.71148419380188, -2.696025848388672, 0.027701793238520622, -1.0556640625, -0.10546875, -0.126220703125, 0, 
325, 1009455448, -0.2791732847690582, -0.6019056439399719, 0.40514644980430603, -0.6290019750595093, 9.72805118560791, -1.7831668853759766, -0.546650230884552, 3.075411319732666, -2.730682134628296, 0.058720629662275314, -1.054931640625, -0.10595703125, -0.124267578125, 0, 
326, 1009463781, -0.2790676951408386, -0.6019649505615234, 0.4050818979740143, -0.6290338039398193, 9.697918891906738, -1.7868733406066895, -0.6004461646080017, 2.6585142612457275, -1.435473084449768, -0.04118769243359566, -1.05322265625, -0.10693359375, -0.124755859375, 0, 
327, 1009472114, -0.27901601791381836, -0.601961076259613, 0.4050338864326477, -0.6290911436080933, 9.643020629882812, -1.8282889127731323, -0.561091959476471, 1.9679545164108276, -0.4335209131240845, -0.06211451441049576, -1.056884765625, -0.107666015625, -0.12841796875, 0, 
328, 1009480447, -0.2789960503578186, -0.6019819974899292, 0.4050183594226837, -0.6290900111198425, 9.630337715148926, -1.8316212892532349, -0.4867366552352905, 1.1933029890060425, -1.087401032447815, -0.28931277990341187, -1.056396484375, -0.104248046875, -0.12890625, 0, 
329, 1009488780, -0.2789859175682068, -0.6020034551620483, 0.40503665804862976, -0.6290621161460876, 9.66187572479248, -1.8198975324630737, -0.44122305512428284, 0.6742562055587769, -1.3817598819732666, -0.33995211124420166, -1.053955078125, -0.104736328125, -0.127685546875, 0, 
330, 1009497113, -0.27898097038269043, -0.602021336555481, 0.40506166219711304, -0.6290310621261597, 9.643784523010254, -1.84732186794281, -0.4338127672672272, 0.541318416595459, -1.3796337842941284, -0.18096455931663513, -1.0546875, -0.105712890625, -0.126220703125, 0, 
331, 1009505446, -0.27899983525276184, -0.6020219922065735, 0.4050776958465576, -0.629011869430542, 9.672324180603027, -1.7911648750305176, -0.49599242210388184, 0.41757604479789734, -0.958305299282074, -0.4609281122684479, -1.0576171875, -0.10888671875, -0.126220703125, 0, 
332, 1009513779, -0.27904003858566284, -0.6020015478134155, 0.4050779938697815, -0.6290134787559509, 9.722673416137695, -1.7669668197631836, -0.48513442277908325, 0.4156806170940399, -0.4336746037006378, -0.4380546510219574, -1.056640625, -0.10693359375, -0.12548828125, 0, 
333, 1009522112, -0.27904871106147766, -0.6019712090492249, 0.40504661202430725, -0.6290588974952698, 9.720491409301758, -1.7699638605117798, -0.500248372554779, 1.1558806896209717, -0.03032725490629673, -0.3442809283733368, -1.0546875, -0.10546875, -0.125732421875, 0, 
334, 1009530445, -0.2790198028087616, -0.601965069770813, 0.4049775004386902, -0.6291220188140869, 9.695651054382324, -1.781557321548462, -0.5448081493377686, 1.9858331680297852, -0.16613392531871796, -0.2583451569080353, -1.052978515625, -0.107421875, -0.126708984375, 0, 
335, 1009538778, -0.2790040671825409, -0.6019684672355652, 0.4049466550350189, -0.6291455030441284, 9.678175926208496, -1.8598321676254272, -0.5275722146034241, 1.3627158403396606, -0.6420720219612122, -0.39853185415267944, -1.0517578125, -0.107421875, -0.12548828125, 0, 
336, 1009547111, -0.2789912819862366, -0.6019783616065979, 0.4049113094806671, -0.6291645169258118, 9.671788215637207, -1.8762692213058472, -0.50595623254776, 1.3769571781158447, -0.708848237991333, -0.37647801637649536, -1.056396484375, -0.106201171875, -0.12890625, 0, 
337, 1009555444, -0.27897343039512634, -0.6019483208656311, 0.40485844016075134, -0.6292352080345154, 9.647370338439941, -1.8805522918701172, -0.445403128862381, 1.7042303085327148, 0.10951366275548935, -0.19751137495040894, -1.0576171875, -0.10888671875, -0.126708984375, 0, 
338, 1009563777, -0.2789844572544098, -0.6019312739372253, 0.40486982464790344, -0.6292393207550049, 9.660079002380371, -1.9084213972091675, -0.53554767370224, 0.5894476175308228, -0.6476302742958069, -0.10240570455789566, -1.054443359375, -0.107666015625, -0.12744140625, 0, 
339, 1009572110, -0.27901503443717957, -0.6018950939178467, 0.4049237370491028, -0.6292257308959961, 9.651667594909668, -1.9092868566513062, -0.6017901301383972, -0.11457247287034988, -0.6743203997612, -0.022002629935741425, -1.057373046875, -0.10498046875, -0.12353515625, 0, 
340, 1009580443, -0.27901962399482727, -0.6019065976142883, 0.404948890209198, -0.6291964650154114, 9.618614196777344, -1.9359955787658691, -0.6463666558265686, 0.44603341817855835, -1.2580430507659912, -0.2201543152332306, -1.05517578125, -0.10595703125, -0.13037109375, 0, 
341, 1009588776, -0.2790139615535736, -0.6019352674484253, 0.4049738645553589, -0.6291553378105164, 9.645352363586426, -1.952188491821289, -0.6127955317497253, 0.5317387580871582, -1.5543230772018433, -0.41331133246421814, -1.059326171875, -0.10595703125, -0.12451171875, 0, 
342, 1009597109, -0.2790314853191376, -0.6019226908683777, 0.4049733579158783, -0.6291599869728088, 9.639822006225586, -1.9611378908157349, -0.5486588478088379, 0.6571972370147705, -0.5981692671775818, -0.28009170293807983, -1.055419921875, -0.105712890625, -0.12890625, 0, 
343, 1009605442, -0.2789970338344574, -0.6019327044487, 0.40494072437286377, -0.629186749458313, 9.649726867675781, -1.916491985321045, -0.4835242033004761, 1.5771836042404175, -0.7692210078239441, -0.27714598178863525, -1.0546875, -0.105224609375, -0.127197265625, 0, 
344, 1009613775, -0.27891725301742554, -0.6019898653030396, 0.40490639209747314, -0.629189670085907, 9.668533325195312, -1.896469235420227, -0.42766615748405457, 2.013906240463257, -1.6284762620925903, -0.11308685690164566, -1.052978515625, -0.107666015625, -0.128662109375, 0, 
345, 1009622108, -0.2788424491882324, -0.6020389795303345, 0.40492895245552063, -0.6291610598564148, 9.730561256408691, -1.83378005027771, -0.46210306882858276, 1.2739624977111816, -2.0032382011413574, 0.09934481233358383, -1.0556640625, -0.107421875, -0.12646484375, 0, 
346, 1009630441, -0.2788037955760956, -0.6020452976226807, 0.4049150347709656, -0.6291810870170593, 9.711758613586426, -1.8334739208221436, -0.5177227854728699, 1.3963727951049805, -0.8962676525115967, 0.047732122242450714, -1.05517578125, -0.10498046875, -0.125732421875, 0, 
347, 1009638774, -0.27876922488212585, -0.6020413041114807, 0.40492990612983704, -0.6291906237602234, 9.691673278808594, -1.8223297595977783, -0.46863996982574463, 1.0164881944656372, -0.9741861820220947, 0.12703381478786469, -1.056396484375, -0.10595703125, -0.123779296875, 0, 
348, 1009647107, -0.2787564694881439, -0.6020530462265015, 0.40496206283569336, -0.6291642785072327, 9.720534324645996, -1.8275871276855469, -0.4942113757133484, 0.5473120808601379, -1.3614988327026367, -0.0012807116145268083, -1.056396484375, -0.104736328125, -0.12841796875, 0, 
349, 1009655440, -0.2787507474422455, -0.6020540595054626, 0.4050065875053406, -0.6291372179985046, 9.685700416564941, -1.8482803106307983, -0.5120291113853455, 0.3369680345058441, -1.2732579708099365, -0.04295507073402405, -1.055908203125, -0.107177734375, -0.1279296875, 0, 
350, 1009663773, -0.2787889540195465, -0.6020470857620239, 0.4050687849521637, -0.6290870308876038, 9.624600410461426, -1.8959897756576538, -0.4793763756752014, -0.3406181037425995, -1.2256667613983154, -0.18247582018375397, -1.057373046875, -0.10595703125, -0.12548828125, 0, 
351, 1009672106, -0.278756320476532, -0.6020845770835876, 0.4050922989845276, -0.6290505528450012, 9.676152229309082, -1.8463937044143677, -0.4995276629924774, 0.8270195722579956, -1.7392321825027466, -0.22389402985572815, -1.0556640625, -0.10693359375, -0.12548828125, 0, 
352, 1009680439, -0.27872633934020996, -0.6020715236663818, 0.4050593376159668, -0.629097580909729, 9.722043991088867, -1.8668133020401, -0.42299774289131165, 1.5660158395767212, -0.38242051005363464, 0.027548110112547874, -1.05712890625, -0.105712890625, -0.12646484375, 0, 
353, 1009688772, -0.2786639332771301, -0.6020743250846863, 0.4050197899341583, -0.6291479468345642, 9.661445617675781, -1.8375095129013062, -0.46455106139183044, 1.9720784425735474, -0.6420720815658569, 0.03869030252099037, -1.054931640625, -0.109619140625, -0.12841796875, 0, 
354, 1009697105, -0.27856722474098206, -0.6021113395690918, 0.40493226051330566, -0.6292117238044739, 9.682117462158203, -1.8359719514846802, -0.4052053391933441, 2.8759536743164062, -0.8412739038467407, -0.06170469522476196, -1.053466796875, -0.10546875, -0.1240234375, 0, 
355, 1009705438, -0.27847155928611755, -0.6021552085876465, 0.40489086508750916, -0.6292385458946228, 9.661852836608887, -1.84146249294281, -0.4631524085998535, 2.287261486053467, -1.3713092803955078, -0.008401468396186829, -1.05322265625, -0.106201171875, -0.1220703125, 0, 
356, 1009713771, -0.2784210741519928, -0.6021924614906311, 0.40488943457603455, -0.6292262673377991, 9.661417961120605, -1.8457318544387817, -0.5082337856292725, 1.326215386390686, -1.5458956956863403, -0.041904885321855545, -1.057373046875, -0.10595703125, -0.12548828125, 0, 
357, 1009722104, -0.278385192155838, -0.6022258996963501, 0.40491700172424316, -0.6291924715042114, 9.686975479125977, -1.8530099391937256, -0.5392144918441772, 0.8181185722351074, -1.7129135131835938, -0.12872432172298431, -1.05615234375, -0.107666015625, -0.12255859375, 0, 
358, 1009730437, -0.27836909890174866, -0.6022365689277649, 0.40492144227027893, -0.6291865110397339, 9.684514045715332, -1.8528228998184204, -0.5034886598587036, 0.9236621856689453, -1.09488046169281, -0.11744125932455063, -1.05517578125, -0.10595703125, -0.126220703125, 0, 
359, 1009738770, -0.27831119298934937, -0.6022673845291138, 0.4049193859100342, -0.629183828830719, 9.606475830078125, -1.8777977228164673, -0.5154723525047302, 1.4201427698135376, -1.4424655437469482, -0.049512315541505814, -1.056640625, -0.10986328125, -0.127197265625, 0, 
360, 1009747103, -0.2782258093357086, -0.6023550033569336, 0.40491560101509094, -0.6291400194168091, 9.656865119934082, -1.8662538528442383, -0.47550463676452637, 1.6527200937271118, -2.4262828826904297, -0.1608573943376541, -1.05859375, -0.105712890625, -0.12744140625, 0, 
361, 1009755436, -0.2781526446342468, -0.6023661494255066, 0.40489622950553894, -0.6291744112968445, 9.705644607543945, -1.825238823890686, -0.5516398549079895, 1.8289716243743896, -0.9832791686058044, 0.19081324338912964, -1.050537109375, -0.10107421875, -0.128173828125, 0, 
362, 1009763769, -0.2780875563621521, -0.602366030216217, 0.40484949946403503, -0.6292333602905273, 9.746920585632324, -1.7939252853393555, -0.6067150235176086, 2.091876268386841, -0.5409982800483704, 0.18917393684387207, -1.05712890625, -0.1083984375, -0.12548828125, 0, 
363, 1009772102, -0.27805376052856445, -0.6023501753807068, 0.4048246741294861, -0.629279375076294, 9.698404312133789, -1.7928528785705566, -0.5744948983192444, 1.5088448524475098, -0.4154629111289978, -0.0005891273613087833, -1.058349609375, -0.10791015625, -0.124755859375, 0, 
364, 1009780435, -0.27806246280670166, -0.6023261547088623, 0.4047832787036896, -0.6293251514434814, 9.682195663452148, -1.805914282798767, -0.5541163682937622, 1.2702481746673584, -0.05222741886973381, -0.32171475887298584, -1.056396484375, -0.107666015625, -0.123046875, 0, 
365, 1009788768, -0.27808019518852234, -0.6023159027099609, 0.40477216243743896, -0.6293343305587769, 9.663848876953125, -1.7985608577728271, -0.472824364900589, 0.7796844840049744, -0.5322126150131226, -0.5023207664489746, -1.05908203125, -0.111328125, -0.1259765625, 0, 
366, 1009797101, -0.2780776023864746, -0.6023333668708801, 0.40474581718444824, -0.6293357014656067, 9.643949508666992, -1.8054062128067017, -0.4696628153324127, 1.1449946165084839, -0.8985986113548279, -0.5004252195358276, -1.05517578125, -0.10595703125, -0.125732421875, 0, 
367, 1009805434, -0.27803561091423035, -0.6023752093315125, 0.4047123193740845, -0.6293357610702515, 9.664913177490234, -1.8526029586791992, -0.47626355290412903, 1.6159892082214355, -1.3047891855239868, -0.4970698654651642, -1.05712890625, -0.107666015625, -0.127685546875, 0, 
368, 1009813767, -0.2780153155326843, -0.6024040579795837, 0.4047074615955353, -0.6293202638626099, 9.696067810058594, -1.8570353984832764, -0.4364881217479706, 1.054935097694397, -1.31887686252594, -0.2966896891593933, -1.0537109375, -0.10693359375, -0.124755859375, 0, 
369, 1009822100, -0.2780073285102844, -0.6024224162101746, 0.4047396779060364, -0.6292853355407715, 9.678690910339355, -1.876297950744629, -0.39943620562553406, 0.4850439131259918, -1.4563485383987427, -0.2508401870727539, -1.0556640625, -0.109375, -0.125, 0, 
370, 1009830433, -0.2779909372329712, -0.6024174094200134, 0.40476518869400024, -0.6292809844017029, 9.714791297912598, -1.8277373313903809, -0.4218961298465729, 0.6923016309738159, -1.0271949768066406, 0.15230225026607513, -1.0546875, -0.103759765625, -0.127197265625, 0, 
371, 1009838766, -0.27794140577316284, -0.6023948192596436, 0.40477752685546875, -0.6293166279792786, 9.721020698547363, -1.8157706260681152, -0.5352188944816589, 1.234593391418457, -0.6718614101409912, 0.4419608414173126, -1.06005859375, -0.107421875, -0.126708984375, 0, 
372, 1009847099, -0.27791714668273926, -0.6023923754692078, 0.4048125147819519, -0.6293071508407593, 9.704519271850586, -1.8117221593856812, -0.6027486324310303, 0.6571972370147705, -1.1714414358139038, 0.2650688588619232, -1.0556640625, -0.106201171875, -0.126953125, 0, 
373, 1009855432, -0.27797409892082214, -0.6023325324058533, 0.4048705995082855, -0.6293019652366638, 9.663040161132812, -1.8588594198226929, -0.48654353618621826, -0.4113902449607849, -0.2692568600177765, -0.04848774895071983, -1.05859375, -0.109130859375, -0.121337890625, 0, 
374, 1009863765, -0.2780413329601288, -0.6022816896438599, 0.4049108624458313, -0.6292949914932251, 9.610023498535156, -1.8591669797897339, -0.5432584285736084, -0.3168480694293976, -0.24420610070228577, -0.2046833485364914, -1.05908203125, -0.104248046875, -0.126953125, 0, 
375, 1009872098, -0.27800628542900085, -0.6023024320602417, 0.40490812063217163, -0.629292368888855, 9.653233528137207, -1.8731411695480347, -0.6028938293457031, 1.1994633674621582, -1.224245309829712, -0.19509083032608032, -1.058837890625, -0.10302734375, -0.12451171875, 0, 
376, 1009880431, -0.27800390124320984, -0.6023164987564087, 0.4049129784107208, -0.6292768120765686, 9.645801544189453, -1.9062612056732178, -0.599587082862854, 0.7665700316429138, -1.128640055656433, -0.28782716393470764, -1.054443359375, -0.107177734375, -0.1279296875, 0, 
377, 1009888764, -0.27798765897750854, -0.6023412346839905, 0.4049021005630493, -0.6292673349380493, 9.685501098632812, -1.8797166347503662, -0.5535011291503906, 1.0880029201507568, -1.180483102798462, -0.4741194546222687, -1.056884765625, -0.10595703125, -0.1298828125, 0, 
378, 1009897097, -0.2779591679573059, -0.6023717522621155, 0.4048518240451813, -0.62928307056427, 9.696475982666016, -1.8988739252090454, -0.503795862197876, 1.6965075731277466, -0.9460744857788086, -0.4912169575691223, -1.057373046875, -0.10498046875, -0.12548828125, 0, 
379, 1009905430, -0.2779391407966614, -0.6023874282836914, 0.40484732389450073, -0.6292798519134521, 9.666430473327637, -1.8674352169036865, -0.4304293692111969, 1.062990665435791, -1.0971473455429077, -0.3146837055683136, -1.053466796875, -0.10595703125, -0.12353515625, 0, 
380, 1009913763, -0.27791014313697815, -0.6024025082588196, 0.4048551321029663, -0.6292732954025269, 9.707281112670898, -1.8474297523498535, -0.4039496183395386, 1.0142595767974854, -1.2209280729293823, -0.004969161469489336, -1.056396484375, -0.107421875, -0.125, 0, 
381, 1009922096, -0.2778469920158386, -0.6024017333984375, 0.4048541486263275, -0.629302442073822, 9.683451652526855, -1.8299951553344727, -0.5222548842430115, 1.5091522932052612, -0.9393509030342102, 0.30331096053123474, -1.05517578125, -0.1064453125, -0.125732421875, 0, 
382, 1009930429, -0.2778364419937134, -0.602399468421936, 0.40489479899406433, -0.6292831301689148, 9.648528099060059, -1.8323506116867065, -0.6528973579406738, 0.44047510623931885, -1.2011537551879883, 0.1546715497970581, -1.05615234375, -0.10546875, -0.125732421875, 0, 
383, 1009938762, -0.2779121994972229, -0.6023327708244324, 0.40497106313705444, -0.6292644739151001, 9.673547744750977, -1.8533868789672852, -0.6176049113273621, -0.8283387422561646, -0.2872380316257477, -0.07410198450088501, -1.056396484375, -0.103271484375, -0.128173828125, 0, 
384, 1009947095, -0.27801406383514404, -0.6022618412971497, 0.4050588607788086, -0.6292308568954468, 9.710371017456055, -1.8625144958496094, -0.4634326994419098, -1.2407279014587402, -0.27873408794403076, -0.10076639801263809, -1.05615234375, -0.103759765625, -0.126708984375, 0, 
385, 1009955428, -0.27804866433143616, -0.6021933555603027, 0.40511026978492737, -0.6292479634284973, 9.712809562683105, -1.80014169216156, -0.47182297706604004, -0.07971149682998657, -0.11047419160604477, 0.22441910207271576, -1.05615234375, -0.106201171875, -0.126953125, 0, 
386, 1009963761, -0.2780754566192627, -0.6021419167518616, 0.4051486849784851, -0.6292607188224792, 9.637375831604004, -1.8439671993255615, -0.5324719548225403, 0.14099355041980743, -0.29295000433921814, 0.20884567499160767, -1.0546875, -0.1083984375, -0.12548828125, 0, 
387, 1009972094, -0.27809053659439087, -0.6021087765693665, 0.4052088260650635, -0.6292470097541809, 9.684162139892578, -1.8454334735870361, -0.5199329853057861, -0.029763739556074142, -0.8115614056587219, 0.14990730583667755, -1.05224609375, -0.10498046875, -0.1259765625, 0, 
388, 1009980427, -0.27808159589767456, -0.6021031141281128, 0.40520745515823364, -0.6292572617530823, 9.653956413269043, -1.8181883096694946, -0.5618271827697754, 0.9421300292015076, -0.7563115954399109, -0.07658656686544418, -1.057861328125, -0.107177734375, -0.128173828125, 0, 
389, 1009988760, -0.2780238389968872, -0.6021430492401123, 0.40520626306533813, -0.6292453408241272, 9.666417121887207, -1.8390673398971558, -0.5354461669921875, 1.3923001289367676, -1.6014785766601562, -0.12627817690372467, -1.055908203125, -0.103515625, -0.125244140625, 0, 
390, 1009997093, -0.27800050377845764, -0.6021472215652466, 0.4051855802536011, -0.6292649507522583, 9.693547248840332, -1.8829072713851929, -0.4638046324253082, 1.3184542655944824, -0.7682220935821533, -0.12971048057079315, -1.058349609375, -0.102783203125, -0.125, 0, 
391, 1010005426, -0.27800077199935913, -0.602118968963623, 0.40519100427627563, -0.6292883157730103, 9.668490409851074, -1.8992657661437988, -0.5016002655029297, 0.792056143283844, -0.4231727421283722, -0.05922010913491249, -1.05517578125, -0.10693359375, -0.1259765625, 0, 
392, 1010013759, -0.27797940373420715, -0.6021336913108826, 0.4052070677280426, -0.6292733550071716, 9.667316436767578, -1.8702541589736938, -0.48268094658851624, 0.8323217630386353, -1.2789956331253052, -0.033733949065208435, -1.05908203125, -0.104736328125, -0.12744140625, 0, 
393, 1010022092, -0.2779844105243683, -0.6021239757537842, 0.4052441716194153, -0.6292564272880554, 9.692460060119629, -1.9283206462860107, -0.4450284242630005, 0.323469340801239, -1.0099436044692993, -0.09687303751707077, -1.05615234375, -0.10498046875, -0.13134765625, 0, 
394, 1010030425, -0.2780054211616516, -0.6020868420600891, 0.40525978803634644, -0.6292726993560791, 9.675286293029785, -1.8988652229309082, -0.533044159412384, 0.46060794591903687, -0.33062854409217834, 0.005263724830001593, -1.059814453125, -0.10546875, -0.124267578125, 0, 
395, 1010038758, -0.27798205614089966, -0.6020688414573669, 0.40522703528404236, -0.6293213963508606, 9.649571418762207, -1.933542251586914, -0.5283876657485962, 1.4987785816192627, -0.28657206892967224, -0.13222067058086395, -1.0556640625, -0.107421875, -0.1259765625, 0, 
396, 1010047091, -0.2779788076877594, -0.6020574569702148, 0.40523049235343933, -0.6293314099311829, 9.645608901977539, -1.8962329626083374, -0.5517274141311646, 0.831015408039093, -0.6957850456237793, -0.05299584940075874, -1.0576171875, -0.105224609375, -0.12646484375, 0, 
397, 1010055424, -0.2779887616634369, -0.6020256876945496, 0.40525174140930176, -0.629343569278717, 9.666109085083008, -1.8753037452697754, -0.6270968914031982, 0.4990037679672241, -0.4897441565990448, -0.036192912608385086, -1.053466796875, -0.101806640625, -0.12744140625, 0, 
398, 1010063757, -0.2779944837093353, -0.6020212173461914, 0.4052653908729553, -0.6293365359306335, 9.63615894317627, -1.9179421663284302, -0.5076944828033447, 0.5997957587242126, -0.884715735912323, -0.1499713510274887, -1.0537109375, -0.107421875, -0.126220703125, 0, 
399, 1010072090, -0.2779899835586548, -0.6020136475563049, 0.4052852690219879, -0.6293331384658813, 9.648877143859863, -1.8870558738708496, -0.46272456645965576, 0.6359758973121643, -0.9046820402145386, -0.11568670719861984, -1.05712890625, -0.106201171875, -0.126953125, 0, 
400, 1010080423, -0.27795785665512085, -0.6020323634147644, 0.405283659696579, -0.6293303966522217, 9.681923866271973, -1.8707122802734375, -0.4925447702407837, 1.1573151350021362, -1.2020759582519531, -0.06370259821414948, -1.056640625, -0.104736328125, -0.126220703125, 0, 
401, 1010088756, -0.2779048681259155, -0.602072536945343, 0.4053137004375458, -0.629296064376831, 9.664097785949707, -1.8636308908462524, -0.5298163294792175, 0.958292543888092, -1.881211757659912, 0.004136699251830578, -1.055419921875, -0.1064453125, -0.124267578125, 0, 
402, 1010097089, -0.27788692712783813, -0.6020998358726501, 0.40534672141075134, -0.6292564868927002, 9.670534133911133, -1.8590364456176758, -0.4582200050354004, 0.568367063999176, -1.6364421844482422, -0.08788243681192398, -1.05712890625, -0.1064453125, -0.12548828125, 0, 
403, 1010105422, -0.2779032588005066, -0.6020770072937012, 0.405410498380661, -0.6292300820350647, 9.683138847351074, -1.8358771800994873, -0.4087563157081604, -0.10189343243837357, -1.0130943059921265, 0.0657133162021637, -1.05859375, -0.1044921875, -0.12255859375, 0, 
404, 1010113755, -0.27791252732276917, -0.6020275354385376, 0.40542417764663696, -0.6292645931243896, 9.666366577148438, -1.834246277809143, -0.4447563588619232, 0.6292265057563782, -0.13219505548477173, 0.22754403948783875, -1.05322265625, -0.1083984375, -0.124755859375, 0, 
405, 1010122088, -0.2778622806072235, -0.6020442843437195, 0.4054361581802368, -0.6292629241943359, 9.655487060546875, -1.8253204822540283, -0.5164093375205994, 1.184645652770996, -1.324384093284607, 0.08638401329517365, -1.056396484375, -0.1044921875, -0.124755859375, 0, 
406, 1010130421, -0.27783238887786865, -0.6020696759223938, 0.40544718503952026, -0.6292446851730347, 9.701231956481934, -1.8224143981933594, -0.5222094058990479, 0.9687944650650024, -1.425637125968933, -0.07407637685537338, -1.054931640625, -0.10546875, -0.123291015625, 0, 
407, 1010138754, -0.27785012125968933, -0.6020411252975464, 0.4054860472679138, -0.6292391419410706, 9.742180824279785, -1.8242393732070923, -0.5851240754127502, 0.19547505676746368, -0.6903804540634155, -0.0416487455368042, -1.05712890625, -0.106201171875, -0.12646484375, 0, 
408, 1010147087, -0.2779337167739868, -0.6019570827484131, 0.4055123031139374, -0.6292657256126404, 9.683103561401367, -1.9112682342529297, -0.5250687599182129, -0.2709474265575409, 0.46826666593551636, -0.14886994659900665, -1.056396484375, -0.1044921875, -0.124755859375, 0, 
409, 1010155420, -0.278026282787323, -0.6018762588500977, 0.40556079149246216, -0.6292710900306702, 9.662067413330078, -1.9365249872207642, -0.4240849018096924, -0.6463239192962646, 0.23530517518520355, -0.27589091658592224, -1.055419921875, -0.10205078125, -0.125, 0, 
410, 1010163753, -0.27802783250808716, -0.6018706560134888, 0.4055565297603607, -0.6292784810066223, 9.709526062011719, -1.9374476671218872, -0.4630392789840698, 0.8649798631668091, -0.7104619741439819, -0.2019682228565216, -1.05517578125, -0.10498046875, -0.125244140625, 0, 
411, 1010172086, -0.27798524498939514, -0.6018686890602112, 0.4055025577545166, -0.6293338537216187, 9.6488676071167, -1.9613608121871948, -0.5224112272262573, 1.938267707824707, -0.39730238914489746, -0.20401738584041595, -1.059326171875, -0.10693359375, -0.125732421875, 0, 
412, 1010180419, -0.27797794342041016, -0.6018605828285217, 0.4054836332798004, -0.6293569803237915, 9.566970825195312, -1.9675039052963257, -0.5671346187591553, 1.1437140703201294, -0.5524477958679199, -0.1722557097673416, -1.0537109375, -0.104248046875, -0.126708984375, 0, 
413, 1010188752, -0.2779275178909302, -0.6018974781036377, 0.4054991602897644, -0.6293340921401978, 9.577106475830078, -1.9357428550720215, -0.5036395788192749, 1.112362265586853, -1.6907445192337036, -0.07592059671878815, -1.051513671875, -0.103271484375, -0.126953125, 0, 
414, 1010197085, -0.27784350514411926, -0.601966142654419, 0.4054913818836212, -0.6293104887008667, 9.66417121887207, -1.8641117811203003, -0.43697625398635864, 1.7148858308792114, -2.071960926055908, -0.021823324263095856, -1.06103515625, -0.105224609375, -0.126708984375, 0, 
415, 1010205418, -0.2777117192745209, -0.6020385026931763, 0.4054860472679138, -0.629302978515625, 9.800627708435059, -1.7485387325286865, -0.4310874044895172, 2.18644380569458, -2.244062900543213, 0.3158363103866577, -1.0556640625, -0.103515625, -0.125244140625, 0, 
416, 1010213751, -0.2776474952697754, -0.6020619869232178, 0.40547826886177063, -0.6293138861656189, 9.721901893615723, -1.760793924331665, -0.5881442427635193, 1.5702933073043823, -1.2854759693145752, 0.18832866847515106, -1.0546875, -0.103759765625, -0.127197265625, 0, 
417, 1010222084, -0.2776756286621094, -0.6020551323890686, 0.4055364429950714, -0.6292702555656433, 9.655072212219238, -1.822966456413269, -0.5385590195655823, -0.18175861239433289, -1.2105801105499268, -0.237136572599411, -1.05615234375, -0.105224609375, -0.122314453125, 0, 
418, 1010230417, -0.27772772312164307, -0.6020390391349792, 0.40558162331581116, -0.6292335987091064, 9.686494827270508, -1.8699891567230225, -0.5716480612754822, -0.2676943242549896, -0.8911191821098328, -0.33941420912742615, -1.059814453125, -0.10400390625, -0.125, 0, 
419, 1010238750, -0.27776598930358887, -0.6019864082336426, 0.405569463968277, -0.6292749643325806, 9.657489776611328, -1.8962754011154175, -0.6027129888534546, 0.6370900273323059, 0.21676042675971985, -0.3295271098613739, -1.055908203125, -0.106689453125, -0.120361328125, 0, 
420, 1010247083, -0.277804970741272, -0.6019716262817383, 0.40557339787483215, -0.6292694211006165, 9.624579429626465, -1.8823206424713135, -0.5060779452323914, 0.377259224653244, -0.5617457628250122, -0.45557475090026855, -1.0546875, -0.105224609375, -0.122314453125, 0, 
421, 1010255416, -0.2778418958187103, -0.6019805669784546, 0.405578076839447, -0.6292412877082825, 9.650528907775879, -1.8536523580551147, -0.5407193899154663, 0.35154253244400024, -0.9624548554420471, -0.7865618467330933, -1.05810546875, -0.105224609375, -0.1259765625, 0, 
422, 1010263749, -0.2778448760509491, -0.6020251512527466, 0.40553757548332214, -0.6292234063148499, 9.670384407043457, -1.8555667400360107, -0.41243669390678406, 1.2180207967758179, -1.208044171333313, -0.8897360563278198, -1.057373046875, -0.10400390625, -0.123779296875, 0, 
423, 1010272082, -0.2778317332267761, -0.602071225643158, 0.405531108379364, -0.6291897296905518, 9.675653457641602, -1.8169081211090088, -0.4631044566631317, 0.9732769727706909, -1.566541075706482, -0.6719895005226135, -1.056396484375, -0.1044921875, -0.124267578125, 0, 
424, 1010280415, -0.2778088450431824, -0.6020954251289368, 0.40548911690711975, -0.6292037963867188, 9.686917304992676, -1.8298872709274292, -0.5019239783287048, 1.5441670417785645, -0.906513512134552, -0.44461190700531006, -1.05810546875, -0.10546875, -0.1259765625, 0, 
425, 1010288748, -0.2778322398662567, -0.6020915508270264, 0.40547484159469604, -0.6292062401771545, 9.655344009399414, -1.894559383392334, -0.4580683708190918, 0.7451052665710449, -0.6030102968215942, -0.636436939239502, -1.0556640625, -0.10791015625, -0.125, 0, 
426, 1010297081, -0.2778940498828888, -0.6020476222038269, 0.4054988622665405, -0.6292055249214172, 9.697202682495117, -1.929028868675232, -0.4540553689002991, -0.07028546184301376, -0.2175672948360443, -0.3070122301578522, -1.056884765625, -0.10400390625, -0.125244140625, 0, 
427, 1010305414, -0.2779158651828766, -0.6020258069038391, 0.40553638339042664, -0.6291924118995667, 9.678726196289062, -1.9337139129638672, -0.45938417315483093, 0.1568487584590912, -0.7829502820968628, -0.15304505825042725, -1.057373046875, -0.10205078125, -0.124755859375, 0, 
428, 1010313747, -0.2779006063938141, -0.6020065546035767, 0.4055495858192444, -0.629209041595459, 9.662668228149414, -1.9563883543014526, -0.5464128255844116, 0.8525570631027222, -0.6759853363037109, 0.20003436505794525, -1.054443359375, -0.106689453125, -0.127197265625, 0, 
429, 1010322080, -0.277873158454895, -0.6019737720489502, 0.40554744005203247, -0.6292538642883301, 9.6477689743042, -1.9522826671600342, -0.6034641861915588, 1.1874630451202393, -0.3323446810245514, 0.2266731709241867, -1.05712890625, -0.103271484375, -0.1279296875, 0, 
430, 1010330413, -0.27782881259918213, -0.6019709706306458, 0.40550869703292847, -0.629301130771637, 9.631587982177734, -1.930364727973938, -0.6491537094116211, 1.7767441272735596, -0.5284216403961182, 0.046938084065914154, -1.0576171875, -0.107421875, -0.126708984375, 0, 
431, 1010338746, -0.27776041626930237, -0.6020103693008423, 0.4054901599884033, -0.6293056607246399, 9.639138221740723, -1.8999637365341187, -0.5551698803901672, 1.7188047170639038, -1.4555288553237915, -0.11206227540969849, -1.057373046875, -0.107421875, -0.1240234375, 0, 
432, 1010347079, -0.27771687507629395, -0.6020565629005432, 0.4055001437664032, -0.629274308681488, 9.64501953125, -1.8806934356689453, -0.5381364822387695, 1.0974546670913696, -1.7864136695861816, -0.12947995960712433, -1.0556640625, -0.105712890625, -0.126953125, 0, 
433, 1010355412, -0.2776618003845215, -0.6020940542221069, 0.40550199151039124, -0.6292616128921509, 9.707616806030273, -1.833808183670044, -0.46924740076065063, 1.3288280963897705, -1.5850343704223633, -0.11313805729150772, -1.0556640625, -0.1044921875, -0.125244140625, 0, 
434, 1010363745, -0.2776033282279968, -0.6021375060081482, 0.40548810362815857, -0.6292546987533569, 9.657732963562012, -1.85175359249115, -0.48826566338539124, 1.5529781579971313, -1.553375244140625, -0.090828076004982, -1.057373046875, -0.108154296875, -0.128173828125, 0, 
435, 1010372078, -0.27757924795150757, -0.602151095867157, 0.40551406145095825, -0.629235565662384, 9.693854331970215, -1.8414779901504517, -0.48559221625328064, 0.7405331134796143, -1.3500880002975464, -0.07206565141677856, -1.056396484375, -0.10595703125, -0.123779296875, 0, 
