PacketCounter,SampleTimeFine,Quat_W,Quat_X,Quat_Y,Quat_Z,Acc_X,Acc_Y,Acc_Z,Gyr_X,Gyr_Y,Gyr_Z,Mag_X,Mag_Y,Mag_Z,Status,
0, 1021621628, -0.20042435824871063, -0.5888334512710571, 0.49610432982444763, -0.6058060526847839, 0, 0, 0, 0, 0, 0, -1.0439453125, 0.10693359375, -0.005615234375, 0, 
1, 1021629961, -0.20046670734882355, -0.5887855291366577, 0.4960939288139343, -0.605847179889679, 8.932305335998535, -3.654752254486084, -1.8462345600128174, 0.7136510610580444, 0.2046961635351181, -0.21464727818965912, -1.0478515625, 0.1025390625, -0.0068359375, 0, 
2, 1021638294, -0.20067867636680603, -0.5886766910552979, 0.49621838331222534, -0.605780839920044, 8.917738914489746, -3.7236714363098145, -1.7445950508117676, -2.679582118988037, 0.6115526556968689, -0.46000608801841736, -1.046875, 0.1025390625, -0.006103515625, 0, 
3, 1021646627, -0.20094993710517883, -0.5885297060012817, 0.49641096591949463, -0.6056759357452393, 8.923210144042969, -3.7370052337646484, -1.6657596826553345, -4.0995330810546875, 0.8490990400314331, -0.2045809030532837, -1.04345703125, 0.103515625, -0.00537109375, 0, 
4, 1021654960, -0.2012326568365097, -0.5883969068527222, 0.4966440200805664, -0.6055200695991516, 8.928011894226074, -3.707333564758301, -1.6526415348052979, -4.812172889709473, 0.259254515171051, -0.258498877286911, -1.047119140625, 0.103271484375, -0.008544921875, 0, 
5, 1021663293, -0.2014797031879425, -0.5882745385169983, 0.49685224890708923, -0.6053858399391174, 8.92443561553955, -3.6274430751800537, -1.7032681703567505, -4.1655659675598145, 0.19959890842437744, -0.12412657588720322, -1.04345703125, 0.10400390625, -0.005859375, 0, 
6, 1021671626, -0.20165865123271942, -0.5881410837173462, 0.4969671368598938, -0.6053617596626282, 8.949304580688477, -3.583057165145874, -1.826575756072998, -2.1310017108917236, 0.9643374681472778, 0.026293011382222176, -1.045654296875, 0.102783203125, -0.009521484375, 0, 
7, 1021679959, -0.201737180352211, -0.5881094932556152, 0.4970801770687103, -0.6052734851837158, 8.958486557006836, -3.478774309158325, -1.9015181064605713, -1.4451807737350464, -1.074440360069275, 0.01258939504623413, -1.0458984375, 0.106689453125, -0.00634765625, 0, 
8, 1021688292, -0.20167671144008636, -0.588139533996582, 0.49712708592414856, -0.6052258014678955, 8.996072769165039, -3.4094502925872803, -1.9820846319198608, 0.6778166890144348, -2.039994478225708, 0.2852785289287567, -1.046142578125, 0.10498046875, -0.010498046875, 0, 
9, 1021696625, -0.20147821307182312, -0.5881907343864441, 0.49703511595726013, -0.6053177118301392, 8.973435401916504, -3.4206881523132324, -2.078665256500244, 3.9622790813446045, -1.6296545267105103, 0.5961841940879822, -1.04296875, 0.103515625, -0.01123046875, 0, 
10, 1021704958, -0.20105035603046417, -0.5883315801620483, 0.49671757221221924, -0.6055837273597717, 8.948660850524902, -3.492645025253296, -2.001032590866089, 9.169397354125977, -1.9393051862716675, 0.5002589225769043, -1.0458984375, 0.10546875, -0.012451171875, 0, 
11, 1021713291, -0.20054937899112701, -0.5885524153709412, 0.49631473422050476, -0.6058656573295593, 8.944137573242188, -3.661378860473633, -1.8380663394927979, 10.766008377075195, -2.711702346801758, -0.03319605067372322, -1.0458984375, 0.105224609375, -0.007568359375, 0, 
12, 1021721624, -0.2001088261604309, -0.5887676477432251, 0.495968222618103, -0.6060856580734253, 8.97037410736084, -3.732701063156128, -1.6320291757583618, 9.3308687210083, -2.9092390537261963, -0.2479201853275299, -1.044921875, 0.106201171875, -0.0068359375, 0, 
13, 1021729957, -0.19981461763381958, -0.5888983011245728, 0.49573931097984314, -0.6062428951263428, 8.961721420288086, -3.689671277999878, -1.5307632684707642, 6.543617248535156, -2.0381886959075928, -0.0789046511054039, -1.0458984375, 0.107666015625, -0.00830078125, 0, 
14, 1021738290, -0.19963181018829346, -0.5889759063720703, 0.4956328272819519, -0.6063147783279419, 8.986675262451172, -3.638821840286255, -1.4957706928253174, 3.8525989055633545, -1.8626673221588135, 0.08044150471687317, -1.046142578125, 0.10400390625, -0.010498046875, 0, 
15, 1021746623, -0.1995427906513214, -0.5890288352966309, 0.4956046938896179, -0.6063156127929688, 8.94837760925293, -3.6024081707000732, -1.6173559427261353, 1.928124189376831, -1.8088005781173706, -0.06129486486315727, -1.04833984375, 0.104248046875, -0.007568359375, 0, 
16, 1021754956, -0.199483722448349, -0.5890187621116638, 0.4955877661705017, -0.6063588261604309, 8.92007827758789, -3.558403491973877, -1.7354819774627686, 1.6396567821502686, -0.7539805769920349, 0.29608774185180664, -1.047607421875, 0.106201171875, -0.006103515625, 0, 
17, 1021763289, -0.19947265088558197, -0.5889909267425537, 0.49559861421585083, -0.6063806414604187, 8.909746170043945, -3.5508575439453125, -1.6823060512542725, 0.8935397863388062, -0.5421764850616455, 0.21238042414188385, -1.046630859375, 0.106201171875, -0.008544921875, 0, 
18, 1021771622, -0.19954153895378113, -0.5889557600021362, 0.49569812417030334, -0.6063108444213867, 8.942133903503418, -3.587615966796875, -1.658207893371582, -1.1399872303009033, -0.9355343580245972, 0.02186175063252449, -1.044921875, 0.10400390625, -0.00634765625, 0, 
19, 1021779955, -0.19968688488006592, -0.5888967514038086, 0.4958442449569702, -0.6062009334564209, 9.006194114685059, -3.6493592262268066, -1.7064841985702515, -2.486053705215454, -0.6527916789054871, -0.14521990716457367, -1.044921875, 0.104248046875, -0.00732421875, 0, 
20, 1021788288, -0.1999766230583191, -0.5887364149093628, 0.49610403180122375, -0.6060484647750854, 9.050662994384766, -3.68660306930542, -1.893953800201416, -5.215865612030029, 0.5202251672744751, 0.11434195935726166, -1.04541015625, 0.103759765625, -0.007568359375, 0, 
21, 1021796621, -0.2003939300775528, -0.5884971618652344, 0.49653178453445435, -0.605792760848999, 8.996490478515625, -3.6705121994018555, -2.1367263793945312, -8.52515983581543, 0.7492035627365112, 0.6963101625442505, -1.044189453125, 0.106201171875, -0.0078125, 0, 
22, 1021804954, -0.20067022740840912, -0.5883567333221436, 0.49696648120880127, -0.6054810881614685, 9.029430389404297, -3.510113000869751, -2.1789627075195312, -7.531252861022949, -1.5333963632583618, 1.0518871545791626, -1.044189453125, 0.108642578125, -0.008056640625, 0, 
23, 1021813287, -0.20078161358833313, -0.5882387161254883, 0.4971745014190674, -0.6053881645202637, 9.029383659362793, -3.495032548904419, -2.0513663291931152, -2.7722413539886475, -0.4259263277053833, 1.088835597038269, -1.046875, 0.102783203125, -0.008056640625, 0, 
24, 1021821620, -0.20081663131713867, -0.5881433486938477, 0.49725645780563354, -0.6054017543792725, 9.047050476074219, -3.5156075954437256, -1.8587095737457275, -0.3176805377006531, 0.058144308626651764, 0.8046199083328247, -1.0458984375, 0.1025390625, -0.007080078125, 0, 
25, 1021829953, -0.20084130764007568, -0.5880430340766907, 0.49726203083992004, -0.6054864525794983, 9.015113830566406, -3.5033912658691406, -1.7842053174972534, 0.8768136501312256, 0.8278905153274536, 0.5409597754478455, -1.04296875, 0.10546875, -0.005615234375, 0, 
26, 1021838286, -0.20087963342666626, -0.5879600048065186, 0.49724751710891724, -0.6055663824081421, 8.994786262512207, -3.441561698913574, -1.7578397989273071, 0.8280953764915466, 0.830093264579773, 0.11878600716590881, -1.04248046875, 0.106689453125, -0.006103515625, 0, 
27, 1021846619, -0.2008673995733261, -0.5879250764846802, 0.49719569087028503, -0.6056468486785889, 8.957435607910156, -3.4149553775787354, -1.7737932205200195, 1.8064309358596802, 0.15597788989543915, -0.07374338060617447, -1.041748046875, 0.104736328125, -0.009033203125, 0, 
28, 1021854952, -0.20086632668972015, -0.587922990322113, 0.49713170528411865, -0.605701744556427, 8.94431209564209, -3.4501373767852783, -1.7758355140686035, 1.7205593585968018, -0.2224724292755127, -0.5987712144851685, -1.04638671875, 0.105712890625, -0.007568359375, 0, 
29, 1021863285, -0.20094318687915802, -0.5879159569740295, 0.49708181619644165, -0.605724036693573, 8.955217361450195, -3.5065665245056152, -1.7340497970581055, 0.7475258111953735, 0.057760097086429596, -1.1514495611190796, -1.045654296875, 0.107177734375, -0.00830078125, 0, 
30, 1021871618, -0.20106898248195648, -0.5879126787185669, 0.4970405101776123, -0.6057193875312805, 8.924087524414062, -3.6245672702789307, -1.6707038879394531, 0.09919112175703049, 0.10567152500152588, -1.6298335790634155, -1.046142578125, 0.104248046875, -0.009033203125, 0, 
31, 1021879951, -0.2012948840856552, -0.587903618812561, 0.4970560669898987, -0.6056404709815979, 8.959112167358398, -3.740042209625244, -1.6036360263824463, -1.69904363155365, 0.09329985827207565, -2.1288504600524902, -1.0439453125, 0.1044921875, -0.01171875, 0, 
32, 1021888284, -0.20161202549934387, -0.5878469944000244, 0.4971666634082794, -0.6054991483688354, 8.937654495239258, -3.766425848007202, -1.6429258584976196, -3.7777669429779053, 0.32772132754325867, -2.0095391273498535, -1.04541015625, 0.102294921875, -0.007568359375, 0, 
33, 1021896617, -0.2019820213317871, -0.5877639055252075, 0.49732285737991333, -0.6053281426429749, 8.87065601348877, -3.799948215484619, -1.9024028778076172, -4.869726657867432, 0.5601193308830261, -1.9422507286071777, -1.044677734375, 0.103271484375, -0.0078125, 0, 
34, 1021904950, -0.20226086676120758, -0.5876326560974121, 0.49740371108055115, -0.6052958369255066, 8.895716667175293, -3.7219479084014893, -2.2281036376953125, -2.7256362438201904, 1.6679348945617676, -1.110505223274231, -1.04443359375, 0.10791015625, -0.01025390625, 0, 
35, 1021913283, -0.20222683250904083, -0.5876063704490662, 0.49724897742271423, -0.6054598689079285, 8.925069808959961, -3.635500192642212, -2.0949246883392334, 3.434574604034424, 0.8968440890312195, -0.5483751893043518, -1.040771484375, 0.102783203125, -0.0087890625, 0, 
36, 1021921616, -0.20212432742118835, -0.5876271724700928, 0.4970649480819702, -0.6056249737739563, 8.899782180786133, -3.719693899154663, -1.886705994606018, 4.251950263977051, 0.15915405750274658, -0.551705002784729, -1.046875, 0.106689453125, -0.00634765625, 0, 
37, 1021929949, -0.2020762860774994, -0.5876514315605164, 0.4970286190509796, -0.6056472659111023, 8.907787322998047, -3.689957618713379, -2.0005605220794678, 1.7313555479049683, -1.0949827432632446, -0.21549254655838013, -1.046875, 0.105224609375, -0.007080078125, 0, 
38, 1021938282, -0.2018945962190628, -0.5876967906951904, 0.49687618017196655, -0.605789065361023, 8.946712493896484, -3.596061944961548, -2.1278927326202393, 4.504481315612793, -0.8473702073097229, 0.13669036328792572, -1.04345703125, 0.10498046875, -0.01171875, 0, 
39, 1021946615, -0.20158642530441284, -0.5878275036811829, 0.49654683470726013, -0.6060347557067871, 8.912027359008789, -3.674593687057495, -1.8513801097869873, 8.097542762756348, -1.1397309303283691, -0.5222486257553101, -1.045654296875, 0.104248046875, -0.009521484375, 0, 
40, 1021954948, -0.20132353901863098, -0.5879991054534912, 0.49625858664512634, -0.6061919331550598, 8.905019760131836, -3.7281033992767334, -1.63154935836792, 6.783687114715576, -1.9714765548706055, -1.1117603778839111, -1.045654296875, 0.103759765625, -0.010009765625, 0, 
41, 1021963281, -0.20107555389404297, -0.5881639719009399, 0.49599096179008484, -0.6063332557678223, 8.948308944702148, -3.721808671951294, -1.60337495803833, 6.479133129119873, -2.0288267135620117, -1.0484673976898193, -1.04296875, 0.10546875, -0.01025390625, 0, 
42, 1021971614, -0.200837180018425, -0.5882723331451416, 0.4957354962825775, -0.6065158843994141, 8.913135528564453, -3.6938703060150146, -1.6720678806304932, 6.442300796508789, -1.2141149044036865, -0.5745529532432556, -1.0439453125, 0.104736328125, -0.00634765625, 0, 
43, 1021979947, -0.2007003128528595, -0.5883133411407471, 0.4955868124961853, -0.6066429615020752, 8.89466667175293, -3.6939055919647217, -1.7555440664291382, 4.148085117340088, -0.680442214012146, -0.20734724402427673, -1.0458984375, 0.10595703125, -0.010498046875, 0, 
44, 1021988280, -0.20060667395591736, -0.5883190631866455, 0.4955548644065857, -0.6066944599151611, 8.907240867614746, -3.6168127059936523, -1.7454112768173218, 2.2661428451538086, -1.0633876323699951, 0.3557817339897156, -1.048095703125, 0.104248046875, -0.00927734375, 0, 
45, 1021996613, -0.20045438408851624, -0.5882941484451294, 0.49552080035209656, -0.6067968606948853, 8.933955192565918, -3.4641294479370117, -1.8312530517578125, 2.967076063156128, -0.7511502504348755, 1.2302772998809814, -1.04638671875, 0.1015625, -0.01123046875, 0, 
46, 1022004946, -0.2001325935125351, -0.5883554816246033, 0.4953804910182953, -0.6069580912590027, 8.963109016418457, -3.4260871410369873, -1.7338128089904785, 5.942681789398193, -1.908401370048523, 1.2988977432250977, -1.04345703125, 0.102294921875, -0.010498046875, 0, 
47, 1022013279, -0.19980496168136597, -0.5884868502616882, 0.4952293038368225, -0.6070619821548462, 8.977388381958008, -3.4973511695861816, -1.6105860471725464, 5.803250312805176, -2.9158215522766113, 0.6863718032836914, -1.044921875, 0.10400390625, -0.012451171875, 0, 
48, 1022021612, -0.1995546668767929, -0.5886027812957764, 0.4951265752315521, -0.6071158051490784, 8.985158920288086, -3.470878839492798, -1.6372612714767456, 4.289884567260742, -2.7735605239868164, 0.3768237829208374, -1.0478515625, 0.1025390625, -0.01123046875, 0, 
49, 1022029945, -0.19927246868610382, -0.5886524319648743, 0.4948729872703552, -0.6073670387268066, 9.06014633178711, -3.3971383571624756, -1.7496296167373657, 7.0689778327941895, -0.45234736800193787, 0.438349187374115, -1.0439453125, 0.1025390625, -0.011474609375, 0, 
50, 1022038278, -0.19906733930110931, -0.58868008852005, 0.4946005046367645, -0.6076294183731079, 9.010268211364746, -3.472787618637085, -1.6519798040390015, 6.615708351135254, 0.3855070471763611, -0.2189248502254486, -1.046875, 0.1044921875, -0.012451171875, 0, 
51, 1022046611, -0.1989947408437729, -0.5887510180473328, 0.4944523572921753, -0.6077051162719727, 8.979560852050781, -3.544434070587158, -1.4895585775375366, 3.3563103675842285, -0.912622332572937, -1.0861845016479492, -1.044189453125, 0.10498046875, -0.01318359375, 0, 
52, 1022054944, -0.19901622831821442, -0.5888356566429138, 0.4944217801094055, -0.6076410412788391, 9.02805233001709, -3.573986053466797, -1.4124219417572021, 0.7157514095306396, -1.8610280752182007, -1.4383418560028076, -1.04638671875, 0.1044921875, -0.010986328125, 0, 
53, 1022063277, -0.19909095764160156, -0.5888717770576477, 0.49443313479423523, -0.6075722575187683, 9.079142570495605, -3.542536735534668, -1.4545872211456299, -0.24692127108573914, -1.2278953790664673, -1.1840437650680542, -1.044921875, 0.10546875, -0.01123046875, 0, 
54, 1022071610, -0.1992136389017105, -0.5888831615447998, 0.4944756031036377, -0.6074863076210022, 9.017080307006836, -3.569723129272461, -1.5718791484832764, -1.1249772310256958, -0.9182959198951721, -1.242648959159851, -1.047119140625, 0.103271484375, -0.01025390625, 0, 
55, 1022079943, -0.19946783781051636, -0.588819682598114, 0.49461856484413147, -0.6073479652404785, 8.959567070007324, -3.6093544960021973, -1.7832978963851929, -3.547135591506958, -0.09905023127794266, -1.129228949546814, -1.046875, 0.103515625, -0.01171875, 0, 
56, 1022088276, -0.1997840404510498, -0.5887435078620911, 0.49486902356147766, -0.6071138978004456, 8.944503784179688, -3.5852208137512207, -2.0292389392852783, -5.615305423736572, -0.6635878682136536, -0.9976744055747986, -1.0419921875, 0.10400390625, -0.01025390625, 0, 
57, 1022096609, -0.2000080943107605, -0.5887407660484314, 0.4950461983680725, -0.6068982481956482, 8.966262817382812, -3.5472640991210938, -2.0045156478881836, -3.946244716644287, -1.5308476686477661, -1.2268579006195068, -1.0458984375, 0.1015625, -0.007568359375, 0, 
58, 1022104942, -0.20017553865909576, -0.5887622237205505, 0.49519553780555725, -0.6067004203796387, 9.037188529968262, -3.5515201091766357, -1.8450382947921753, -3.073464870452881, -1.9100149869918823, -1.1347745656967163, -1.04443359375, 0.098876953125, -0.01123046875, 0, 
59, 1022113275, -0.20038317143917084, -0.5887120366096497, 0.4953283369541168, -0.6065722107887268, 8.981453895568848, -3.5803797245025635, -1.839194655418396, -2.97843599319458, -0.4145279824733734, -0.8862909078598022, -1.041748046875, 0.104248046875, -0.007080078125, 0, 
60, 1022121608, -0.20045842230319977, -0.5886625647544861, 0.4953911304473877, -0.606544017791748, 8.990029335021973, -3.4969534873962402, -1.9520752429962158, -0.6094010472297668, -0.35154253244400024, -0.12252568453550339, -1.04833984375, 0.10009765625, -0.00634765625, 0, 
61, 1022129941, -0.20032556354999542, -0.5886586308479309, 0.4952435791492462, -0.606712281703949, 9.014375686645508, -3.4649922847747803, -1.9831066131591797, 4.261940002441406, 0.04983249679207802, 0.1859721690416336, -1.045654296875, 0.103759765625, -0.008544921875, 0, 
62, 1022138274, -0.20017682015895844, -0.5886662602424622, 0.49499619007110596, -0.6069557070732117, 8.958843231201172, -3.6214561462402344, -1.7850522994995117, 5.72461462020874, 0.7344497442245483, -0.39071953296661377, -1.0439453125, 0.10302734375, -0.010986328125, 0, 
63, 1022146607, -0.20014217495918274, -0.5886772274971008, 0.49488261342048645, -0.6070492267608643, 8.922362327575684, -3.69610595703125, -1.600407361984253, 2.7163257598876953, -0.10238010436296463, -0.6646637916564941, -1.048095703125, 0.101318359375, -0.009765625, 0, 
64, 1022154940, -0.2001252919435501, -0.5886926054954529, 0.4948265850543976, -0.6070854663848877, 8.917214393615723, -3.7024593353271484, -1.585518479347229, 1.6023751497268677, -0.6124747395515442, -0.5544585585594177, -1.045166015625, 0.101318359375, -0.008544921875, 0, 
65, 1022163273, -0.2001568078994751, -0.5886968374252319, 0.49477940797805786, -0.6071093678474426, 8.90334415435791, -3.804990530014038, -1.6410764455795288, 1.1354022026062012, -0.34203970432281494, -0.8254315853118896, -1.04541015625, 0.10693359375, -0.01123046875, 0, 
66, 1022171606, -0.20028793811798096, -0.5886578559875488, 0.4948218762874603, -0.6070694327354431, 8.872579574584961, -3.8623852729797363, -1.71214759349823, -1.0609030723571777, -0.04932020604610443, -0.8349087238311768, -1.044921875, 0.1015625, -0.011474609375, 0, 
67, 1022179939, -0.2004941701889038, -0.5885932445526123, 0.494967520236969, -0.606945276260376, 8.875420570373535, -3.776548147201538, -1.8339745998382568, -3.086899518966675, -0.3087283968925476, -0.6624865531921387, -1.04736328125, 0.10400390625, -0.01318359375, 0, 
68, 1022188272, -0.20060577988624573, -0.5885718464851379, 0.4950966238975525, -0.606823742389679, 8.892457962036133, -3.6455600261688232, -1.8917988538742065, -2.1200389862060547, -1.2307896614074707, -0.3184617757797241, -1.04345703125, 0.1025390625, -0.011962890625, 0, 
69, 1022196605, -0.2004099041223526, -0.5886735916137695, 0.49505990743637085, -0.6068196892738342, 8.924800872802734, -3.472064733505249, -1.8616862297058105, 2.9669227600097656, -2.9589951038360596, 0.4152836203575134, -1.0478515625, 0.101806640625, -0.0078125, 0, 
70, 1022204938, -0.19991888105869293, -0.5888662338256836, 0.49478012323379517, -0.6070230603218079, 9.028438568115234, -3.3497238159179688, -1.9014356136322021, 8.978187561035156, -3.3673248291015625, 0.8365482687950134, -1.044677734375, 0.098388671875, -0.00927734375, 0, 
71, 1022213271, -0.19946478307247162, -0.5890517830848694, 0.49444305896759033, -0.607266902923584, 9.01536750793457, -3.4651644229888916, -1.829917073249817, 9.481992721557617, -2.583759307861328, 0.2508274018764496, -1.047607421875, 0.10400390625, -0.0107421875, 0, 
72, 1022221604, -0.19925659894943237, -0.5891198515892029, 0.49429216980934143, -0.6073922514915466, 9.003445625305176, -3.5811879634857178, -1.7257111072540283, 4.701313495635986, -1.3721674680709839, 0.16185635328292847, -1.04736328125, 0.10107421875, -0.01171875, 0, 
73, 1022229937, -0.19919486343860626, -0.589102566242218, 0.4942457675933838, -0.607466995716095, 9.015998840332031, -3.6540815830230713, -1.5732412338256836, 2.1703710556030273, -0.3870694935321808, 0.2425668090581894, -1.047119140625, 0.10400390625, -0.010986328125, 0, 
74, 1022238270, -0.19922946393489838, -0.5890541076660156, 0.4942375123500824, -0.6075090765953064, 8.970330238342285, -3.713690996170044, -1.5527747869491577, 0.7057106494903564, 0.16594180464744568, -0.15473560988903046, -1.04443359375, 0.100830078125, -0.010986328125, 0, 
75, 1022246603, -0.1993655562400818, -0.5889617800712585, 0.49431902170181274, -0.607487678527832, 8.950759887695312, -3.772752523422241, -1.6101046800613403, -1.3608332872390747, 0.4539739191532135, -0.12574028968811035, -1.04541015625, 0.1025390625, -0.010986328125, 0, 
76, 1022254936, -0.19952723383903503, -0.588847815990448, 0.4944918751716614, -0.6074044704437256, 8.9232759475708, -3.6677165031433105, -1.6600385904312134, -2.830718517303467, 0.05079302564263344, 0.3432307243347168, -1.046875, 0.1044921875, -0.010986328125, 0, 
77, 1022263269, -0.19964557886123657, -0.5886883735656738, 0.4946637749671936, -0.6073800921440125, 8.992576599121094, -3.524826765060425, -1.869225025177002, -2.1760575771331787, 0.621926486492157, 1.2025244235992432, -1.04833984375, 0.103759765625, -0.00830078125, 0, 
78, 1022271602, -0.19970013201236725, -0.5885694622993469, 0.4947395622730255, -0.6074159741401672, 8.97168254852295, -3.532066583633423, -1.8768631219863892, -0.5074179768562317, 0.6568898558616638, 0.8434638977050781, -1.04736328125, 0.103515625, -0.01123046875, 0, 
79, 1022279935, -0.1998063623905182, -0.588482677936554, 0.49480685591697693, -0.6074102520942688, 8.906562805175781, -3.6219279766082764, -1.8154559135437012, -0.8782352209091187, 0.37070199847221375, 0.013665193691849709, -1.045654296875, 0.103271484375, -0.008544921875, 0, 
80, 1022288268, -0.19992931187152863, -0.5884544849395752, 0.49487632513046265, -0.6073403358459473, 8.92255687713623, -3.6590797901153564, -1.7393354177474976, -1.3054934740066528, -0.5474914312362671, -0.7213864922523499, -1.0439453125, 0.10546875, -0.01123046875, 0, 
81, 1022296601, -0.20006822049617767, -0.5884833931922913, 0.49499329924583435, -0.6071712970733643, 8.941009521484375, -3.6415460109710693, -1.6143157482147217, -2.350425958633423, -1.8301498889923096, -1.0933308601379395, -1.044921875, 0.10107421875, -0.01171875, 0, 
82, 1022304934, -0.20020470023155212, -0.5885063409805298, 0.495133638381958, -0.6069896221160889, 8.972167015075684, -3.6263997554779053, -1.6955854892730713, -2.529482841491699, -2.0211169719696045, -0.9351758360862732, -1.043701171875, 0.102294921875, -0.009521484375, 0, 
83, 1022313267, -0.20025797188282013, -0.5885341167449951, 0.4951092004776001, -0.6069650650024414, 8.970566749572754, -3.6246888637542725, -1.8825567960739136, 0.5031276345252991, -0.8450905084609985, -1.1167548894882202, -1.046875, 0.10498046875, -0.011962890625, 0, 
84, 1022321600, -0.200247123837471, -0.5885461568832397, 0.4949524998664856, -0.6070846915245056, 8.957186698913574, -3.6574225425720215, -1.9971884489059448, 3.0816867351531982, 0.3546418845653534, -1.1904727220535278, -1.04150390625, 0.102294921875, -0.00927734375, 0, 
85, 1022329933, -0.20030577480793, -0.5885214805603027, 0.49489670991897583, -0.6071346402168274, 8.910661697387695, -3.654158353805542, -2.010650157928467, 1.0844427347183228, 0.31862831115722656, -0.8531845211982727, -1.046630859375, 0.103271484375, -0.010009765625, 0, 
86, 1022338266, -0.20025546848773956, -0.5885093808174133, 0.4948538541793823, -0.6071979999542236, 8.965376853942871, -3.549008369445801, -1.943516731262207, 1.9618326425552368, -0.46323341131210327, 0.07752148061990738, -1.04833984375, 0.103515625, -0.01123046875, 0, 
87, 1022346599, -0.20002003014087677, -0.5885779857635498, 0.4947098195552826, -0.6073264479637146, 9.032485961914062, -3.4991629123687744, -1.798054814338684, 4.992022514343262, -1.5834463834762573, 0.468702107667923, -1.046142578125, 0.103759765625, -0.010009765625, 0, 
88, 1022354932, -0.19977973401546478, -0.5886127948760986, 0.4944905638694763, -0.6075503826141357, 8.989303588867188, -3.5632503032684326, -1.6666370630264282, 6.224092483520508, -0.3725590109825134, 0.35507732629776, -1.04541015625, 0.101806640625, -0.010986328125, 0, 
89, 1022363265, -0.19967176020145416, -0.5886348485946655, 0.4943361282348633, -0.6076902151107788, 8.959444046020508, -3.5962822437286377, -1.6232625246047974, 3.9971394538879395, -0.20601528882980347, -0.33062854409217834, -1.044677734375, 0.102783203125, -0.009033203125, 0, 
90, 1022371598, -0.19962745904922485, -0.5886493921279907, 0.49421197175979614, -0.6077913045883179, 8.958069801330566, -3.5658340454101562, -1.600351333618164, 2.912710189819336, -0.11155000329017639, -0.7058771252632141, -1.046142578125, 0.100830078125, -0.00927734375, 0, 
91, 1022379931, -0.19965821504592896, -0.5886669754981995, 0.4941271245479584, -0.6078331470489502, 8.971067428588867, -3.5893261432647705, -1.5849871635437012, 1.6140682697296143, -0.21231640875339508, -1.1654988527297974, -1.04833984375, 0.10302734375, -0.01171875, 0, 
92, 1022388264, -0.19978876411914825, -0.588670551776886, 0.494173139333725, -0.6077497601509094, 8.973760604858398, -3.6123206615448, -1.6347185373306274, -1.2318655252456665, -0.7828479409217834, -1.217290997505188, -1.050048828125, 0.10400390625, -0.011474609375, 0, 
93, 1022396597, -0.19993120431900024, -0.5886837244033813, 0.49427658319473267, -0.6076061129570007, 8.969159126281738, -3.5684585571289062, -1.6553024053573608, -2.1360738277435303, -1.4343717098236084, -1.0547174215316772, -1.044677734375, 0.1025390625, -0.013427734375, 0, 
94, 1022404930, -0.20008613169193268, -0.5886833667755127, 0.49437257647514343, -0.607477068901062, 8.941536903381348, -3.6085779666900635, -1.7001762390136719, -2.282292366027832, -1.0441001653671265, -1.0919731855392456, -1.0458984375, 0.103515625, -0.011962890625, 0, 
95, 1022413263, -0.20026662945747375, -0.5886815190315247, 0.49452272057533264, -0.6072972416877747, 8.917638778686523, -3.602172613143921, -1.772363543510437, -3.1216583251953125, -1.470129132270813, -0.9928590655326843, -1.048583984375, 0.102783203125, -0.01025390625, 0, 
96, 1022421596, -0.20027625560760498, -0.5887122750282288, 0.49455201625823975, -0.6072403788566589, 8.903356552124023, -3.500229835510254, -1.874607801437378, 0.2944868505001068, -1.6358402967453003, -0.4843267500400543, -1.047119140625, 0.099853515625, -0.009765625, 0, 
97, 1022429929, -0.1999961882829666, -0.5888470411300659, 0.49431324005126953, -0.6073963046073914, 8.978120803833008, -3.3980555534362793, -1.9553561210632324, 6.514468669891357, -1.9550960063934326, -0.29662564396858215, -1.04833984375, 0.100830078125, -0.010986328125, 0, 
98, 1022438262, -0.1996300220489502, -0.5890066027641296, 0.49398231506347656, -0.6076312065124512, 9.010493278503418, -3.5012142658233643, -1.9209760427474976, 8.736721992492676, -1.9320306777954102, -0.3466118574142456, -1.044921875, 0.1015625, -0.011474609375, 0, 
99, 1022446595, -0.19934885203838348, -0.5891419649124146, 0.49369141459465027, -0.6078287363052368, 8.976240158081055, -3.640761613845825, -1.7791661024093628, 7.242412567138672, -1.487879753112793, -0.6006538271903992, -1.0458984375, 0.10400390625, -0.011474609375, 0, 
100, 1022454928, -0.19920644164085388, -0.5891928672790527, 0.4934881031513214, -0.6079911589622498, 8.991868019104004, -3.7032546997070312, -1.6560717821121216, 4.963898181915283, -0.3989161252975464, -0.622477114200592, -1.05029296875, 0.10205078125, -0.013427734375, 0, 
101, 1022463261, -0.19920358061790466, -0.5891856551170349, 0.49341443181037903, -0.608058750629425, 8.966758728027344, -3.6857948303222656, -1.682199478149414, 1.9002050161361694, -0.05658184736967087, -0.5565205812454224, -1.044921875, 0.10400390625, -0.010986328125, 0, 
102, 1022471594, -0.19923730194568634, -0.5891674160957336, 0.49343937635421753, -0.608045220375061, 8.936962127685547, -3.6891002655029297, -1.7179769277572632, 0.07357688993215561, -0.6063657402992249, -0.22379156947135925, -1.04833984375, 0.10302734375, -0.01220703125, 0, 
103, 1022479927, -0.19935809075832367, -0.589083731174469, 0.49358999729156494, -0.6079645752906799, 8.957108497619629, -3.697498321533203, -1.6653683185577393, -2.192937135696411, -0.39153918623924255, 0.33932456374168396, -1.044189453125, 0.099609375, -0.0126953125, 0, 
104, 1022488260, -0.19950495660305023, -0.5889742970466614, 0.4937902092933655, -0.6078597903251648, 8.975521087646484, -3.572112798690796, -1.760744333267212, -3.0425868034362793, -0.35122236609458923, 0.5930335521697998, -1.0458984375, 0.103515625, -0.012451171875, 0, 
105, 1022496593, -0.1995905637741089, -0.5889112949371338, 0.49398475885391235, -0.6077346801757812, 8.931994438171387, -3.527164936065674, -1.808957576751709, -2.5209786891937256, -1.2846819162368774, 0.7259202599525452, -1.04833984375, 0.099609375, -0.012939453125, 0, 
106, 1022504926, -0.19961076974868774, -0.5888933539390564, 0.4941171407699585, -0.6076377630233765, 8.975539207458496, -3.4958999156951904, -1.8339799642562866, -1.2238479852676392, -1.6948682069778442, 0.5181118845939636, -1.045166015625, 0.1025390625, -0.013916015625, 0, 
107, 1022513259, -0.19968584179878235, -0.5888545513153076, 0.49421757459640503, -0.6075690984725952, 8.944352149963379, -3.554483652114868, -1.8104559183120728, -1.1993352174758911, -0.8405823111534119, 0.043787531554698944, -1.047607421875, 0.099853515625, -0.00927734375, 0, 
108, 1022521592, -0.19982154667377472, -0.5888086557388306, 0.49433633685112, -0.6074722409248352, 8.938007354736328, -3.605311155319214, -1.6923871040344238, -2.000446081161499, -0.6873835921287537, -0.39110374450683594, -1.048095703125, 0.101318359375, -0.01025390625, 0, 
109, 1022529925, -0.19995631277561188, -0.5888001322746277, 0.4944518804550171, -0.6073421239852905, 8.952942848205566, -3.6485536098480225, -1.7073431015014648, -2.143296718597412, -1.230431079864502, -0.7068248987197876, -1.046875, 0.10107421875, -0.01123046875, 0, 
110, 1022538258, -0.20002348721027374, -0.5888172388076782, 0.49458494782447815, -0.6071950793266296, 8.960611343383789, -3.595834493637085, -1.7119512557983398, -1.8077630996704102, -2.093336343765259, -0.25541234016418457, -1.04638671875, 0.10498046875, -0.012451171875, 0, 
111, 1022546591, -0.19998183846473694, -0.58887779712677, 0.4946885108947754, -0.6070656776428223, 8.982247352600098, -3.548356771469116, -1.7733074426651, -0.4201503396034241, -2.96761417388916, 0.20026491582393646, -1.044677734375, 0.103759765625, -0.009521484375, 0, 
112, 1022554924, -0.19986054301261902, -0.5889620184898376, 0.4947423040866852, -0.6069800853729248, 9.03487777709961, -3.4794058799743652, -1.8795799016952515, 0.8734070062637329, -3.1759092807769775, 0.4117872714996338, -1.044189453125, 0.102783203125, -0.009521484375, 0, 
113, 1022563257, -0.19977454841136932, -0.5890011787414551, 0.4947699010372162, -0.6069479584693909, 9.02431869506836, -3.460547924041748, -2.008960485458374, 1.1770637035369873, -2.092221736907959, 0.3693700432777405, -1.047607421875, 0.102294921875, -0.009765625, 0, 
114, 1022571590, -0.1997368335723877, -0.5889708399772644, 0.4947475492954254, -0.6070079803466797, 9.004311561584473, -3.4050066471099854, -2.060863494873047, 1.636198878288269, -0.31641262769699097, 0.24972596764564514, -1.043212890625, 0.103271484375, -0.0087890625, 0, 
115, 1022579923, -0.19961680471897125, -0.5889724493026733, 0.4945595860481262, -0.6071991324424744, 9.020074844360352, -3.411039352416992, -1.8856935501098633, 4.668027400970459, 0.38852953910827637, -0.22266453504562378, -1.047607421875, 0.101806640625, -0.0087890625, 0, 
116, 1022588256, -0.19947323203086853, -0.5890334844589233, 0.49434372782707214, -0.6073628664016724, 8.985342025756836, -3.50420880317688, -1.6612470149993896, 5.058157920837402, -0.4252731204032898, -0.7685038447380066, -1.0478515625, 0.1015625, -0.01123046875, 0, 
117, 1022596589, -0.1994207352399826, -0.5890911221504211, 0.49414753913879395, -0.6074838042259216, 9.00045108795166, -3.5872702598571777, -1.6520259380340576, 3.865636110305786, -0.1636749804019928, -1.4278143644332886, -1.046142578125, 0.103271484375, -0.009033203125, 0, 
118, 1022604922, -0.19953998923301697, -0.5890697836875916, 0.49408847093582153, -0.6075133681297302, 8.979012489318848, -3.6547374725341797, -1.6967545747756958, 0.4063314199447632, 0.5636028051376343, -1.485702395439148, -1.04443359375, 0.101806640625, -0.010009765625, 0, 
119, 1022613255, -0.19977359473705292, -0.5890067219734192, 0.49416735768318176, -0.6074336171150208, 8.966057777404785, -3.5955395698547363, -1.7528067827224731, -2.4444687366485596, 0.4066644012928009, -1.321182131767273, -1.045166015625, 0.102294921875, -0.009521484375, 0, 
120, 1022621588, -0.1999087780714035, -0.5889726281166077, 0.49423083662986755, -0.6073704361915588, 8.985143661499023, -3.527238607406616, -1.7241712808609009, -1.390007734298706, -0.31712982058525085, -0.7972942590713501, -1.042236328125, 0.100830078125, -0.00830078125, 0, 
121, 1022629921, -0.19994410872459412, -0.5889509916305542, 0.4942284822463989, -0.6073817014694214, 8.977954864501953, -3.4934842586517334, -1.671762466430664, 0.5718762874603271, -0.32668396830558777, -0.3546547293663025, -1.046630859375, 0.103759765625, -0.010009765625, 0, 
122, 1022638254, -0.19985540211200714, -0.5889909863471985, 0.49419474601745605, -0.6073996424674988, 8.997992515563965, -3.4922561645507812, -1.6967804431915283, 1.9435696601867676, -1.5157992839813232, 0.013946950435638428, -1.044921875, 0.10205078125, -0.011962890625, 0, 
123, 1022646587, -0.1997389793395996, -0.5890219211578369, 0.49410274624824524, -0.6074827313423157, 8.996299743652344, -3.541578769683838, -1.7403273582458496, 3.1808910369873047, -0.9698061943054199, 0.026754070073366165, -1.047119140625, 0.100830078125, -0.00927734375, 0, 
124, 1022654920, -0.1996086984872818, -0.589058518409729, 0.49399515986442566, -0.607577383518219, 8.977897644042969, -3.610969305038452, -1.650519847869873, 3.418002128601074, -0.9491099715232849, -0.005737588740885258, -1.0419921875, 0.100830078125, -0.009765625, 0, 
125, 1022663253, -0.19949688017368317, -0.5891052484512329, 0.49391984939575195, -0.6076300740242004, 8.99703598022461, -3.623746395111084, -1.6198062896728516, 2.843961238861084, -1.3604488372802734, -0.06608472019433975, -1.0478515625, 0.100830078125, -0.00830078125, 0, 
126, 1022671586, -0.199479877948761, -0.5890802145004272, 0.49391672015190125, -0.607662558555603, 8.999027252197266, -3.620976448059082, -1.6315133571624756, 1.187949776649475, -0.5154095888137817, 0.1130228117108345, -1.043212890625, 0.101318359375, -0.0078125, 0, 
127, 1022679919, -0.19962288439273834, -0.5889906287193298, 0.4940904676914215, -0.6075612902641296, 8.94704532623291, -3.635253667831421, -1.7624380588531494, -2.723151922225952, -0.42324960231781006, 0.3250318467617035, -1.0458984375, 0.101318359375, -0.0107421875, 0, 
128, 1022688252, -0.19979485869407654, -0.5888988971710205, 0.4943239986896515, -0.6074034571647644, 8.960894584655762, -3.5168421268463135, -1.8842768669128418, -3.8741273880004883, -0.8317710757255554, 0.3972127437591553, -1.048583984375, 0.103271484375, -0.01416015625, 0, 
129, 1022696585, -0.19990266859531403, -0.5888211727142334, 0.49441760778427124, -0.6073673367500305, 8.96595287322998, -3.5108304023742676, -1.944100022315979, -1.2929552793502808, -0.012781503610312939, 0.06950422376394272, -1.045166015625, 0.102294921875, -0.008056640625, 0, 
130, 1022704918, -0.20001770555973053, -0.5887835621833801, 0.4945041239261627, -0.6072954535484314, 8.916261672973633, -3.606642246246338, -1.952418565750122, -1.2592982053756714, -0.652727484703064, -0.48841220140457153, -1.04443359375, 0.104248046875, -0.01025390625, 0, 
131, 1022713251, -0.20014381408691406, -0.5887618660926819, 0.4945625066757202, -0.6072275042533875, 8.915975570678711, -3.6663970947265625, -1.8969053030014038, -1.2094786167144775, -0.5168952941894531, -0.8363303542137146, -1.04443359375, 0.103515625, -0.011962890625, 0, 
132, 1022721584, -0.20025058090686798, -0.5887300372123718, 0.49463269114494324, -0.6071658134460449, 8.90596866607666, -3.6435508728027344, -1.812158465385437, -0.9789888262748718, -0.6273053884506226, -0.5596069693565369, -1.0439453125, 0.10302734375, -0.010498046875, 0, 
133, 1022729917, -0.2002498358488083, -0.5887479186058044, 0.49467554688453674, -0.607113778591156, 8.969423294067383, -3.5524237155914307, -1.7324116230010986, 0.16496847569942474, -1.53823721408844, -0.12963365018367767, -1.046875, 0.10400390625, -0.011474609375, 0, 
134, 1022738250, -0.20025131106376648, -0.5887379050254822, 0.4946947395801544, -0.6071073412895203, 8.992790222167969, -3.5678162574768066, -1.7033852338790894, 0.5638077259063721, -0.8658636808395386, -0.05809308588504791, -1.04638671875, 0.10205078125, -0.01171875, 0, 
135, 1022746583, -0.20033343136310577, -0.5886819958686829, 0.4947466254234314, -0.6070923209190369, 8.957076072692871, -3.6064348220825195, -1.651269555091858, -0.5330706238746643, -0.08479592204093933, -0.1435805857181549, -1.04443359375, 0.102294921875, -0.010498046875, 0, 
136, 1022754916, -0.20040276646614075, -0.588618814945221, 0.49480295181274414, -0.6070847511291504, 8.974321365356445, -3.5408151149749756, -1.7055455446243286, -0.48528730869293213, -0.057350270450115204, 0.04194330796599388, -1.0498046875, 0.1025390625, -0.011962890625, 0, 
137, 1022763249, -0.20036327838897705, -0.5885717272758484, 0.4947746992111206, -0.6071664690971375, 8.98684310913086, -3.496687412261963, -1.878772497177124, 1.8035879135131836, 0.019710153341293335, 0.42961475253105164, -1.0458984375, 0.10400390625, -0.011962890625, 0, 
138, 1022771582, -0.20024453103542328, -0.5885385274887085, 0.49471354484558105, -0.6072877049446106, 8.972708702087402, -3.4612834453582764, -1.9588972330093384, 3.043470621109009, -0.2503279447555542, 0.8011491894721985, -1.046630859375, 0.102294921875, -0.01025390625, 0, 
139, 1022779915, -0.19996875524520874, -0.5886026620864868, 0.49459636211395264, -0.6074116230010986, 8.989053726196289, -3.4452810287475586, -2.0020854473114014, 5.0517802238464355, -1.9313132762908936, 1.0417437553405762, -1.04833984375, 0.102294921875, -0.0087890625, 0, 
140, 1022788248, -0.19956138730049133, -0.5887517333030701, 0.49439236521720886, -0.607567310333252, 9.015294075012207, -3.4989099502563477, -1.8875969648361206, 7.396457195281982, -3.0971455574035645, 0.8936936259269714, -1.04443359375, 0.10205078125, -0.010986328125, 0, 
141, 1022796581, -0.1991710215806961, -0.588911235332489, 0.4941447973251343, -0.6077423095703125, 9.026754379272461, -3.648850440979004, -1.6698503494262695, 7.677367687225342, -2.7342681884765625, 0.4351218044757843, -1.044677734375, 0.103759765625, -0.008544921875, 0, 
142, 1022804914, -0.1989080011844635, -0.5890104174613953, 0.49396923184394836, -0.6078749299049377, 8.93433952331543, -3.770481586456299, -1.5055969953536987, 5.565832614898682, -1.9115391969680786, 0.21909138560295105, -1.046875, 0.1025390625, -0.01123046875, 0, 
143, 1022813247, -0.19877658784389496, -0.5890533328056335, 0.4939514398574829, -0.6078909635543823, 8.95995044708252, -3.754040002822876, -1.47298002243042, 2.261262893676758, -1.916738748550415, 0.48875799775123596, -1.047119140625, 0.099365234375, -0.0087890625, 0, 
144, 1022821580, -0.19870637357234955, -0.5890649557113647, 0.49399334192276, -0.6078684329986572, 8.973129272460938, -3.660372257232666, -1.6057716608047485, 0.8769930601119995, -1.7172038555145264, 0.5429577231407166, -1.0439453125, 0.10302734375, -0.010498046875, 0, 
145, 1022829913, -0.19869381189346313, -0.5890687704086304, 0.4940624535083771, -0.6078128218650818, 8.953821182250977, -3.6749517917633057, -1.589125633239746, -0.022233152762055397, -1.6005054712295532, 0.26855242252349854, -1.0458984375, 0.10400390625, -0.012939453125, 0, 
146, 1022838246, -0.19875364005565643, -0.58906090259552, 0.49420297145843506, -0.6076866984367371, 8.930830001831055, -3.6422057151794434, -1.6362239122390747, -1.7334178686141968, -1.787899374961853, 0.09811532497406006, -1.04638671875, 0.102783203125, -0.007568359375, 0, 
147, 1022846579, -0.19879281520843506, -0.5890331268310547, 0.49431565403938293, -0.607609212398529, 8.959646224975586, -3.551614761352539, -1.7874293327331543, -1.0399636030197144, -1.2828121185302734, 0.3451389968395233, -1.046875, 0.104248046875, -0.008056640625, 0, 
148, 1022854912, -0.1988144814968109, -0.5890249013900757, 0.4943520128726959, -0.6075801253318787, 8.941668510437012, -3.6249964237213135, -1.775471568107605, 0.0983714684844017, -0.9682949185371399, -0.15888509154319763, -1.047607421875, 0.102783203125, -0.009765625, 0, 
149, 1022863245, -0.19888724386692047, -0.5889721512794495, 0.4944208264350891, -0.6075513958930969, 8.944165229797363, -3.6468698978424072, -1.7784185409545898, -0.6820301413536072, -0.33208853006362915, 0.012230796739459038, -1.04736328125, 0.102783203125, -0.007568359375, 0, 
150, 1022871578, -0.1989738941192627, -0.5889008045196533, 0.49446773529052734, -0.6075543165206909, 8.975473403930664, -3.6204543113708496, -1.7899627685546875, -0.3841879069805145, 0.19365642964839935, -0.11477737873792648, -1.04638671875, 0.10107421875, -0.01220703125, 0, 
151, 1022879911, -0.19910967350006104, -0.5888456702232361, 0.4945491850376129, -0.6074970364570618, 8.967819213867188, -3.6126863956451416, -1.7546281814575195, -1.4989451169967651, -0.14687202870845795, -0.47442686557769775, -1.0478515625, 0.100830078125, -0.00830078125, 0, 
152, 1022888244, -0.19930967688560486, -0.5887622833251953, 0.49473685026168823, -0.6073592305183411, 8.976517677307129, -3.5914528369903564, -1.796860933303833, -3.668931722640991, -0.3798590898513794, -0.18821339309215546, -1.04296875, 0.105712890625, -0.006103515625, 0, 
153, 1022896577, -0.19957946240901947, -0.5886467099189758, 0.4949999749660492, -0.6071681380271912, 8.961966514587402, -3.510911226272583, -1.8746124505996704, -5.177520275115967, -0.3124040365219116, -0.0774446427822113, -1.046630859375, 0.102783203125, -0.009765625, 0, 
154, 1022904910, -0.1998261660337448, -0.5885368585586548, 0.4952392578125, -0.6069983839988708, 8.95278263092041, -3.462435007095337, -1.8824503421783447, -4.747688293457031, -0.2471901774406433, -0.06924808770418167, -1.044189453125, 0.103271484375, -0.0087890625, 0, 
155, 1022913243, -0.2000863254070282, -0.5884326100349426, 0.4954865872859955, -0.6068117022514343, 8.956682205200195, -3.528304100036621, -1.7034419775009155, -4.905920505523682, -0.39458727836608887, -0.1907748281955719, -1.044921875, 0.1064453125, -0.0107421875, 0, 
156, 1022921576, -0.20032796263694763, -0.5883398652076721, 0.4957355260848999, -0.6066188812255859, 8.918688774108887, -3.601112127304077, -1.6367658376693726, -4.777618408203125, -0.6867688894271851, -0.15250714123249054, -1.043701171875, 0.102294921875, -0.008544921875, 0, 
157, 1022929909, -0.20051702857017517, -0.5882531404495239, 0.4959491193294525, -0.6064658164978027, 8.930662155151367, -3.665748357772827, -1.7317030429840088, -3.77284836769104, -0.6600531935691833, 0.10282833874225616, -1.04638671875, 0.101318359375, -0.0107421875, 0, 
158, 1022938242, -0.20058628916740417, -0.5882073044776917, 0.49609440565109253, -0.6063686013221741, 8.922377586364746, -3.6678786277770996, -1.8587429523468018, -1.7172552347183228, -1.202537178993225, 0.38558390736579895, -1.049560546875, 0.10302734375, -0.00634765625, 0, 
159, 1022946575, -0.20058920979499817, -0.5882017612457275, 0.4961671531200409, -0.6063134670257568, 8.94048023223877, -3.6869113445281982, -1.882270336151123, -0.20030330121517181, -1.425380825996399, 0.2322314828634262, -1.045166015625, 0.101806640625, -0.009033203125, 0, 
160, 1022954908, -0.20065146684646606, -0.588142454624176, 0.49621301889419556, -0.6063128709793091, 8.9443941116333, -3.7500710487365723, -1.8350976705551147, -0.12679046392440796, -0.11677530407905579, -0.017878737300634384, -1.046875, 0.10302734375, -0.01171875, 0, 
161, 1022963241, -0.20071560144424438, -0.588110089302063, 0.49627211689949036, -0.6062746047973633, 8.919251441955566, -3.7368955612182617, -1.6648814678192139, -0.5394997596740723, -0.6087606549263, -0.15876983106136322, -1.04638671875, 0.1044921875, -0.011474609375, 0, 
162, 1022971574, -0.2007109522819519, -0.5881370306015015, 0.49634814262390137, -0.6061879992485046, 8.946891784667969, -3.631868839263916, -1.746451735496521, -0.13120892643928528, -2.094130277633667, -0.05372586101293564, -1.045654296875, 0.106689453125, -0.00927734375, 0, 
163, 1022979907, -0.20053303241729736, -0.5881880521774292, 0.4962330162525177, -0.6062915921211243, 8.974514961242676, -3.5269830226898193, -1.9311985969543457, 4.068040370941162, -1.3284311294555664, 0.27234339714050293, -1.04443359375, 0.104248046875, -0.0068359375, 0, 
164, 1022988240, -0.20023925602436066, -0.5883021354675293, 0.4959942698478699, -0.6064731478691101, 8.96281909942627, -3.488011360168457, -1.7994937896728516, 6.831099510192871, -1.7275265455245972, -0.03112129680812359, -1.0458984375, 0.102783203125, -0.010498046875, 0, 
165, 1022996573, -0.20000013709068298, -0.5883743166923523, 0.4957720935344696, -0.6066636443138123, 8.990800857543945, -3.5652170181274414, -1.7031819820404053, 6.106472015380859, -0.9253143668174744, 0.01261501107364893, -1.043701171875, 0.106689453125, -0.0087890625, 0, 
166, 1023004906, -0.19993707537651062, -0.5883457064628601, 0.4957296848297119, -0.6067468523979187, 8.94650936126709, -3.5804343223571777, -1.8353767395019531, 2.2337663173675537, -0.2867129445075989, 0.3414633572101593, -1.045166015625, 0.103271484375, -0.010009765625, 0, 
167, 1023013239, -0.19981127977371216, -0.5883536338806152, 0.4956584572792053, -0.6068387031555176, 8.969228744506836, -3.474605083465576, -1.8114999532699585, 3.082570791244507, -0.8290174603462219, 0.45554912090301514, -1.04345703125, 0.10595703125, -0.01123046875, 0, 
168, 1023021572, -0.19964860379695892, -0.5883887410163879, 0.49553418159484863, -0.6069597005844116, 8.920398712158203, -3.5792675018310547, -1.7328438758850098, 4.0895304679870605, -0.9434747695922852, 0.19414310157299042, -1.047119140625, 0.102783203125, -0.009765625, 0, 
169, 1023029905, -0.19954222440719604, -0.5884417295455933, 0.495458722114563, -0.6070049405097961, 8.927895545959473, -3.6383261680603027, -1.6710525751113892, 2.7664525508880615, -1.4397504329681396, -0.17840313911437988, -1.043701171875, 0.103759765625, -0.00830078125, 0, 
170, 1023038238, -0.19948014616966248, -0.5885032415390015, 0.495401531457901, -0.6070125699043274, 8.931986808776855, -3.654324531555176, -1.5529526472091675, 1.9482060670852661, -1.5470999479293823, -0.5784718990325928, -1.04833984375, 0.101318359375, -0.0087890625, 0, 
171, 1023046571, -0.1994936615228653, -0.5885618329048157, 0.4954219460487366, -0.6069347262382507, 8.96733283996582, -3.6390926837921143, -1.552627444267273, 0.17219169437885284, -1.9278298616409302, -0.7778531312942505, -1.04736328125, 0.103515625, -0.01171875, 0, 
172, 1023054904, -0.19955767691135406, -0.5885843634605408, 0.49553561210632324, -0.6067988872528076, 9.030202865600586, -3.5492868423461914, -1.6347832679748535, -1.6087278127670288, -1.9845911264419556, -0.3724566102027893, -1.044677734375, 0.104736328125, -0.0087890625, 0, 
173, 1023063237, -0.19969265162944794, -0.588512122631073, 0.4956951141357422, -0.6066942811012268, 9.053080558776855, -3.475537061691284, -1.8547512292861938, -2.5121545791625977, -0.6078130006790161, 0.151328906416893, -1.04345703125, 0.10400390625, -0.00634765625, 0, 
174, 1023071570, -0.19989223778247833, -0.5884294509887695, 0.49592331051826477, -0.6065223217010498, 8.99562931060791, -3.4691789150238037, -1.8499321937561035, -4.048534393310547, -0.8506743311882019, 0.01310168020427227, -1.04638671875, 0.102783203125, -0.007080078125, 0, 
175, 1023079903, -0.2000085413455963, -0.5883967280387878, 0.49613437056541443, -0.606343150138855, 8.975263595581055, -3.425489664077759, -1.887208104133606, -3.1915335655212402, -1.8093382120132446, 0.2505199909210205, -1.044189453125, 0.102783203125, -0.008056640625, 0, 
176, 1023088236, -0.19988484680652618, -0.588387668132782, 0.4961417019367218, -0.6063864231109619, 9.027676582336426, -3.3079710006713867, -2.1443238258361816, 1.9420840740203857, -1.26260244846344, 1.038285732269287, -1.046875, 0.105224609375, -0.006103515625, 0, 
177, 1023096569, -0.19961011409759521, -0.5884161591529846, 0.4959099292755127, -0.6066389083862305, 9.010666847229004, -3.378263473510742, -2.0445687770843506, 6.777359962463379, -0.27778634428977966, 0.6976677179336548, -1.046142578125, 0.104736328125, -0.008544921875, 0, 
178, 1023104902, -0.1994064897298813, -0.5884578824043274, 0.4957166016101837, -0.6068233251571655, 8.968473434448242, -3.575430393218994, -1.6536757946014404, 5.555535316467285, -0.6172518730163574, 0.08482153713703156, -1.04541015625, 0.103271484375, -0.007080078125, 0, 
179, 1023113235, -0.19929631054401398, -0.5884737968444824, 0.4956303536891937, -0.6069146394729614, 9.015684127807617, -3.617269277572632, -1.573577880859375, 3.097900867462158, -0.7531865835189819, 0.14637255668640137, -1.044189453125, 0.106201171875, -0.0087890625, 0, 
180, 1023121568, -0.19924165308475494, -0.5884491205215454, 0.4955805838108063, -0.606997013092041, 8.999078750610352, -3.650998830795288, -1.6708474159240723, 2.1926684379577637, -0.23434464633464813, 0.1940150409936905, -1.045654296875, 0.103759765625, -0.010009765625, 0, 
181, 1023129901, -0.1992657333612442, -0.5884172320365906, 0.4956258535385132, -0.6069831252098083, 8.946353912353516, -3.6726772785186768, -1.7389490604400635, 0.06671227514743805, -0.6503965258598328, 0.125061497092247, -1.046142578125, 0.104248046875, -0.009033203125, 0, 
182, 1023138234, -0.1993270218372345, -0.58840411901474, 0.49572592973709106, -0.6068938374519348, 8.975296020507812, -3.675753116607666, -1.6434062719345093, -1.0806388854980469, -1.3607817888259888, -0.12066865712404251, -1.045654296875, 0.105712890625, -0.0087890625, 0, 
183, 1023146567, -0.1993863880634308, -0.5884063243865967, 0.49580520391464233, -0.6068074107170105, 8.9609375, -3.6279287338256836, -1.6621345281600952, -0.9037215709686279, -1.3762785196304321, -0.32279062271118164, -1.046630859375, 0.102783203125, -0.009521484375, 0, 
184, 1023154900, -0.19943732023239136, -0.5883856415748596, 0.49584048986434937, -0.6067819595336914, 8.942620277404785, -3.5910346508026123, -1.7160600423812866, -0.21877117455005646, -0.601703941822052, -0.2974068820476532, -1.046630859375, 0.104736328125, -0.009033203125, 0, 
185, 1023163233, -0.19954288005828857, -0.5883460640907288, 0.49593982100486755, -0.6067044734954834, 8.928507804870605, -3.623831272125244, -1.8493821620941162, -1.49853515625, -0.6941713690757751, -0.23800747096538544, -1.04443359375, 0.106689453125, -0.00732421875, 0, 
186, 1023171566, -0.19970226287841797, -0.5882654190063477, 0.49611708521842957, -0.6065853238105774, 8.916116714477539, -3.6285064220428467, -1.9052133560180664, -3.0021162033081055, -0.5419459342956543, 0.08272116631269455, -1.044921875, 0.10400390625, -0.010498046875, 0, 
187, 1023179899, -0.19984175264835358, -0.5882079005241394, 0.4963211715221405, -0.6064283847808838, 8.921242713928223, -3.6393392086029053, -1.832750678062439, -3.23876690864563, -1.2433151006698608, 0.23007988929748535, -1.04296875, 0.106689453125, -0.006103515625, 0, 
188, 1023188232, -0.19993117451667786, -0.5882103443145752, 0.4965212941169739, -0.6062325835227966, 8.947369575500488, -3.619321584701538, -1.8643604516983032, -2.8182318210601807, -2.441420793533325, 0.0531623400747776, -1.044921875, 0.103759765625, -0.00732421875, 0, 
189, 1023196565, -0.1999294012784958, -0.5882524251937866, 0.49662724137306213, -0.606105625629425, 8.921772956848145, -3.6205708980560303, -1.993672490119934, -0.799484372138977, -2.5269086360931396, 0.01785312220454216, -1.04443359375, 0.103515625, -0.00634765625, 0, 
190, 1023204898, -0.19973064959049225, -0.5882886648178101, 0.49659231305122375, -0.6061646342277527, 8.993803024291992, -3.489335298538208, -2.1501073837280273, 3.096543073654175, -1.8935835361480713, 1.0638233423233032, -1.0439453125, 0.103515625, -0.00634765625, 0, 
191, 1023213231, -0.1993955820798874, -0.5883104801177979, 0.4963670074939728, -0.6064382791519165, 8.998462677001953, -3.4963605403900146, -2.1015963554382324, 7.337646484375, -0.48290520906448364, 1.3561328649520874, -1.045654296875, 0.103271484375, -0.009521484375, 0, 
192, 1023221564, -0.19910569489002228, -0.5883272886276245, 0.49613961577415466, -0.6067032217979431, 8.957160949707031, -3.615323543548584, -1.8767733573913574, 6.768087387084961, -0.15045802295207977, 0.9702032208442688, -1.042724609375, 0.102783203125, -0.00830078125, 0, 
193, 1023229897, -0.1988784819841385, -0.5883582234382629, 0.495950311422348, -0.6069024801254272, 8.957880020141602, -3.598903179168701, -1.7271808385849, 5.683478832244873, -0.5225560069084167, 0.48109936714172363, -1.04345703125, 0.106201171875, -0.006591796875, 0, 
194, 1023238230, -0.19860027730464935, -0.5884514451026917, 0.4956885874271393, -0.6071167588233948, 8.997794151306152, -3.5350496768951416, -1.674109935760498, 6.9716949462890625, -1.0879133939743042, -0.09500320255756378, -1.047119140625, 0.1064453125, -0.010009765625, 0, 
195, 1023246563, -0.19831356406211853, -0.5885743498802185, 0.49539312720298767, -0.6073325872421265, 8.967348098754883, -3.582674264907837, -1.6069437265396118, 7.414079189300537, -1.2710039615631104, -0.4648727774620056, -1.04638671875, 0.1044921875, -0.011962890625, 0, 
196, 1023254896, -0.19814983010292053, -0.5886107683181763, 0.495182067155838, -0.60752272605896, 8.989717483520508, -3.6388745307922363, -1.6713465452194214, 5.503231048583984, -0.24935457110404968, -0.35867613554000854, -1.045166015625, 0.105712890625, -0.014404296875, 0, 
197, 1023263229, -0.19805192947387695, -0.5886446833610535, 0.4950292408466339, -0.6076462268829346, 8.96514892578125, -3.631195068359375, -1.6937806606292725, 3.8248069286346436, -0.3789369761943817, -0.5316489934921265, -1.045166015625, 0.104248046875, -0.008544921875, 0, 
198, 1023271562, -0.19796203076839447, -0.588715672492981, 0.4948924481868744, -0.6077181100845337, 8.98624038696289, -3.6378514766693115, -1.6956499814987183, 3.0428178310394287, -0.9739685654640198, -0.8256365656852722, -1.049560546875, 0.103515625, -0.0107421875, 0, 
199, 1023279895, -0.19792644679546356, -0.5887762308120728, 0.49483251571655273, -0.6077198386192322, 8.972278594970703, -3.6361520290374756, -1.7730447053909302, 1.786733627319336, -1.415980577468872, -0.8133544325828552, -1.04443359375, 0.10498046875, -0.0107421875, 0, 
200, 1023288228, -0.197906032204628, -0.5888583660125732, 0.4948299527168274, -0.6076493263244629, 8.928044319152832, -3.6508853435516357, -1.7607228755950928, 0.7236021757125854, -2.2373650074005127, -0.8449240326881409, -1.045166015625, 0.1044921875, -0.010009765625, 0, 
201, 1023296561, -0.19788381457328796, -0.5889556407928467, 0.49485471844673157, -0.6075421571731567, 8.895597457885742, -3.651143789291382, -1.7350220680236816, 0.33062854409217834, -2.7457046508789062, -0.7852683663368225, -1.045166015625, 0.105712890625, -0.00927734375, 0, 
202, 1023304894, -0.19779372215270996, -0.5890295505523682, 0.49480384588241577, -0.6075411438941956, 8.94157886505127, -3.609081745147705, -1.8503857851028442, 2.1122653484344482, -1.9375633001327515, -0.40380844473838806, -1.04736328125, 0.104736328125, -0.007568359375, 0, 
203, 1023313227, -0.19767270982265472, -0.5890880227088928, 0.49471062421798706, -0.607599675655365, 8.927021980285645, -3.6482348442077637, -1.721092700958252, 3.1388325691223145, -1.4295562505722046, -0.19917631149291992, -1.045166015625, 0.104736328125, -0.009521484375, 0, 
204, 1023321560, -0.19750986993312836, -0.5891925692558289, 0.49463117122650146, -0.6076158285140991, 8.942464828491211, -3.596217632293701, -1.6403752565383911, 3.3215389251708984, -2.5461831092834473, -0.2244831621646881, -1.0478515625, 0.105224609375, -0.008544921875, 0, 
205, 1023329893, -0.19728876650333405, -0.5893252491950989, 0.49451586604118347, -0.6076527833938599, 8.991296768188477, -3.5663275718688965, -1.702111005783081, 4.1890668869018555, -2.844998598098755, -0.10645275563001633, -1.046875, 0.104248046875, -0.007080078125, 0, 
206, 1023338226, -0.19711320102214813, -0.5893848538398743, 0.4943733811378479, -0.6077681183815002, 8.972785949707031, -3.5858073234558105, -1.891707420349121, 4.375283241271973, -1.2286893129348755, -0.026690034195780754, -1.047119140625, 0.102783203125, -0.00927734375, 0, 
207, 1023346559, -0.19710186123847961, -0.5893597602844238, 0.4943232238292694, -0.6078369617462158, 8.897311210632324, -3.7237918376922607, -1.8664301633834839, 1.7331743240356445, -0.01985102891921997, -0.17251184582710266, -1.048095703125, 0.103271484375, -0.00927734375, 0, 
208, 1023354892, -0.1972561478614807, -0.589269757270813, 0.4944721460342407, -0.6077529788017273, 8.889250755310059, -3.7454559803009033, -1.9101673364639282, -2.4976956844329834, -0.14087828993797302, 0.0544174462556839, -1.042724609375, 0.106201171875, -0.008056640625, 0, 
209, 1023363225, -0.19737526774406433, -0.5891931056976318, 0.494588702917099, -0.6076937317848206, 8.921688079833984, -3.6505236625671387, -1.947199821472168, -1.7279105186462402, -0.19074919819831848, 0.09204474836587906, -1.048583984375, 0.1044921875, -0.005615234375, 0, 
210, 1023371558, -0.19746820628643036, -0.5891200304031372, 0.4946855306625366, -0.6076557636260986, 8.91877269744873, -3.6976048946380615, -1.862621784210205, -1.0748502016067505, -0.23885275423526764, 0.12992820143699646, -1.042236328125, 0.102294921875, -0.0078125, 0, 
211, 1023379891, -0.19753161072731018, -0.5890921354293823, 0.4948020279407501, -0.6075674295425415, 8.928672790527344, -3.6889421939849854, -1.7826350927352905, -1.342518925666809, -1.2125521898269653, 0.14506621658802032, -1.046630859375, 0.104248046875, -0.010009765625, 0, 
212, 1023388224, -0.19753415882587433, -0.5890638828277588, 0.4948846697807312, -0.6075265407562256, 8.945552825927734, -3.616255760192871, -1.7291783094406128, -0.17499645054340363, -1.1921889781951904, 0.4663968086242676, -1.043212890625, 0.104248046875, -0.00830078125, 0, 
213, 1023396557, -0.19746170938014984, -0.589083731174469, 0.49491292238235474, -0.6075078845024109, 8.943185806274414, -3.5701215267181396, -1.8126229047775269, 1.0984792709350586, -1.7312661409378052, 0.43025508522987366, -1.047119140625, 0.106689453125, -0.009033203125, 0, 
214, 1023404890, -0.19739596545696259, -0.5891194939613342, 0.494991272687912, -0.6074305772781372, 8.966019630432129, -3.575870990753174, -1.8222976922988892, 0.26325032114982605, -2.44242000579834, 0.4839937686920166, -1.04833984375, 0.105224609375, -0.007080078125, 0, 
215, 1023413223, -0.19737061858177185, -0.5891490578651428, 0.4950779676437378, -0.6073394417762756, 8.976649284362793, -3.621799945831299, -1.7750298976898193, -0.23780256509780884, -2.2367374897003174, 0.24788175523281097, -1.044677734375, 0.103271484375, -0.008544921875, 0, 
216, 1023421556, -0.1973767876625061, -0.5891436338424683, 0.4951513111591339, -0.6072829961776733, 9.00632381439209, -3.5945396423339844, -1.8199050426483154, -0.3216635286808014, -1.39651358127594, 0.19355393946170807, -1.044677734375, 0.10546875, -0.00439453125, 0, 
217, 1023429889, -0.19735310971736908, -0.5891568660736084, 0.4951596260070801, -0.6072710752487183, 9.007560729980469, -3.5383684635162354, -1.7568955421447754, 0.8979453444480896, -1.237065076828003, -0.07425566017627716, -1.0458984375, 0.10546875, -0.011962890625, 0, 
218, 1023438222, -0.19734586775302887, -0.5891972780227661, 0.4951639175415039, -0.6072307229042053, 8.99612808227539, -3.5621421337127686, -1.632448434829712, 0.7198752760887146, -1.6011459827423096, -0.5459161996841431, -1.041748046875, 0.106689453125, -0.007080078125, 0, 
219, 1023446555, -0.19742678105831146, -0.5891864895820618, 0.4951908588409424, -0.607192873954773, 8.981659889221191, -3.5971717834472656, -1.5781818628311157, -0.346381276845932, -0.5849010944366455, -0.7044426798820496, -1.045166015625, 0.105224609375, -0.009765625, 0, 
220, 1023454888, -0.19757860898971558, -0.5891053080558777, 0.4952499270439148, -0.6071740984916687, 8.9923677444458, -3.562795400619507, -1.67973792552948, -1.2940824031829834, 0.5566869974136353, -0.5255528688430786, -1.044189453125, 0.104248046875, -0.00830078125, 0, 
221, 1023463221, -0.19774124026298523, -0.5890258550643921, 0.49533647298812866, -0.6071277260780334, 8.946297645568848, -3.5299854278564453, -1.7828121185302734, -1.7507328987121582, 0.3134285807609558, -0.4607487618923187, -1.044677734375, 0.105712890625, -0.00830078125, 0, 
222, 1023471554, -0.1977899968624115, -0.5890120267868042, 0.4953719973564148, -0.6070961356163025, 8.955723762512207, -3.521444797515869, -1.8242038488388062, -0.08952174335718155, -0.7761625647544861, -0.36484915018081665, -1.046142578125, 0.100830078125, -0.01025390625, 0, 
223, 1023479887, -0.1977318674325943, -0.5889847874641418, 0.4952525198459625, -0.6072390079498291, 8.989980697631836, -3.602139711380005, -1.966381311416626, 3.1877684593200684, 0.46817702054977417, -0.12670081853866577, -1.045166015625, 0.106689453125, -0.00927734375, 0, 
224, 1023488220, -0.1976930946111679, -0.5889715552330017, 0.4951193332672119, -0.6073731184005737, 8.910358428955078, -3.677021026611328, -1.9331055879592896, 3.0841076374053955, 0.45278283953666687, -0.5393461585044861, -1.04833984375, 0.106689453125, -0.006591796875, 0, 
225, 1023496553, -0.19766537845134735, -0.5890083312988281, 0.49507391452789307, -0.6073836088180542, 8.92920207977295, -3.6507985591888428, -1.9131571054458618, 1.5965863466262817, -1.1337499618530273, -0.5762049555778503, -1.0458984375, 0.105712890625, -0.00830078125, 0, 
226, 1023504886, -0.19760538637638092, -0.5890774726867676, 0.4950016140937805, -0.607394814491272, 8.921863555908203, -3.6872503757476807, -1.737910270690918, 2.0822322368621826, -1.5203970670700073, -0.7529944181442261, -1.047607421875, 0.10498046875, -0.010498046875, 0, 
227, 1023513219, -0.1976204216480255, -0.5891076326370239, 0.4949667751789093, -0.6073890328407288, 8.93967342376709, -3.760221004486084, -1.622214674949646, 1.0326251983642578, -0.9475473761558533, -0.8465248942375183, -1.047607421875, 0.100341796875, -0.009765625, 0, 
228, 1023521552, -0.19771231710910797, -0.5890892744064331, 0.4950031638145447, -0.6073473691940308, 8.966196060180664, -3.746380090713501, -1.6844229698181152, -0.3929223418235779, -0.5878210663795471, -0.7430689334869385, -1.045654296875, 0.105712890625, -0.00927734375, 0, 
229, 1023529885, -0.19781528413295746, -0.5890758037567139, 0.4950316846370697, -0.6073036789894104, 8.938342094421387, -3.7375314235687256, -1.6887431144714355, -0.5856566429138184, -0.4638865888118744, -0.873509407043457, -1.046875, 0.104248046875, -0.006591796875, 0, 
230, 1023538218, -0.19795359671115875, -0.58905029296875, 0.49510347843170166, -0.6072248220443726, 8.925928115844727, -3.7340149879455566, -1.6710020303726196, -1.501275897026062, -0.541612982749939, -0.8633021712303162, -1.044921875, 0.106201171875, -0.00732421875, 0, 
231, 1023546551, -0.19806359708309174, -0.5890488624572754, 0.4951997995376587, -0.6071116924285889, 8.93348503112793, -3.694243907928467, -1.7229421138763428, -1.6477895975112915, -1.2622696161270142, -0.653009295463562, -1.04638671875, 0.10302734375, -0.010986328125, 0, 
232, 1023554884, -0.1981641799211502, -0.589042603969574, 0.4953263998031616, -0.6069817543029785, 8.942567825317383, -3.624516010284424, -1.7448222637176514, -1.8586970567703247, -1.5612132549285889, -0.39310169219970703, -1.04638671875, 0.103515625, -0.006103515625, 0, 
233, 1023563217, -0.1981848031282425, -0.5890567302703857, 0.4954160451889038, -0.6068881154060364, 8.891071319580078, -3.5494298934936523, -1.8807613849639893, -0.6916611194610596, -1.824988603591919, -0.01493309810757637, -1.04541015625, 0.104736328125, -0.0068359375, 0, 
234, 1023571550, -0.19814635813236237, -0.5890538692474365, 0.4954706132411957, -0.6068589091300964, 8.930929183959961, -3.4706225395202637, -1.9003609418869019, 0.68260657787323, -1.573277473449707, 0.4131447970867157, -1.04345703125, 0.10302734375, -0.00537109375, 0, 
235, 1023579883, -0.19807812571525574, -0.5890786051750183, 0.49553701281547546, -0.6068029403686523, 8.937480926513672, -3.371227502822876, -1.9951844215393066, 0.5052280426025391, -2.1509552001953125, 0.5678291916847229, -1.047119140625, 0.106201171875, -0.006103515625, 0, 
236, 1023588216, -0.19792872667312622, -0.5891095995903015, 0.4954852759838104, -0.6068638563156128, 8.986825942993164, -3.373948574066162, -1.9961977005004883, 3.063014507293701, -1.541285514831543, 0.5145772099494934, -1.044921875, 0.104736328125, -0.0068359375, 0, 
237, 1023596549, -0.19794495403766632, -0.589085578918457, 0.4954693019390106, -0.6068949699401855, 8.9298095703125, -3.6013059616088867, -1.8735368251800537, 0.9701263308525085, -0.24038957059383392, -0.23352497816085815, -1.04638671875, 0.104736328125, -0.007568359375, 0, 
238, 1023604882, -0.19810400903224945, -0.5890477895736694, 0.49559566378593445, -0.6067764759063721, 8.937528610229492, -3.721696615219116, -1.7278714179992676, -2.43276309967041, -0.7652252316474915, -0.617431104183197, -1.044189453125, 0.105712890625, -0.0087890625, 0, 
239, 1023613215, -0.19824500381946564, -0.5890334248542786, 0.49570614099502563, -0.606654167175293, 8.944746971130371, -3.7512354850769043, -1.6580183506011963, -2.11506986618042, -1.0561517477035522, -0.7342833280563354, -1.045166015625, 0.10546875, -0.00537109375, 0, 
240, 1023621548, -0.19838109612464905, -0.5890108346939087, 0.49582579731941223, -0.6065337061882019, 8.930459976196289, -3.7531049251556396, -1.5720698833465576, -2.2576897144317627, -1.0082788467407227, -0.5699936151504517, -1.04736328125, 0.105712890625, -0.008056640625, 0, 
241, 1023629881, -0.1984887272119522, -0.588967502117157, 0.49593520164489746, -0.6064512729644775, 8.886177062988281, -3.7081234455108643, -1.7039821147918701, -1.642999529838562, -0.7157385945320129, -0.15929493308067322, -1.046630859375, 0.105712890625, -0.008544921875, 0, 
242, 1023638214, -0.19846636056900024, -0.5888804793357849, 0.4959051012992859, -0.6065676212310791, 8.941259384155273, -3.596313714981079, -1.9021437168121338, 1.8912142515182495, 0.7021245956420898, 0.5906515717506409, -1.044677734375, 0.102294921875, -0.009033203125, 0, 
243, 1023646547, -0.19831810891628265, -0.5888761878013611, 0.4957644045352936, -0.6067352890968323, 8.940051078796387, -3.570413827896118, -1.8564832210540771, 4.326897621154785, -0.08042870461940765, 0.36675748229026794, -1.0419921875, 0.103271484375, -0.0068359375, 0, 
244, 1023654880, -0.19820815324783325, -0.5889037251472473, 0.49568650126457214, -0.6068080067634583, 8.919065475463867, -3.6391685009002686, -1.8107799291610718, 2.9462385177612305, -1.0420125722885132, 0.04517069831490517, -1.043701171875, 0.104736328125, -0.00927734375, 0, 
245, 1023663213, -0.19820477068424225, -0.5888507962226868, 0.4956887662410736, -0.6068586707115173, 8.979328155517578, -3.653250217437744, -1.9043800830841064, 1.0311393737792969, -0.023846851661801338, 0.3278237581253052, -1.047119140625, 0.105224609375, -0.009033203125, 0, 
246, 1023671546, -0.19817356765270233, -0.5888094305992126, 0.4956970810890198, -0.6069021821022034, 8.977911949157715, -3.591299295425415, -1.876476764678955, 1.0846859216690063, -0.356742262840271, 0.5016291737556458, -1.042236328125, 0.103271484375, -0.0087890625, 0, 
247, 1023679879, -0.19809496402740479, -0.5888155102729797, 0.4956655204296112, -0.606947660446167, 8.985651969909668, -3.5793471336364746, -1.728441596031189, 2.0485498905181885, -0.9783486127853394, 0.2657989263534546, -1.043212890625, 0.101806640625, -0.009033203125, 0, 
248, 1023688212, -0.19806447625160217, -0.588809609413147, 0.4956377446651459, -0.6069862246513367, 8.963892936706543, -3.596778631210327, -1.6746667623519897, 1.3657124042510986, -0.5574169754981995, -0.0368332713842392, -1.042236328125, 0.105712890625, -0.007568359375, 0, 
249, 1023696545, -0.1981331706047058, -0.5887489318847656, 0.4956539273262024, -0.6070094108581543, 8.978484153747559, -3.5796687602996826, -1.7198009490966797, 0.12224392592906952, 0.2730349004268646, -0.1836540549993515, -1.04296875, 0.104736328125, -0.0068359375, 0, 
250, 1023704878, -0.19830752909183502, -0.5886383056640625, 0.4957287013530731, -0.6069986820220947, 8.984251022338867, -3.577576160430908, -1.7789223194122314, -1.598814845085144, 0.9645167589187622, -0.37010008096694946, -1.04248046875, 0.103271484375, -0.01025390625, 0, 
251, 1023713211, -0.198463574051857, -0.5886176824569702, 0.49583110213279724, -0.6068839430809021, 8.917764663696289, -3.5317318439483643, -1.8062090873718262, -2.135727643966675, -0.8184899687767029, -0.8645700216293335, -1.043212890625, 0.102783203125, -0.00830078125, 0, 
252, 1023721544, -0.19840192794799805, -0.5887408256530762, 0.495858758687973, -0.6067622303962708, 9.008689880371094, -3.4234323501586914, -1.7316769361495972, 0.5001051425933838, -3.329005002975464, -0.6610009074211121, -1.042236328125, 0.101318359375, -0.00830078125, 0, 
253, 1023729877, -0.1982409805059433, -0.5888780951499939, 0.49576041102409363, -0.6067620515823364, 9.066882133483887, -3.3581061363220215, -1.710268259048462, 3.3183882236480713, -2.8205628395080566, -0.6067500114440918, -1.046875, 0.104736328125, -0.006591796875, 0, 
254, 1023738210, -0.1981733739376068, -0.5889622569084167, 0.49565643072128296, -0.6067872643470764, 8.993315696716309, -3.4915833473205566, -1.6675761938095093, 2.501089334487915, -1.4826544523239136, -1.0034377574920654, -1.045654296875, 0.1015625, -0.004150390625, 0, 
255, 1023746543, -0.19821809232234955, -0.5890108346939087, 0.4956256151199341, -0.6067506670951843, 8.980353355407715, -3.598886013031006, -1.7392600774765015, 0.5988993048667908, -1.1571232080459595, -1.271106481552124, -1.04638671875, 0.10498046875, -0.00341796875, 0, 
256, 1023754876, -0.19826368987560272, -0.5890842080116272, 0.49559295177459717, -0.6066911816596985, 8.980782508850098, -3.6580779552459717, -1.7621678113937378, 0.5116571187973022, -1.5518126487731934, -1.5524019002914429, -1.044921875, 0.102783203125, -0.010498046875, 0, 
257, 1023763209, -0.19835852086544037, -0.5891536474227905, 0.4955734610557556, -0.6066088080406189, 8.985613822937012, -3.687896251678467, -1.7515301704406738, -0.15599068999290466, -1.39246666431427, -1.864050269126892, -1.046875, 0.104736328125, -0.007080078125, 0, 
258, 1023771542, -0.19848255813121796, -0.5891754031181335, 0.4955461025238037, -0.6065692901611328, 8.996709823608398, -3.651782989501953, -1.8076990842819214, -0.0354757122695446, -0.49535366892814636, -1.7847230434417725, -1.044189453125, 0.102294921875, -0.007568359375, 0, 
259, 1023779875, -0.1985570639371872, -0.5891533493995667, 0.49544984102249146, -0.606644868850708, 8.992032051086426, -3.5268185138702393, -1.9164175987243652, 1.4760586023330688, 0.721975564956665, -1.262448787689209, -1.043701171875, 0.103271484375, -0.00830078125, 0, 
260, 1023788208, -0.1984686553478241, -0.5891757011413574, 0.4951985776424408, -0.606857180595398, 9.00352954864502, -3.46104097366333, -1.85944402217865, 5.199676990509033, 0.7331690788269043, -1.1276923418045044, -1.048095703125, 0.102783203125, -0.00927734375, 0, 
261, 1023796541, -0.1983790546655655, -0.5892156958580017, 0.49493712186813354, -0.6070607900619507, 8.957911491394043, -3.574827194213867, -1.8062238693237305, 5.225777626037598, 0.5749499797821045, -1.3049941062927246, -1.0458984375, 0.102294921875, -0.008056640625, 0, 
262, 1023804874, -0.19836567342281342, -0.5891868472099304, 0.49474939703941345, -0.607246458530426, 8.968584060668945, -3.6374969482421875, -1.8375589847564697, 3.626373767852783, 1.3251140117645264, -0.9426293969154358, -1.048095703125, 0.102783203125, -0.00927734375, 0, 
263, 1023813207, -0.1984383910894394, -0.5891254544258118, 0.49461936950683594, -0.6073881983757019, 8.94802474975586, -3.6458733081817627, -1.7477381229400635, 2.1148006916046143, 1.665040373802185, -1.0734412670135498, -1.046630859375, 0.102783203125, -0.009765625, 0, 
264, 1023821540, -0.19861480593681335, -0.5890313386917114, 0.49456557631492615, -0.607465386390686, 8.917664527893066, -3.661196231842041, -1.7062664031982422, 0.08986753970384598, 1.9047129154205322, -1.300690770149231, -1.04638671875, 0.1044921875, -0.011962890625, 0, 
265, 1023829873, -0.19887256622314453, -0.5889305472373962, 0.4946245849132538, -0.6074308156967163, 8.875641822814941, -3.6796352863311768, -1.7565191984176636, -2.269216299057007, 1.3078501224517822, -1.3029448986053467, -1.044921875, 0.101318359375, -0.010986328125, 0, 
266, 1023838206, -0.1992131620645523, -0.5888022780418396, 0.4947964549064636, -0.6073037981987, 8.871716499328613, -3.681574821472168, -1.7822483777999878, -4.538407325744629, 1.0077024698257446, -1.1835569143295288, -1.045654296875, 0.100341796875, -0.0087890625, 0, 
267, 1023846539, -0.19960321485996246, -0.5886358022689819, 0.49503377079963684, -0.6071436405181885, 8.892257690429688, -3.7028746604919434, -1.773681640625, -5.863278388977051, 1.2513196468353271, -0.8597418665885925, -1.044921875, 0.10400390625, -0.010498046875, 0, 
268, 1023854872, -0.19989508390426636, -0.588521420955658, 0.4952816665172577, -0.6069563031196594, 8.879720687866211, -3.6979122161865234, -1.6369619369506836, -5.118107795715332, -0.14886993169784546, -0.42637452483177185, -1.04638671875, 0.101318359375, -0.0107421875, 0, 
269, 1023863205, -0.19999046623706818, -0.5885680913925171, 0.4955292046070099, -0.6066774725914001, 8.895252227783203, -3.595093011856079, -1.694803237915039, -3.787781238555908, -3.520906686782837, -0.09461896866559982, -1.045166015625, 0.101318359375, -0.008056640625, 0, 
270, 1023871538, -0.1999504566192627, -0.5886390209197998, 0.495689332485199, -0.606490969657898, 8.922347068786621, -3.561337947845459, -2.004732847213745, -1.2588627338409424, -3.681636333465576, 0.3844824433326721, -1.045166015625, 0.104248046875, -0.009033203125, 0, 
271, 1023879871, -0.1999107003211975, -0.5886572003364563, 0.49577590823173523, -0.6064155101776123, 8.923237800598145, -3.6239993572235107, -2.0796639919281006, 0.06999089568853378, -2.179335832595825, 0.4340972304344177, -1.04833984375, 0.103271484375, -0.0087890625, 0, 
272, 1023888204, -0.199956476688385, -0.588641881942749, 0.4958658516407013, -0.6063418388366699, 8.901341438293457, -3.6674628257751465, -1.910796046257019, -0.8440659046173096, -1.2484122514724731, 0.029161807149648666, -1.0458984375, 0.1025390625, -0.007080078125, 0, 
273, 1023896537, -0.20003345608711243, -0.588660717010498, 0.49598896503448486, -0.6061975955963135, 8.917683601379395, -3.6532070636749268, -1.742935299873352, -1.759774923324585, -1.9861791133880615, -0.3889777660369873, -1.04541015625, 0.10498046875, -0.010498046875, 0, 
274, 1023904870, -0.2000502347946167, -0.5887516140937805, 0.49607235193252563, -0.6060354113578796, 8.93563175201416, -3.61991286277771, -1.6743921041488647, -1.072826623916626, -2.9591355323791504, -0.7348979711532593, -1.04541015625, 0.1044921875, -0.010986328125, 0, 
275, 1023913203, -0.20005741715431213, -0.5888081789016724, 0.49616262316703796, -0.6059043407440186, 8.951831817626953, -3.6142735481262207, -1.7943263053894043, -0.7269831895828247, -2.5760490894317627, -0.293820858001709, -1.0478515625, 0.10205078125, -0.00732421875, 0, 
276, 1023921536, -0.19998712837696075, -0.5888056755065918, 0.496135950088501, -0.6059516668319702, 8.97232437133789, -3.5456185340881348, -1.9702653884887695, 2.078787326812744, -0.9232907891273499, 0.24106837809085846, -1.04736328125, 0.10107421875, -0.00732421875, 0, 
277, 1023929869, -0.19985593855381012, -0.5888360738754272, 0.4960041046142578, -0.6060735583305359, 8.930882453918457, -3.562412738800049, -1.886946201324463, 3.89719295501709, -0.646016538143158, -0.06557244062423706, -1.0458984375, 0.103271484375, -0.007568359375, 0, 
278, 1023938202, -0.19980745017528534, -0.5888357162475586, 0.49594971537590027, -0.6061342358589172, 8.95971393585205, -3.614811897277832, -1.761389136314392, 2.1676430702209473, -0.5814943909645081, -0.12907013297080994, -1.044677734375, 0.102783203125, -0.008544921875, 0, 
279, 1023946535, -0.19978687167167664, -0.5887733101844788, 0.4959220588207245, -0.6062241792678833, 9.010075569152832, -3.5318946838378906, -1.7974284887313843, 1.6603020429611206, 0.3382488191127777, 0.4029247760772705, -1.05029296875, 0.101806640625, -0.008544921875, 0, 
280, 1023954868, -0.1997063010931015, -0.5887308716773987, 0.4958541989326477, -0.6063475608825684, 8.973878860473633, -3.497115135192871, -1.7702604532241821, 2.7792983055114746, 0.12202621251344681, 0.5018596649169922, -1.04736328125, 0.103759765625, -0.008056640625, 0, 
281, 1023963201, -0.1996053010225296, -0.5887018442153931, 0.495818167924881, -0.6064384579658508, 8.988503456115723, -3.505527973175049, -1.8188976049423218, 2.4790608882904053, -0.4554978907108307, 0.7793003916740417, -1.044921875, 0.104736328125, -0.0078125, 0, 
282, 1023971534, -0.19952601194381714, -0.5886681079864502, 0.49579453468322754, -0.6065164804458618, 8.973686218261719, -3.502236843109131, -1.815793752670288, 2.120974063873291, -0.4318816363811493, 0.6648302674293518, -1.04296875, 0.101806640625, -0.009765625, 0, 
283, 1023979867, -0.1994619071483612, -0.5886504054069519, 0.49576860666275024, -0.6065760254859924, 8.976297378540039, -3.5421369075775146, -1.7219853401184082, 1.9142673015594482, -0.5807259678840637, 0.3907580077648163, -1.046875, 0.101318359375, -0.0107421875, 0, 
284, 1023988200, -0.19942939281463623, -0.5886417627334595, 0.49577003717422485, -0.6065938472747803, 8.995150566101074, -3.5362865924835205, -1.6535229682922363, 1.2567752599716187, -0.905847430229187, 0.1290317177772522, -1.0458984375, 0.104736328125, -0.008056640625, 0, 
285, 1023996533, -0.19949087500572205, -0.5885917544364929, 0.4958309233188629, -0.6065724492073059, 9.025821685791016, -3.5238184928894043, -1.6942722797393799, -0.4668706953525543, -0.34866100549697876, 0.04424859583377838, -1.04443359375, 0.1025390625, -0.010986328125, 0, 
286, 1024004866, -0.19962015748023987, -0.5885319709777832, 0.49593332409858704, -0.6065041422843933, 9.011363983154297, -3.506150245666504, -1.7069255113601685, -1.735825538635254, -0.3027603030204773, -0.2696154713630676, -1.045166015625, 0.101806640625, -0.010009765625, 0, 
287, 1024013199, -0.1997068077325821, -0.5885196328163147, 0.4959867596626282, -0.6064439415931702, 8.980581283569336, -3.464308500289917, -1.6488378047943115, -0.7694772481918335, -0.7863314151763916, -0.5894091725349426, -1.04443359375, 0.105224609375, -0.0068359375, 0, 
288, 1024021532, -0.19972793757915497, -0.5885840058326721, 0.4960096776485443, -0.6063559055328369, 8.990742683410645, -3.4901909828186035, -1.5613229274749756, 0.14322200417518616, -2.0727295875549316, -0.936815083026886, -1.04736328125, 0.101806640625, -0.00830078125, 0, 
289, 1024029865, -0.1997804194688797, -0.5886451005935669, 0.49607425928115845, -0.6062263250350952, 8.972099304199219, -3.525794267654419, -1.6242575645446777, -0.8578206896781921, -2.2225723266601562, -0.9051557779312134, -1.047119140625, 0.100830078125, -0.00830078125, 0, 
290, 1024038198, -0.19981838762760162, -0.5887232422828674, 0.4961940050125122, -0.6060398817062378, 8.986113548278809, -3.487830877304077, -1.7810338735580444, -1.6428972482681274, -3.0506043434143066, -0.6172775030136108, -1.04736328125, 0.103271484375, -0.00830078125, 0, 
291, 1024046531, -0.19978085160255432, -0.588753879070282, 0.49620774388313293, -0.606011152267456, 9.039778709411621, -3.425602674484253, -1.9465068578720093, 0.8984705209732056, -1.627541184425354, -0.08113308250904083, -1.047607421875, 0.10302734375, -0.005615234375, 0, 
292, 1024054864, -0.19971752166748047, -0.5887486934661865, 0.4960915148258209, -0.6061322689056396, 9.010263442993164, -3.464602470397949, -2.024393320083618, 3.0367722511291504, 0.08153010904788971, -0.2751352787017822, -1.044921875, 0.10205078125, -0.007080078125, 0, 
293, 1024063197, -0.19962716102600098, -0.5887734889984131, 0.49592819809913635, -0.6062715649604797, 8.950788497924805, -3.529508590698242, -2.0370006561279297, 3.9324123859405518, -0.09185264259576797, -0.5734258890151978, -1.04541015625, 0.104248046875, -0.0068359375, 0, 
294, 1024071530, -0.19951090216636658, -0.5888797044754028, 0.4957711696624756, -0.606334924697876, 8.969407081604004, -3.575009346008301, -1.9466172456741333, 3.772554397583008, -1.5844711065292358, -1.0914226770401, -1.045166015625, 0.101318359375, -0.008544921875, 0, 
295, 1024079863, -0.1994367390871048, -0.5889512896537781, 0.49562397599220276, -0.6064102649688721, 8.991312026977539, -3.633653163909912, -1.7751730680465698, 3.359088659286499, -0.9346120357513428, -1.073799729347229, -1.046630859375, 0.099853515625, -0.0087890625, 0, 
296, 1024088196, -0.19947592914104462, -0.5889593362808228, 0.4955485761165619, -0.606451153755188, 9.016042709350586, -3.7415435314178467, -1.6574047803878784, 1.4335904121398926, -0.12264096736907959, -1.1232099533081055, -1.05126953125, 0.10009765625, -0.007568359375, 0, 
297, 1024096529, -0.19955313205718994, -0.5889258980751038, 0.49553564190864563, -0.6064687371253967, 9.023404121398926, -3.6553101539611816, -1.7122832536697388, 0.33135855197906494, 0.13689526915550232, -0.6908159255981445, -1.0478515625, 0.1025390625, -0.0126953125, 0, 
298, 1024104862, -0.1996048390865326, -0.5888805389404297, 0.4954811930656433, -0.6065403819084167, 9.025972366333008, -3.6269426345825195, -1.8060429096221924, 1.1427663564682007, 0.6324539184570312, -0.5940709710121155, -1.046630859375, 0.104248046875, -0.009033203125, 0, 
299, 1024113195, -0.19967079162597656, -0.5888609290122986, 0.49542945623397827, -0.6065800189971924, 8.974114418029785, -3.64274263381958, -1.8403620719909668, 0.9364181160926819, 0.2310532182455063, -0.9444225430488586, -1.0478515625, 0.102783203125, -0.00732421875, 0, 
300, 1024121528, -0.19974783062934875, -0.588858962059021, 0.49542468786239624, -0.6065605282783508, 8.932950973510742, -3.5910422801971436, -1.8711907863616943, 0.02631862461566925, -0.43631285429000854, -0.9500575661659241, -1.048583984375, 0.101806640625, -0.009765625, 0, 
301, 1024129861, -0.19973322749137878, -0.5889115929603577, 0.49537304043769836, -0.606556236743927, 8.946568489074707, -3.550081729888916, -1.8256285190582275, 1.4864325523376465, -1.2766391038894653, -0.8844084143638611, -1.044677734375, 0.100341796875, -0.008056640625, 0, 
302, 1024138194, -0.19973111152648926, -0.5889663696289062, 0.4952933192253113, -0.6065688133239746, 8.971451759338379, -3.6250414848327637, -1.7545098066329956, 1.6768743991851807, -0.987044632434845, -1.1992074251174927, -1.04345703125, 0.101318359375, -0.010009765625, 0, 
303, 1024146527, -0.19978399574756622, -0.5889953970909119, 0.49528610706329346, -0.6065290570259094, 8.93699836730957, -3.6367557048797607, -1.7269036769866943, 0.26310938596725464, -1.028936505317688, -1.0232245922088623, -1.044921875, 0.101806640625, -0.007568359375, 0, 
304, 1024154860, -0.19982528686523438, -0.5890430212020874, 0.4952890872955322, -0.6064669489860535, 8.959136962890625, -3.5647151470184326, -1.630028486251831, 0.22721107304096222, -1.512110710144043, -1.071238398551941, -1.04638671875, 0.1005859375, -0.0078125, 0, 
305, 1024163193, -0.19989556074142456, -0.5890555381774902, 0.4953039586544037, -0.6064194440841675, 8.965094566345215, -3.5373024940490723, -1.6849379539489746, -0.1616770476102829, -0.8962676525115967, -0.8988803625106812, -1.046142578125, 0.101318359375, -0.00830078125, 0, 
306, 1024171526, -0.19993725419044495, -0.589057207107544, 0.4952816963195801, -0.6064223647117615, 8.945674896240234, -3.525557518005371, -1.7953063249588013, 0.5649346709251404, -0.4533463418483734, -0.7511117458343506, -1.047119140625, 0.103759765625, -0.009033203125, 0, 
307, 1024179859, -0.19993376731872559, -0.5891218185424805, 0.4952321946620941, -0.606401264667511, 8.956619262695312, -3.507498264312744, -1.7331775426864624, 1.2960673570632935, -1.442516803741455, -1.0868631601333618, -1.046142578125, 0.100341796875, -0.01025390625, 0, 
308, 1024188192, -0.1998712718486786, -0.5891983509063721, 0.4951724708080292, -0.6063961982727051, 8.974898338317871, -3.4990878105163574, -1.7851506471633911, 2.0694892406463623, -1.8314433097839355, -0.7557223439216614, -1.04736328125, 0.100830078125, -0.00830078125, 0, 
309, 1024196525, -0.19987361133098602, -0.5892219543457031, 0.49514248967170715, -0.6063969135284424, 8.9518404006958, -3.5578670501708984, -1.8889013528823853, 1.1226847171783447, -0.9387617111206055, -0.6415597796440125, -1.044921875, 0.102783203125, -0.007080078125, 0, 
310, 1024204858, -0.19989416003227234, -0.589213490486145, 0.4951099753379822, -0.6064249277114868, 8.959200859069824, -3.5834882259368896, -1.898736596107483, 1.0784106254577637, -0.3288995921611786, -0.5393461585044861, -1.044677734375, 0.101318359375, -0.009521484375, 0, 
311, 1024213191, -0.19993482530117035, -0.5891587734222412, 0.4951188564300537, -0.6064574718475342, 8.979164123535156, -3.5996389389038086, -1.9328409433364868, 0.4888477027416229, 0.1269441545009613, -0.022220348939299583, -1.047607421875, 0.099365234375, -0.009033203125, 0, 
312, 1024221524, -0.19989904761314392, -0.5891025066375732, 0.49509501457214355, -0.6065433621406555, 8.995543479919434, -3.527148485183716, -2.010098695755005, 1.8442121744155884, 0.08561556786298752, 0.46193990111351013, -1.04833984375, 0.10009765625, -0.011962890625, 0, 
313, 1024229857, -0.19980235397815704, -0.5890608429908752, 0.49497154355049133, -0.6067165732383728, 8.979009628295898, -3.5595755577087402, -1.8862693309783936, 3.6981444358825684, 0.5862969756126404, 0.3483920097351074, -1.046875, 0.098388671875, -0.011474609375, 0, 
314, 1024238190, -0.19973094761371613, -0.5890328884124756, 0.49487265944480896, -0.6068475246429443, 8.93644905090332, -3.6135995388031006, -1.6978871822357178, 3.1745128631591797, 0.16414882242679596, 0.07485760748386383, -1.04541015625, 0.103515625, -0.010498046875, 0, 
315, 1024246523, -0.1996995061635971, -0.5890180468559265, 0.4947971701622009, -0.6069338917732239, 8.935151100158691, -3.6478333473205566, -1.6139965057373047, 2.253476142883301, -0.02838057093322277, -0.2297852784395218, -1.04638671875, 0.103515625, -0.010986328125, 0, 
316, 1024254856, -0.19969764351844788, -0.589020848274231, 0.4947960376739502, -0.6069327592849731, 8.973191261291504, -3.651261568069458, -1.5865434408187866, 0.9182573556900024, -0.932998538017273, -0.2738417685031891, -1.046875, 0.100830078125, -0.0078125, 0, 
317, 1024263189, -0.19974227249622345, -0.5890373587608337, 0.49485310912132263, -0.6068555116653442, 8.977925300598145, -3.6388368606567383, -1.574970006942749, -0.4963269531726837, -1.4606260061264038, -0.45188626646995544, -1.047119140625, 0.099609375, -0.00830078125, 0, 
318, 1024271522, -0.19983455538749695, -0.5890077352523804, 0.4949564039707184, -0.6067696213722229, 8.999458312988281, -3.5617356300354004, -1.675845980644226, -1.3674671649932861, -1.0037963390350342, -0.2294011116027832, -1.044189453125, 0.102783203125, -0.009033203125, 0, 
319, 1024279855, -0.19991731643676758, -0.5889853835105896, 0.4950488805770874, -0.6066886186599731, 8.96824836730957, -3.495107889175415, -1.6757036447525024, -1.2327618598937988, -1.0047951936721802, -0.22965721786022186, -1.047119140625, 0.09912109375, -0.00537109375, 0, 
320, 1024288188, -0.19991320371627808, -0.5890002250671387, 0.49508965015411377, -0.6066423654556274, 8.949509620666504, -3.463871479034424, -1.8080958127975464, 0.06968352943658829, -1.4311952590942383, -0.0733591690659523, -1.046142578125, 0.09765625, -0.0087890625, 0, 
321, 1024296521, -0.1998262107372284, -0.5890684127807617, 0.49506470561027527, -0.6066251993179321, 8.985556602478027, -3.4887709617614746, -1.8436528444290161, 1.8045870065689087, -2.075291156768799, -0.20619459450244904, -1.0458984375, 0.098876953125, -0.01123046875, 0, 
322, 1024304854, -0.1997435986995697, -0.589155912399292, 0.4950268268585205, -0.6065980792045593, 8.976585388183594, -3.593751907348633, -1.8191347122192383, 1.6510294675827026, -2.184842824935913, -0.48692652583122253, -1.0458984375, 0.0986328125, -0.005859375, 0, 
323, 1024313187, -0.19978384673595428, -0.5891958475112915, 0.4950481951236725, -0.6065285205841064, 8.958102226257324, -3.6525070667266846, -1.7579013109207153, -0.0464642196893692, -1.5258655548095703, -0.8437840938568115, -1.046142578125, 0.100341796875, -0.00830078125, 0, 
324, 1024321520, -0.19980506598949432, -0.5892201662063599, 0.4950729310512543, -0.6064779758453369, 8.955458641052246, -3.5677595138549805, -1.756001353263855, 0.3987240195274353, -1.4945138692855835, -0.5690202116966248, -1.042724609375, 0.102783203125, -0.00830078125, 0, 
325, 1024329853, -0.19969671964645386, -0.5892952084541321, 0.49503079056739807, -0.6064751744270325, 8.991488456726074, -3.5115883350372314, -1.8172615766525269, 2.237352132797241, -2.113468885421753, -0.17480434477329254, -1.0478515625, 0.10205078125, -0.00732421875, 0, 
326, 1024338186, -0.19958209991455078, -0.5893576741218567, 0.49498251080513, -0.6064916253089905, 8.98150634765625, -3.536255359649658, -1.8826528787612915, 2.5437495708465576, -1.9417001008987427, -0.07926324754953384, -1.048095703125, 0.101806640625, -0.009765625, 0, 
327, 1024346519, -0.19953611493110657, -0.5893659591674805, 0.49494728446006775, -0.6065273880958557, 9.014778137207031, -3.535020351409912, -2.056805372238159, 1.7553690671920776, -0.840620756149292, -0.0777520090341568, -1.04833984375, 0.104248046875, -0.00830078125, 0, 
328, 1024354852, -0.19945168495178223, -0.5894103050231934, 0.4948480427265167, -0.6065931916236877, 8.983258247375488, -3.5378615856170654, -1.9382251501083374, 2.7443604469299316, -0.9364179968833923, -0.43225306272506714, -1.04638671875, 0.098388671875, -0.0107421875, 0, 
329, 1024363185, -0.19937564432621002, -0.5894550085067749, 0.49474021792411804, -0.6066627502441406, 8.953581809997559, -3.6127636432647705, -1.7393674850463867, 2.9326376914978027, -0.8761093616485596, -0.571607232093811, -1.0478515625, 0.104248046875, -0.008544921875, 0, 
330, 1024371518, -0.19928918778896332, -0.5894603133201599, 0.4946465492248535, -0.6067624092102051, 9.007599830627441, -3.577610492706299, -1.7409355640411377, 3.1832985877990723, -0.5060860514640808, -0.07886623591184616, -1.04638671875, 0.098388671875, -0.011474609375, 0, 
331, 1024379851, -0.19911836087703705, -0.589497447013855, 0.494497150182724, -0.6069042086601257, 9.007022857666016, -3.5225090980529785, -1.5997904539108276, 4.518850803375244, -0.7590266466140747, 0.13118329644203186, -1.046630859375, 0.102294921875, -0.00927734375, 0, 
332, 1024388184, -0.19894851744174957, -0.5895182490348816, 0.4943198561668396, -0.6070837378501892, 8.97443675994873, -3.503567695617676, -1.6227787733078003, 5.046836853027344, -0.28877487778663635, 0.06863334029912949, -1.04443359375, 0.10009765625, -0.005615234375, 0, 
333, 1024396517, -0.19885285198688507, -0.5894981026649475, 0.49417394399642944, -0.6072534918785095, 8.981470108032227, -3.5036962032318115, -1.6770236492156982, 3.9146103858947754, 0.448799729347229, -0.000563513080123812, -1.047119140625, 0.100341796875, -0.009765625, 0, 
334, 1024404850, -0.19880913197994232, -0.589490532875061, 0.49404218792915344, -0.6073822379112244, 8.922574996948242, -3.5537126064300537, -1.7032747268676758, 3.008225440979004, 0.3576899468898773, -0.5174075365066528, -1.045654296875, 0.101318359375, -0.009765625, 0, 
335, 1024413183, -0.1987611949443817, -0.5895132422447205, 0.4939234256744385, -0.6074725389480591, 8.954700469970703, -3.575990915298462, -1.7852767705917358, 2.877413749694824, -0.3028627336025238, -0.6876141428947449, -1.0458984375, 0.100830078125, -0.01025390625, 0, 
336, 1024421516, -0.19872236251831055, -0.5895668268203735, 0.4938628673553467, -0.6074825525283813, 8.962640762329102, -3.587594985961914, -1.778220534324646, 1.9183909893035889, -1.3524316549301147, -0.7587193250656128, -1.044921875, 0.10205078125, -0.011962890625, 0, 
337, 1024429849, -0.19875237345695496, -0.5895649194717407, 0.49386122822761536, -0.607475996017456, 8.984585762023926, -3.6125075817108154, -1.784062147140503, 0.5421893000602722, -0.6752168536186218, -0.48708027601242065, -1.04443359375, 0.1005859375, -0.011962890625, 0, 
338, 1024438182, -0.19880515336990356, -0.5895402431488037, 0.49387893080711365, -0.6074681878089905, 9.004056930541992, -3.6366913318634033, -1.8247257471084595, 0.09089210629463196, -0.39205145835876465, -0.3858271837234497, -1.043701171875, 0.100341796875, -0.009521484375, 0, 
339, 1024446515, -0.1988663375377655, -0.5895442962646484, 0.49389714002609253, -0.6074293851852417, 8.968735694885254, -3.6015350818634033, -1.7880818843841553, -0.07853323966264725, -0.8289534449577332, -0.7140735983848572, -1.044677734375, 0.101318359375, -0.008056640625, 0, 
340, 1024454848, -0.19892790913581848, -0.5895764827728271, 0.49393871426582336, -0.6073442101478577, 8.9618501663208, -3.619602680206299, -1.7229386568069458, -0.5233756303787231, -1.513288974761963, -0.8700130581855774, -1.04541015625, 0.10009765625, -0.01171875, 0, 
341, 1024463181, -0.19900883734226227, -0.589618980884552, 0.4940025806427002, -0.6072244048118591, 8.976696014404297, -3.61844539642334, -1.6898958683013916, -1.0661412477493286, -1.7945843935012817, -0.992654025554657, -1.048828125, 0.1025390625, -0.01220703125, 0, 
342, 1024471514, -0.19912806153297424, -0.5896173119544983, 0.4941154420375824, -0.6070951819419861, 8.946638107299805, -3.625295400619507, -1.6852790117263794, -1.8973742723464966, -1.4230756759643555, -0.677701473236084, -1.046142578125, 0.098388671875, -0.01025390625, 0, 
343, 1024479847, -0.19924461841583252, -0.5895997881889343, 0.4942459166049957, -0.6069679260253906, 8.939797401428223, -3.550555467605591, -1.8105428218841553, -2.126621723175049, -1.2973097562789917, -0.3634147346019745, -1.044921875, 0.097900390625, -0.01123046875, 0, 
344, 1024488180, -0.1991744190454483, -0.5895903706550598, 0.49422386288642883, -0.6070179343223572, 8.97170352935791, -3.421069383621216, -1.9047094583511353, 1.726822018623352, -0.7299287915229797, 0.39864712953567505, -1.048095703125, 0.099853515625, -0.009033203125, 0, 
345, 1024496513, -0.1989317536354065, -0.589615523815155, 0.4940190017223358, -0.607239842414856, 8.996971130371094, -3.4552841186523438, -1.8710829019546509, 6.075965881347656, -0.34289780259132385, 0.5837100744247437, -1.04541015625, 0.100341796875, -0.01123046875, 0, 
346, 1024504846, -0.1987261027097702, -0.5896425247192383, 0.49381205439567566, -0.6074492335319519, 8.97788143157959, -3.5887322425842285, -1.8245623111724854, 5.693212032318115, -0.21313604712486267, 0.1914023756980896, -1.0458984375, 0.103271484375, -0.010498046875, 0, 
347, 1024513179, -0.19859838485717773, -0.589653491973877, 0.4936356842517853, -0.607623815536499, 8.971338272094727, -3.6632308959960938, -1.6897754669189453, 4.545822620391846, 0.09483671188354492, -0.17881298065185547, -1.048828125, 0.10107421875, -0.00732421875, 0, 
348, 1024521512, -0.1985825151205063, -0.589638352394104, 0.49352216720581055, -0.6077356934547424, 8.973945617675781, -3.686218738555908, -1.5936963558197021, 2.618581771850586, 0.3744161128997803, -0.6204792857170105, -1.04638671875, 0.10009765625, -0.01171875, 0, 
349, 1024529845, -0.1986216902732849, -0.5896142721176147, 0.49350765347480774, -0.6077579855918884, 8.933579444885254, -3.624288320541382, -1.6805533170700073, 0.7109870910644531, -0.15888509154319763, -0.4392073154449463, -1.04638671875, 0.09912109375, -0.012451171875, 0, 
350, 1024538178, -0.19861499965190887, -0.5896208882331848, 0.49347907304763794, -0.607776939868927, 8.951067924499512, -3.558418035507202, -1.8000987768173218, 1.2219399213790894, -0.713330864906311, -0.40286070108413696, -1.047119140625, 0.099853515625, -0.0087890625, 0, 
351, 1024546511, -0.1985315978527069, -0.5896750688552856, 0.4933856427669525, -0.6078274250030518, 8.955804824829102, -3.5293030738830566, -1.7478467226028442, 2.76916766166687, -1.2001293897628784, -0.5073667764663696, -1.04541015625, 0.10107421875, -0.007568359375, 0, 
352, 1024554844, -0.19847902655601501, -0.5897257328033447, 0.4933103621006012, -0.6078566312789917, 8.989916801452637, -3.5371170043945312, -1.7127653360366821, 2.0647506713867188, -1.1423181295394897, -0.6483218669891357, -1.0458984375, 0.101806640625, -0.01025390625, 0, 
353, 1024563177, -0.19853997230529785, -0.5897248983383179, 0.49331897497177124, -0.6078305244445801, 8.949207305908203, -3.5842254161834717, -1.7648998498916626, 0.07567725330591202, -0.6595921516418457, -0.7240375876426697, -1.047607421875, 0.100830078125, -0.00927734375, 0, 
354, 1024571510, -0.19863463938236237, -0.5897136330604553, 0.49336880445480347, -0.6077701449394226, 8.973048210144043, -3.607300281524658, -1.7390778064727783, -0.844936728477478, -0.7357944846153259, -0.7094630599021912, -1.04443359375, 0.098388671875, -0.01171875, 0, 
355, 1024579843, -0.19870151579380035, -0.5896633267402649, 0.49336835741996765, -0.6077975034713745, 8.981775283813477, -3.6328072547912598, -1.6136741638183594, 0.33107680082321167, 0.25254353880882263, -0.36405515670776367, -1.0478515625, 0.100341796875, -0.00830078125, 0, 
356, 1024588176, -0.19878017902374268, -0.5896073579788208, 0.4934539496898651, -0.6077565550804138, 8.94335651397705, -3.7773377895355225, -1.4456396102905273, -1.2284713983535767, -0.31616929173469543, 0.11475177109241486, -1.050048828125, 0.098876953125, -0.01025390625, 0, 
357, 1024596509, -0.19889378547668457, -0.5895606875419617, 0.49368715286254883, -0.6075751185417175, 8.981887817382812, -3.8249447345733643, -1.5498863458633423, -3.4078454971313477, -1.79361093044281, 0.5445713400840759, -1.050537109375, 0.099853515625, -0.010498046875, 0, 
358, 1024604842, -0.19900816679000854, -0.5894573926925659, 0.49394822120666504, -0.6074259281158447, 9.017004013061523, -3.7762632369995117, -1.824406385421753, -3.5678064823150635, -1.1531784534454346, 1.2096195220947266, -1.0458984375, 0.100830078125, -0.01123046875, 0, 
359, 1024613175, -0.1991489976644516, -0.5893052220344543, 0.4942149817943573, -0.60731041431427, 8.952991485595703, -3.656716823577881, -2.0097546577453613, -3.7501282691955566, -0.2841130495071411, 1.4857407808303833, -1.047607421875, 0.099853515625, -0.00927734375, 0, 
360, 1024621508, -0.19918465614318848, -0.5891478061676025, 0.4943033456802368, -0.6073793768882751, 8.944957733154297, -3.4810545444488525, -2.139223575592041, -0.252402663230896, 1.046866536140442, 1.4518530368804932, -1.046142578125, 0.100341796875, -0.0087890625, 0, 
361, 1024629841, -0.1990358978509903, -0.5890739560127258, 0.494132936000824, -0.607638418674469, 8.922457695007324, -3.421651840209961, -1.9989492893218994, 5.0084919929504395, 1.3244736194610596, 0.8562966585159302, -1.0478515625, 0.10009765625, -0.011962890625, 0, 
362, 1024638174, -0.1988287717103958, -0.5891034007072449, 0.49390795826911926, -0.6078606247901917, 8.905694007873535, -3.48990797996521, -1.7819033861160278, 5.833347320556641, -0.042084190994501114, 0.10059990733861923, -1.043701171875, 0.09912109375, -0.01220703125, 0, 
363, 1024646507, -0.19869089126586914, -0.5891532897949219, 0.4937414526939392, -0.6079925298690796, 8.95350170135498, -3.547184467315674, -1.6551151275634766, 4.362399101257324, -0.6768049597740173, -0.39156481623649597, -1.049560546875, 0.098388671875, -0.009033203125, 0, 
364, 1024654840, -0.198643296957016, -0.58916836977005, 0.49364882707595825, -0.6080687046051025, 8.964163780212402, -3.563293218612671, -1.6515710353851318, 2.7928097248077393, -0.5414849519729614, -0.5373098850250244, -1.0439453125, 0.1025390625, -0.011474609375, 0, 
365, 1024663173, -0.1986517310142517, -0.5891864895820618, 0.4936148524284363, -0.6080759167671204, 8.933300018310547, -3.5846831798553467, -1.6869192123413086, 1.1365933418273926, -0.7894307374954224, -0.6670202612876892, -1.04541015625, 0.10205078125, -0.011474609375, 0, 
366, 1024671506, -0.19872860610485077, -0.5892075300216675, 0.4936797618865967, -0.6079776883125305, 8.940995216369629, -3.5728492736816406, -1.7212332487106323, -0.7843846678733826, -1.5579345226287842, -0.8008546233177185, -1.048583984375, 0.097900390625, -0.009521484375, 0, 
367, 1024679839, -0.19880862534046173, -0.5892258286476135, 0.4937502145767212, -0.6078766584396362, 8.987543106079102, -3.5361669063568115, -1.8030235767364502, -1.0516436100006104, -1.4654672145843506, -0.7164301872253418, -1.047119140625, 0.101806640625, -0.01025390625, 0, 
368, 1024688172, -0.19885635375976562, -0.589284360408783, 0.493801087141037, -0.6077629327774048, 9.00820541381836, -3.4946811199188232, -1.7968467473983765, -0.7991640567779541, -2.0084376335144043, -0.8987266421318054, -1.044921875, 0.1025390625, -0.010986328125, 0, 
369, 1024696505, -0.19887183606624603, -0.5893654823303223, 0.49382179975509644, -0.6076624393463135, 9.007643699645996, -3.4645299911499023, -1.6854952573776245, 0.06333120167255402, -2.2891955375671387, -1.004667043685913, -1.047607421875, 0.100830078125, -0.0107421875, 0, 
370, 1024704838, -0.1988714039325714, -0.5894575715065002, 0.49384620785713196, -0.6075534224510193, 9.030677795410156, -3.5104544162750244, -1.61283278465271, 0.005583903286606073, -2.534003496170044, -0.9395941495895386, -1.04541015625, 0.099365234375, -0.01025390625, 0, 
371, 1024713171, -0.1988779753446579, -0.5894976258277893, 0.49386656284332275, -0.607495903968811, 9.070032119750977, -3.4800126552581787, -1.661981463432312, 0.3171682357788086, -1.6566518545150757, -0.5369254946708679, -1.046630859375, 0.100341796875, -0.00927734375, 0, 
372, 1024721504, -0.19887614250183105, -0.5895347595214844, 0.49385684728622437, -0.60746830701828, 9.001214981079102, -3.521390676498413, -1.6827592849731445, 0.7743310332298279, -1.3593729734420776, -0.6200181245803833, -1.0478515625, 0.10205078125, -0.01123046875, 0, 
373, 1024729837, -0.1989491581916809, -0.5895345211029053, 0.4939299523830414, -0.6073850989341736, 8.983792304992676, -3.569790840148926, -1.7988612651824951, -0.9459463953971863, -1.2208895683288574, -0.4608384072780609, -1.042724609375, 0.099609375, -0.008056640625, 0, 
374, 1024738170, -0.19899249076843262, -0.5894930362701416, 0.49402597546577454, -0.6073331832885742, 9.042001724243164, -3.4664251804351807, -1.9594067335128784, -0.9352140426635742, -0.8506615161895752, 0.3421805799007416, -1.04736328125, 0.10107421875, -0.01171875, 0, 
375, 1024746503, -0.19906318187713623, -0.5894120335578918, 0.4940768778324127, -0.6073472499847412, 9.03532886505127, -3.4592790603637695, -1.998003363609314, -0.3037591874599457, 0.2869434654712677, 0.19260622560977936, -1.045654296875, 0.09912109375, -0.00830078125, 0, 
376, 1024754836, -0.19916772842407227, -0.5893235802650452, 0.49411681294441223, -0.6073663830757141, 8.923501014709473, -3.5665080547332764, -1.8590809106826782, -0.40639543533325195, 0.6033560037612915, -0.15007378160953522, -1.050048828125, 0.100830078125, -0.009521484375, 0, 
377, 1024763169, -0.19920356571674347, -0.5892360806465149, 0.494038462638855, -0.6075031757354736, 8.969348907470703, -3.515106678009033, -1.9256484508514404, 1.8755637407302856, 1.452928900718689, -0.183346688747406, -1.05029296875, 0.10107421875, -0.011962890625, 0, 
378, 1024771502, -0.19917772710323334, -0.5892012715339661, 0.49386975169181824, -0.6076826453208923, 8.920587539672852, -3.5548338890075684, -1.804760217666626, 3.659799814224243, 1.131521463394165, -0.6824399828910828, -1.045166015625, 0.0986328125, -0.0126953125, 0, 
379, 1024779835, -0.19923247396945953, -0.5892031788825989, 0.493808776140213, -0.6077123284339905, 8.93490982055664, -3.589582681655884, -1.6689871549606323, 1.0937919616699219, -0.08263152837753296, -1.1015914678573608, -1.044921875, 0.097412109375, -0.01123046875, 0, 
380, 1024788168, -0.1992863565683365, -0.5891903042793274, 0.4937235713005066, -0.6077761650085449, 9.016783714294434, -3.5282652378082275, -1.630459189414978, 1.2169324159622192, 0.4757844805717468, -1.0626194477081299, -1.045654296875, 0.099609375, -0.0126953125, 0, 
381, 1024796501, -0.19932298362255096, -0.5892033576965332, 0.4936029314994812, -0.6078495979309082, 9.008514404296875, -3.5410521030426025, -1.5712347030639648, 2.0681064128875732, 0.22001348435878754, -1.3897004127502441, -1.0439453125, 0.098876953125, -0.01123046875, 0, 
382, 1024804834, -0.19942714273929596, -0.5892207026481628, 0.493517130613327, -0.6078683733940125, 9.002429962158203, -3.5817666053771973, -1.5918524265289307, 0.9128530025482178, 0.067070871591568, -1.8796236515045166, -1.04541015625, 0.0966796875, -0.015380859375, 0, 
383, 1024813167, -0.19966888427734375, -0.5891841053962708, 0.49353694915771484, -0.6078083515167236, 9.017483711242676, -3.6044082641601562, -1.626142978668213, -1.8108237981796265, 0.5606827735900879, -1.9946316480636597, -1.0478515625, 0.1015625, -0.0126953125, 0, 
384, 1024821500, -0.19996750354766846, -0.5891402363777161, 0.4936264157295227, -0.6076802611351013, 8.997437477111816, -3.615095853805542, -1.6706078052520752, -3.5457139015197754, 0.334649920463562, -2.023127317428589, -1.047119140625, 0.0966796875, -0.013427734375, 0, 
385, 1024829833, -0.20024964213371277, -0.5891198515892029, 0.4937698245048523, -0.6074904203414917, 9.000473976135254, -3.601996898651123, -1.591590404510498, -4.007411003112793, -0.6922119855880737, -1.7981579303741455, -1.045654296875, 0.100830078125, -0.009765625, 0, 
386, 1024838166, -0.2004808634519577, -0.5891240835189819, 0.493931382894516, -0.6072786450386047, 8.9616117477417, -3.604984998703003, -1.6177211999893188, -3.9892637729644775, -1.4245357513427734, -1.4419021606445312, -1.046630859375, 0.09765625, -0.012939453125, 0, 
387, 1024846499, -0.20066650211811066, -0.5891361236572266, 0.49409219622612, -0.6070747971534729, 8.98988151550293, -3.5492639541625977, -1.7803746461868286, -3.3769545555114746, -1.779343843460083, -1.108916997909546, -1.048583984375, 0.09619140625, -0.00927734375, 0, 
388, 1024854832, -0.20085763931274414, -0.5891423225402832, 0.49424079060554504, -0.6068844199180603, 8.96182918548584, -3.5145671367645264, -1.8595632314682007, -3.2347190380096436, -1.5714330673217773, -1.199796199798584, -1.049072265625, 0.098876953125, -0.010498046875, 0, 
389, 1024863165, -0.20109744369983673, -0.5891207456588745, 0.4943617284297943, -0.6067275404930115, 8.929854393005371, -3.5481655597686768, -1.8728599548339844, -3.258258819580078, -0.6426099538803101, -1.5279147624969482, -1.046875, 0.09912109375, -0.012451171875, 0, 
390, 1024871498, -0.20136688649654388, -0.5890964269638062, 0.49448680877685547, -0.6065598726272583, 8.913142204284668, -3.5893495082855225, -1.9090310335159302, -3.769134521484375, -0.46633270382881165, -1.7403079271316528, -1.045654296875, 0.098876953125, -0.009765625, 0, 
391, 1024879831, -0.20167000591754913, -0.5890459418296814, 0.49466344714164734, -0.6063640713691711, 8.919024467468262, -3.6148810386657715, -1.9280492067337036, -4.5789031982421875, -0.43851572275161743, -1.5139293670654297, -1.04833984375, 0.099853515625, -0.011474609375, 0, 
392, 1024888164, -0.20190171897411346, -0.58901447057724, 0.4948047995567322, -0.6062021255493164, 8.965124130249023, -3.572695255279541, -1.9343541860580444, -3.522110939025879, -0.6886898875236511, -1.2433149814605713, -1.04541015625, 0.098876953125, -0.01171875, 0, 
393, 1024896497, -0.20208974182605743, -0.5889753103256226, 0.49492010474205017, -0.606083333492279, 8.965740203857422, -3.642519950866699, -1.8716264963150024, -2.5790975093841553, -0.5211985111236572, -0.9138134717941284, -1.04638671875, 0.099365234375, -0.01123046875, 0, 
394, 1024904830, -0.20226994156837463, -0.5889089703559875, 0.49499836564064026, -0.6060238480567932, 8.954564094543457, -3.6644327640533447, -1.6997069120407104, -2.0070035457611084, 0.2691671848297119, -0.7966539859771729, -1.044921875, 0.096923828125, -0.01025390625, 0, 
395, 1024913163, -0.20245489478111267, -0.5888314247131348, 0.49507761001586914, -0.6059727668762207, 8.931731224060059, -3.6695570945739746, -1.6147607564926147, -1.8998587131500244, 0.42625927925109863, -0.7326951622962952, -1.045654296875, 0.098388671875, -0.009765625, 0, 
396, 1024921496, -0.20260274410247803, -0.5887718796730042, 0.4951496124267578, -0.6059224009513855, 8.932047843933105, -3.624783754348755, -1.69090735912323, -1.5650681257247925, 0.06439418345689774, -0.606404185295105, -1.045166015625, 0.0966796875, -0.00927734375, 0, 
397, 1024929829, -0.20273666083812714, -0.5887101888656616, 0.4952259957790375, -0.6058751344680786, 8.950695991516113, -3.5894830226898193, -1.7411741018295288, -1.393798589706421, -0.01467695739120245, -0.4270405173301697, -1.0458984375, 0.0966796875, -0.007568359375, 0, 
398, 1024938162, -0.2028197944164276, -0.5886510610580444, 0.4952666163444519, -0.6058714389801025, 8.96216869354248, -3.5243844985961914, -1.8786941766738892, -0.2880832552909851, 0.015816789120435715, -0.22778737545013428, -1.0458984375, 0.095458984375, -0.010009765625, 0, 
399, 1024946495, -0.20275916159152985, -0.5886650085449219, 0.4952036738395691, -0.6059297323226929, 8.952531814575195, -3.4279680252075195, -1.8666363954544067, 2.2710988521575928, -0.7273930907249451, -0.15619561076164246, -1.045654296875, 0.095947265625, -0.012939453125, 0, 
400, 1024954828, -0.20263022184371948, -0.5887117981910706, 0.4950745701789856, -0.6060330867767334, 8.990500450134277, -3.4179317951202393, -1.8736236095428467, 3.8531620502471924, -0.9635050296783447, -0.2555532157421112, -1.045166015625, 0.09912109375, -0.0126953125, 0, 
401, 1024963161, -0.2025655210018158, -0.5887560248374939, 0.49500685930252075, -0.6060670018196106, 8.997895240783691, -3.4625766277313232, -1.8793569803237915, 2.2628767490386963, -1.1927268505096436, -0.43390512466430664, -1.046875, 0.096435546875, -0.010498046875, 0, 
402, 1024971494, -0.20254504680633545, -0.5887723565101624, 0.4949495792388916, -0.6061045527458191, 9.022729873657227, -3.480647087097168, -1.7886508703231812, 1.6241858005523682, -0.6170724630355835, -0.5104660987854004, -1.04541015625, 0.099365234375, -0.01123046875, 0, 
403, 1024979827, -0.20252303779125214, -0.5887665748596191, 0.4948427379131317, -0.6062048077583313, 9.052103042602539, -3.5023860931396484, -1.657188057899475, 2.5560317039489746, 0.16253511607646942, -0.5815711617469788, -1.045166015625, 0.096923828125, -0.012451171875, 0, 
404, 1024988160, -0.2025747001171112, -0.5887345671653748, 0.4947652220726013, -0.6062819361686707, 9.063774108886719, -3.558535575866699, -1.6377040147781372, 1.7772306203842163, 0.48171404004096985, -0.9205755591392517, -1.04931640625, 0.095458984375, -0.01318359375, 0, 
405, 1024996493, -0.202705979347229, -0.588680624961853, 0.49475792050361633, -0.6062964200973511, 9.040291786193848, -3.584461212158203, -1.6066501140594482, -0.23188567161560059, 0.6352201104164124, -0.9648625254631042, -1.0478515625, 0.096435546875, -0.01171875, 0, 
406, 1025004826, -0.20288673043251038, -0.5885764956474304, 0.49478641152381897, -0.606313943862915, 9.038617134094238, -3.578068256378174, -1.6399983167648315, -1.133750081062317, 1.3325804471969604, -0.7406995892524719, -1.045654296875, 0.09716796875, -0.012939453125, 0, 
407, 1025013159, -0.20312854647636414, -0.5884284973144531, 0.49487414956092834, -0.606304943561554, 8.97928524017334, -3.6031880378723145, -1.6899840831756592, -2.3421270847320557, 1.715769648551941, -0.5425479412078857, -1.046875, 0.094482421875, -0.01220703125, 0, 
408, 1025021492, -0.20337870717048645, -0.5883169174194336, 0.4950408339500427, -0.6061932444572449, 8.933151245117188, -3.5588831901550293, -1.6969255208969116, -3.7013466358184814, 0.4161544740200043, -0.521467387676239, -1.04833984375, 0.097900390625, -0.011474609375, 0, 
409, 1025029825, -0.20355549454689026, -0.5882552862167358, 0.49522313475608826, -0.6060447692871094, 8.963373184204102, -3.4850857257843018, -1.6871228218078613, -3.311408519744873, -0.8387894630432129, -0.21126621961593628, -1.0478515625, 0.095947265625, -0.01171875, 0, 
410, 1025038158, -0.20368041098117828, -0.588234543800354, 0.49542754888534546, -0.6058557033538818, 8.950407028198242, -3.446580171585083, -1.654158592224121, -3.3579747676849365, -1.8941214084625244, 0.006851807702332735, -1.046630859375, 0.09716796875, -0.012939453125, 0, 
411, 1025046491, -0.20365777611732483, -0.5882980823516846, 0.4956161677837372, -0.6056471467018127, 8.949179649353027, -3.3418304920196533, -1.6421853303909302, -1.8094663619995117, -3.744339942932129, 0.4807663559913635, -1.051513671875, 0.100341796875, -0.01123046875, 0, 
412, 1025054824, -0.2035042643547058, -0.5884162783622742, 0.4957546591758728, -0.6054707169532776, 9.010128021240234, -3.3091301918029785, -1.706371545791626, 0.019479626789689064, -4.69854736328125, 0.86344313621521, -1.047607421875, 0.097412109375, -0.010498046875, 0, 
413, 1025063157, -0.2034124881029129, -0.588488757610321, 0.4959041476249695, -0.6053087115287781, 9.04832649230957, -3.344829797744751, -1.8614507913589478, -0.5824933052062988, -3.8032264709472656, 0.8095250725746155, -1.04638671875, 0.09814453125, -0.012451171875, 0, 
414, 1025071490, -0.20342598855495453, -0.5885122418403625, 0.49605685472488403, -0.6051562428474426, 9.036099433898926, -3.3781776428222656, -1.8785830736160278, -1.6023496389389038, -2.6003825664520264, 0.3111232817173004, -1.04345703125, 0.098876953125, -0.009521484375, 0, 
415, 1025079823, -0.20343172550201416, -0.5885165929794312, 0.4961511194705963, -0.6050729155540466, 9.07779312133789, -3.39740252494812, -1.960411787033081, -0.565690279006958, -1.7794208526611328, 0.23340971767902374, -1.047607421875, 0.098876953125, -0.009521484375, 0, 
416, 1025088156, -0.20335257053375244, -0.5885397791862488, 0.4960867762565613, -0.6051295399665833, 9.078042030334473, -3.4157252311706543, -1.9783381223678589, 2.293639659881592, -0.8945772051811218, -0.06908159703016281, -1.046875, 0.096923828125, -0.010498046875, 0, 
417, 1025096489, -0.20325100421905518, -0.5885880589485168, 0.49597546458244324, -0.6052079796791077, 9.059097290039062, -3.523149013519287, -1.8617652654647827, 3.2403926849365234, -0.9938322305679321, -0.38316333293914795, -1.047119140625, 0.099853515625, -0.01025390625, 0, 
418, 1025104822, -0.20319443941116333, -0.5886164307594299, 0.49586963653564453, -0.605286180973053, 9.046624183654785, -3.6189043521881104, -1.76707923412323, 2.7350237369537354, -0.5412032008171082, -0.5916375517845154, -1.04443359375, 0.101318359375, -0.010009765625, 0, 
419, 1025113155, -0.20317570865154266, -0.5885921120643616, 0.4957524240016937, -0.6054121851921082, 9.055075645446777, -3.5891082286834717, -1.7674119472503662, 2.7401721477508545, 0.5777162313461304, -0.4932020902633667, -1.04638671875, 0.098876953125, -0.011962890625, 0, 
420, 1025121488, -0.20319345593452454, -0.5885373950004578, 0.49565255641937256, -0.6055410504341125, 8.997100830078125, -3.574056386947632, -1.7034305334091187, 2.5586442947387695, 0.9055783748626709, -0.5239648222923279, -1.044921875, 0.1015625, -0.011962890625, 0, 
421, 1025129821, -0.20325495302677155, -0.5884914994239807, 0.49559497833251953, -0.6056120991706848, 8.968384742736816, -3.589224338531494, -1.7307233810424805, 1.159389853477478, 0.6930058598518372, -0.6846427917480469, -1.04638671875, 0.098388671875, -0.0107421875, 0, 
422, 1025138154, -0.20343056321144104, -0.5884198546409607, 0.4956468939781189, -0.6055803298950195, 8.917628288269043, -3.5721943378448486, -1.7613024711608887, -1.2940312623977661, 0.46514174342155457, -0.9104323983192444, -1.04443359375, 0.096435546875, -0.0107421875, 0, 
423, 1025146487, -0.20367714762687683, -0.5883271098136902, 0.4957747459411621, -0.605482816696167, 8.937247276306152, -3.546013832092285, -1.7347946166992188, -3.16274356842041, 0.4590967297554016, -0.8781841397285461, -1.0478515625, 0.0986328125, -0.008056640625, 0, 
424, 1025154820, -0.2039313018321991, -0.5882205367088318, 0.4959356486797333, -0.6053690314292908, 8.917187690734863, -3.502812147140503, -1.672672152519226, -3.6848509311676025, 0.402911901473999, -0.6373974084854126, -1.046142578125, 0.0986328125, -0.012939453125, 0, 
425, 1025163153, -0.2042044997215271, -0.5881274342536926, 0.4961351156234741, -0.6052038073539734, 8.92711353302002, -3.4986484050750732, -1.7173179388046265, -4.435732364654541, -0.10446766018867493, -0.7068120837211609, -1.04638671875, 0.095947265625, -0.011474609375, 0, 
426, 1025171486, -0.20457172393798828, -0.58799147605896, 0.4964340627193451, -0.6049668788909912, 8.941617965698242, -3.5039117336273193, -1.96486496925354, -6.767690658569336, 0.07296214252710342, -0.5875648856163025, -1.046630859375, 0.09765625, -0.012939453125, 0, 
427, 1025179819, -0.20493483543395996, -0.587898313999176, 0.4967602491378784, -0.6046667695045471, 8.964437484741211, -3.4683337211608887, -2.0106406211853027, -7.13950777053833, -0.9355087280273438, -0.8109980225563049, -1.04833984375, 0.095947265625, -0.01123046875, 0, 
428, 1025188152, -0.20524394512176514, -0.5878394246101379, 0.4970005452632904, -0.6044215559959412, 8.949748992919922, -3.5343446731567383, -1.909529447555542, -5.490437030792236, -0.932896077632904, -1.1590440273284912, -1.047119140625, 0.095947265625, -0.010009765625, 0, 
429, 1025196485, -0.20555996894836426, -0.5877581834793091, 0.49720174074172974, -0.6042277812957764, 8.989726066589355, -3.585772752761841, -1.9306645393371582, -4.95871114730835, -0.14443866908550262, -1.210631251335144, -1.04736328125, 0.095458984375, -0.010986328125, 0, 
430, 1025204818, -0.20588496327400208, -0.5876538157463074, 0.49739062786102295, -0.6040629744529724, 8.963959693908691, -3.6201069355010986, -1.8950650691986084, -4.824057102203369, 0.37364766001701355, -1.1554069519042969, -1.046630859375, 0.097412109375, -0.009033203125, 0, 
431, 1025213151, -0.206107497215271, -0.5875558853149414, 0.49753132462501526, -0.6039665341377258, 8.955387115478516, -3.5591115951538086, -1.8943852186203003, -3.0827243328094482, 0.31337738037109375, -0.533032238483429, -1.044677734375, 0.10009765625, -0.013671875, 0, 
432, 1025221484, -0.20607733726501465, -0.5874518752098083, 0.49739834666252136, -0.6041876077651978, 8.993616104125977, -3.4468629360198975, -2.098085641860962, 3.452042818069458, 1.9324527978897095, 0.26396745443344116, -1.04345703125, 0.097900390625, -0.01171875, 0, 
433, 1025229817, -0.20581330358982086, -0.5874465703964233, 0.4970284402370453, -0.6045868992805481, 8.965574264526367, -3.446881055831909, -1.9152718782424927, 8.743457794189453, 1.6672433614730835, 0.15441541373729706, -1.048583984375, 0.10107421875, -0.013916015625, 0, 
434, 1025238150, -0.20549209415912628, -0.587558388710022, 0.4967406094074249, -0.6048240065574646, 8.966388702392578, -3.462395668029785, -1.5637643337249756, 7.850930213928223, -1.2985138893127441, -0.006429173983633518, -1.045654296875, 0.096923828125, -0.009521484375, 0, 
435, 1025246483, -0.2051360309123993, -0.5877112150192261, 0.496459424495697, -0.6050273776054382, 9.047782897949219, -3.372627019882202, -1.6213996410369873, 7.857949256896973, -2.1097936630249023, 0.0028559877537190914, -1.047607421875, 0.0966796875, -0.01416015625, 0, 
436, 1025254816, -0.2048344612121582, -0.587799608707428, 0.49613580107688904, -0.6053088307380676, 9.042343139648438, -3.3909122943878174, -1.594056487083435, 8.221797943115234, -0.5095695853233337, -0.17310099303722382, -1.04541015625, 0.096923828125, -0.010986328125, 0, 
437, 1025263149, -0.2046421617269516, -0.5878316760063171, 0.49587205052375793, -0.6055589318275452, 9.037331581115723, -3.4599387645721436, -1.5396775007247925, 6.368659496307373, 0.3395807147026062, -0.2633143365383148, -1.044921875, 0.0986328125, -0.015625, 0, 
