PacketCounter,SampleTimeFine,Quat_W,Quat_X,Quat_Y,Quat_Z,Acc_X,Acc_Y,Acc_Z,Gyr_X,Gyr_Y,Gyr_Z,Mag_X,Mag_Y,Mag_Z,Status,
0, 1049945495, -0.2688000798225403, -0.602553129196167, 0.3860276937484741, -0.6447279453277588, 0, 0, 0, 0, 0, 0, -1.05615234375, -0.123046875, -0.159423828125, 0, 
1, 1049953828, -0.2692631185054779, -0.6022789478302002, 0.38591158390045166, -0.6448605060577393, 9.813819885253906, -1.6240136623382568, -0.4947892129421234, -2.238018274307251, 5.544188976287842, -3.3252146244049072, -1.056884765625, -0.126953125, -0.162109375, 0, 
2, 1049962161, -0.2698375880718231, -0.6019407510757446, 0.3858504593372345, -0.6449726819992065, 9.80774974822998, -1.5867952108383179, -0.43505430221557617, -4.050852298736572, 6.357043266296387, -3.60793137550354, -1.05615234375, -0.126220703125, -0.16259765625, 0, 
3, 1049970494, -0.2704927325248718, -0.6015418767929077, 0.38583916425704956, -0.6450769901275635, 9.81757640838623, -1.629387617111206, -0.444302499294281, -5.3347930908203125, 7.045068740844727, -3.6049611568450928, -1.05419921875, -0.12353515625, -0.166259765625, 0, 
4, 1049978827, -0.2711816132068634, -0.6010645627975464, 0.38587409257888794, -0.6452116966247559, 9.784929275512695, -1.6347533464431763, -0.428256094455719, -6.247722625732422, 8.026900291442871, -3.0062921047210693, -1.05517578125, -0.126708984375, -0.16357421875, 0, 
5, 1049987160, -0.2718927264213562, -0.6005260944366455, 0.3859844505786896, -0.6453478932380676, 9.741072654724121, -1.683403491973877, -0.4696132242679596, -7.3023881912231445, 8.404582977294922, -2.232818603515625, -1.05712890625, -0.124267578125, -0.1640625, 0, 
6, 1049995493, -0.2726108729839325, -0.5999523401260376, 0.38617944717407227, -0.645461916923523, 9.701005935668945, -1.7135355472564697, -0.536188006401062, -8.379825592041016, 8.267597198486328, -1.509831190109253, -1.052734375, -0.1240234375, -0.16650390625, 0, 
7, 1050003826, -0.2733322083950043, -0.5993511080741882, 0.38643506169319153, -0.6455625891685486, 9.675752639770508, -1.7642526626586914, -0.6063184142112732, -9.034268379211426, 8.169238090515137, -0.9266461133956909, -1.0537109375, -0.1240234375, -0.167236328125, 0, 
8, 1050012159, -0.27407723665237427, -0.5987116694450378, 0.38675031065940857, -0.6456513404846191, 9.581757545471191, -1.7865171432495117, -0.6918565034866333, -10.048748016357422, 8.33434772491455, -0.5024232864379883, -1.055419921875, -0.12548828125, -0.1689453125, 0, 
9, 1050020492, -0.27483507990837097, -0.5980408191680908, 0.387100487947464, -0.645740807056427, 9.569361686706543, -1.763687252998352, -0.768325924873352, -10.540400505065918, 8.541119575500488, -0.14309392869472504, -1.050537109375, -0.1240234375, -0.17236328125, 0, 
10, 1050028825, -0.27557098865509033, -0.5973472595214844, 0.387432336807251, -0.6458701491355896, 9.576555252075195, -1.7585960626602173, -0.725878119468689, -10.109976768493652, 9.037625312805176, 0.15696404874324799, -1.054443359375, -0.12060546875, -0.173583984375, 0, 
11, 1050037158, -0.276290625333786, -0.5966227054595947, 0.3877312242984772, -0.64605313539505, 9.618547439575195, -1.7445096969604492, -0.6794671416282654, -9.511194229125977, 9.784229278564453, 0.4139772951602936, -1.054931640625, -0.123779296875, -0.17578125, 0, 
12, 1050045491, -0.27701640129089355, -0.5958840847015381, 0.38798508048057556, -0.6462715864181519, 9.693471908569336, -1.7368754148483276, -0.5833427309989929, -9.029890060424805, 10.41232967376709, 0.18574167788028717, -1.052490234375, -0.12158203125, -0.174560546875, 0, 
13, 1050053824, -0.27777305245399475, -0.5951347947120667, 0.38823193311691284, -0.6464889049530029, 9.740848541259766, -1.7344127893447876, -0.49642324447631836, -9.260496139526367, 10.682635307312012, -0.0781746581196785, -1.050537109375, -0.121826171875, -0.17724609375, 0, 
14, 1050062157, -0.27856677770614624, -0.5943519473075867, 0.388458251953125, -0.6467316746711731, 9.738784790039062, -1.7483094930648804, -0.44703593850135803, -9.381612777709961, 11.472976684570312, -0.3166560232639313, -1.054443359375, -0.125244140625, -0.1787109375, 0, 
15, 1050070490, -0.2793530821800232, -0.5935605764389038, 0.38863518834114075, -0.6470127105712891, 9.76549243927002, -1.7329679727554321, -0.44154369831085205, -8.537917137145996, 11.975794792175293, -0.4474807381629944, -1.05322265625, -0.1201171875, -0.181396484375, 0, 
16, 1050078823, -0.28009846806526184, -0.5927852392196655, 0.38872984051704407, -0.6473445296287537, 9.724237442016602, -1.7255845069885254, -0.459635466337204, -7.3110456466674805, 12.378246307373047, -0.6594641208648682, -1.053955078125, -0.12353515625, -0.1796875, 0, 
17, 1050087156, -0.2808249890804291, -0.5920448303222656, 0.388751745223999, -0.647693932056427, 9.66757869720459, -1.7285181283950806, -0.4359430968761444, -6.1085357666015625, 12.357783317565918, -1.1874761581420898, -1.049072265625, -0.12109375, -0.18701171875, 0, 
18, 1050095489, -0.28151935338974, -0.591350257396698, 0.38872718811035156, -0.648041844367981, 9.703099250793457, -1.7932426929473877, -0.4415743350982666, -5.43649435043335, 11.979690551757812, -1.546459674835205, -1.049560546875, -0.1201171875, -0.1865234375, 0, 
19, 1050103822, -0.28217780590057373, -0.5906546711921692, 0.388675719499588, -0.6484204530715942, 9.721114158630371, -1.8442091941833496, -0.4643508493900299, -4.748111724853516, 12.149127960205078, -1.3046869039535522, -1.05126953125, -0.122314453125, -0.1904296875, 0, 
20, 1050112155, -0.28281262516975403, -0.5899556875228882, 0.3886067271232605, -0.6488215327262878, 9.703482627868652, -1.9513567686080933, -0.38037919998168945, -4.288848876953125, 12.304325103759766, -1.1473388671875, -1.050048828125, -0.122314453125, -0.191650390625, 0, 
21, 1050120488, -0.28345462679862976, -0.5892266035079956, 0.3885440230369568, -0.6492413878440857, 9.65504264831543, -2.048872947692871, -0.33274564146995544, -4.457056045532227, 12.742660522460938, -0.9114057421684265, -1.05126953125, -0.1220703125, -0.1943359375, 0, 
22, 1050128821, -0.2840838134288788, -0.5884422063827515, 0.3885331451892853, -0.6496841907501221, 9.67576789855957, -2.203178882598877, -0.3153603971004486, -4.871034622192383, 13.147470474243164, -0.0061218044720590115, -1.051025390625, -0.118408203125, -0.197998046875, 0, 
23, 1050137154, -0.2847009301185608, -0.5875813364982605, 0.3885774612426758, -0.6501665115356445, 9.666400909423828, -2.297600507736206, -0.30200815200805664, -5.3321428298950195, 13.868383407592773, 1.125118374824524, -1.050537109375, -0.119384765625, -0.197998046875, 0, 
24, 1050145487, -0.28527191281318665, -0.5866531729698181, 0.3886517286300659, -0.6507099270820618, 9.580827713012695, -2.378133773803711, -0.39591118693351746, -5.187294006347656, 14.60258960723877, 2.363490343093872, -1.05224609375, -0.119140625, -0.19970703125, 0, 
25, 1050153820, -0.2857521176338196, -0.5857326984405518, 0.3887247145175934, -0.6512845754623413, 9.496695518493652, -2.460675001144409, -0.4296604096889496, -4.486500263214111, 14.350480079650879, 3.2564406394958496, -1.04833984375, -0.12109375, -0.199951171875, 0, 
26, 1050162153, -0.28613606095314026, -0.5848498344421387, 0.3888345956802368, -0.6518435478210449, 9.48568344116211, -2.5606322288513184, -0.4650954306125641, -3.7363364696502686, 13.181855201721191, 4.143819808959961, -1.0458984375, -0.12060546875, -0.202880859375, 0, 
27, 1050170486, -0.286411315202713, -0.5840347409248352, 0.38893869519233704, -0.6523909568786621, 9.553095817565918, -2.6712305545806885, -0.45972204208374023, -2.5944406986236572, 11.927360534667969, 4.674253463745117, -1.0498046875, -0.119873046875, -0.20361328125, 0, 
28, 1050178819, -0.2866438627243042, -0.5832183361053467, 0.38918599486351013, -0.6528716087341309, 10.184361457824707, -2.949052095413208, -0.31537291407585144, -3.9086432456970215, 10.605294227600098, 5.940633296966553, -1.05224609375, -0.12158203125, -0.20947265625, 0, 
29, 1050187152, -0.2869638502597809, -0.5821505188941956, 0.38956186175346375, -0.6534595489501953, 10.402088165283203, -3.039489507675171, -0.4823164939880371, -5.912650108337402, 13.64391040802002, 7.9689741134643555, -1.048583984375, -0.119384765625, -0.2119140625, 0, 
30, 1050195485, -0.2873063385486603, -0.5808143019676208, 0.3898814916610718, -0.6543068885803223, 9.750356674194336, -3.221684455871582, -0.6839954853057861, -5.527285099029541, 18.517560958862305, 9.764457702636719, -1.048828125, -0.11669921875, -0.212646484375, 0, 
31, 1050203818, -0.28739622235298157, -0.5794826745986938, 0.3901888430118561, -0.6552641987800598, 9.01665210723877, -3.6992366313934326, -0.6662996411323547, -2.893948554992676, 18.071348190307617, 12.349973678588867, -1.04833984375, -0.1162109375, -0.213623046875, 0, 
32, 1050212151, -0.2874138057231903, -0.5778566002845764, 0.3906537890434265, -0.6564143896102905, 8.837299346923828, -4.244612216949463, -0.5348116755485535, -3.762272834777832, 21.228464126586914, 16.599918365478516, -1.04541015625, -0.11181640625, -0.2177734375, 0, 
33, 1050220484, -0.28742167353630066, -0.5758237242698669, 0.3914465308189392, -0.6577239036560059, 8.681140899658203, -4.763527870178223, -0.47914132475852966, -7.718064308166504, 24.8877010345459, 22.092853546142578, -1.044921875, -0.107666015625, -0.222900390625, 0, 
34, 1050228817, -0.2871391177177429, -0.5738095045089722, 0.3927361071109772, -0.6588380336761475, 8.669717788696289, -5.002738952636719, -0.804302990436554, -10.569007873535156, 19.573993682861328, 27.794021606445312, -1.044189453125, -0.1064453125, -0.224853515625, 0, 
35, 1050237150, -0.2862606346607208, -0.5721429586410522, 0.3942141830921173, -0.6597859859466553, 8.913063049316406, -5.086178779602051, -1.2322956323623657, -7.120675563812256, 11.16917610168457, 32.13783264160156, -1.046142578125, -0.100830078125, -0.2265625, 0, 
36, 1050245483, -0.2848113775253296, -0.5704793930053711, 0.39562585949897766, -0.6610075235366821, 9.287896156311035, -5.241336822509766, -1.478973388671875, -0.5113376379013062, 10.444999694824219, 37.86412811279297, -1.046630859375, -0.094482421875, -0.231201171875, 0, 
37, 1050253816, -0.2828283905982971, -0.5686019659042358, 0.3968525528907776, -0.6627389788627625, 8.88699722290039, -5.424622535705566, -1.7237571477890015, 7.344242095947266, 14.212251663208008, 44.405704498291016, -1.04345703125, -0.087890625, -0.237548828125, 0, 
38, 1050262149, -0.28011417388916016, -0.566815972328186, 0.3979950249195099, -0.6647334694862366, 8.050670623779297, -5.734724998474121, -1.892662525177002, 15.570280075073242, 11.769808769226074, 50.95612335205078, -1.043212890625, -0.08154296875, -0.2353515625, 0, 
39, 1050270482, -0.27650880813598633, -0.5654013156890869, 0.3992496430873871, -0.6666927337646484, 7.79413366317749, -6.140474796295166, -2.1295337677001953, 22.194744110107422, 2.931494951248169, 57.752010345458984, -1.0478515625, -0.073486328125, -0.23828125, 0, 
40, 1050278815, -0.272084504365921, -0.5642490983009338, 0.4006713628768921, -0.6686334609985352, 7.697908878326416, -6.3458991050720215, -2.561244010925293, 28.4603214263916, -4.889036655426025, 65.10228729248047, -1.043701171875, -0.068115234375, -0.235107421875, 0, 
41, 1050287148, -0.26681214570999146, -0.563351035118103, 0.40219035744667053, -0.6706004738807678, 7.433984279632568, -6.5597028732299805, -2.8979623317718506, 35.26692581176758, -12.038454055786133, 72.31216430664062, -1.0439453125, -0.06103515625, -0.238037109375, 0, 
42, 1050295481, -0.2605593204498291, -0.5628277063369751, 0.40376701951026917, -0.6725482940673828, 7.404173851013184, -6.77891206741333, -3.0156493186950684, 43.57443618774414, -21.299833297729492, 79.69808197021484, -1.046630859375, -0.050537109375, -0.23681640625, 0, 
43, 1050303814, -0.2532072067260742, -0.5627440810203552, 0.40519189834594727, -0.6745665073394775, 7.517111778259277, -6.835262298583984, -3.1134161949157715, 55.441036224365234, -30.3414363861084, 86.446044921875, -1.044189453125, -0.041259765625, -0.23388671875, 0, 
44, 1050312147, -0.2447403520345688, -0.5631412267684937, 0.4063665568828583, -0.6766501665115356, 7.702106475830078, -6.860039234161377, -3.0910606384277344, 68.44058990478516, -39.67292785644531, 92.45568084716797, -1.047119140625, -0.028564453125, -0.2294921875, 0, 
45, 1050320480, -0.2351645529270172, -0.5639400482177734, 0.4071851968765259, -0.6788848638534546, 8.253833770751953, -7.018313884735107, -2.8356709480285645, 82.67682647705078, -47.23739242553711, 98.21649169921875, -1.04541015625, -0.01611328125, -0.2275390625, 0, 
46, 1050328813, -0.22446396946907043, -0.5650408267974854, 0.4075758755207062, -0.6813530325889587, 8.833556175231934, -6.85547399520874, -2.2512528896331787, 97.53741455078125, -53.163841247558594, 104.52725982666016, -1.048583984375, -0.0048828125, -0.22216796875, 0, 
47, 1050337146, -0.2128113955259323, -0.5664544105529785, 0.4075603485107422, -0.6839230060577393, 9.117379188537598, -6.716254234313965, -1.9528169631958008, 110.18083190917969, -59.30070114135742, 108.76446533203125, -1.04638671875, 0.004638671875, -0.215576171875, 0, 
48, 1050345479, -0.20073117315769196, -0.5680073499679565, 0.40723997354507446, -0.6864734292030334, 9.42496109008789, -6.581010818481445, -1.4555107355117798, 116.77469635009766, -62.35274124145508, 109.66289520263672, -1.046875, 0.016845703125, -0.21044921875, 0, 
49, 1050353812, -0.18839189410209656, -0.5697923898696899, 0.40650978684425354, -0.6889196038246155, 9.62293815612793, -6.7946906089782715, -0.8391761779785156, 122.74275970458984, -65.62663269042969, 107.22057342529297, -1.044677734375, 0.0283203125, -0.20458984375, 0, 
50, 1050362145, -0.17616817355155945, -0.5715957880020142, 0.40549492835998535, -0.6912540793418884, 10.15511417388916, -6.543671607971191, 0.17413796484470367, 123.93830871582031, -65.34455108642578, 103.60092163085938, -1.047607421875, 0.03857421875, -0.194580078125, 0, 
51, 1050370478, -0.16429652273654938, -0.5732837915420532, 0.40436747670173645, -0.6934366822242737, 10.49095630645752, -5.899380207061768, 0.8479648232460022, 121.12908935546875, -63.153411865234375, 99.5378646850586, -1.048828125, 0.050537109375, -0.190673828125, 0, 
52, 1050378811, -0.15274755656719208, -0.5748201012611389, 0.4031325578689575, -0.6955208778381348, 10.574857711791992, -5.559231281280518, 0.5574523210525513, 118.70476531982422, -60.49612045288086, 96.3404769897461, -1.04931640625, 0.058349609375, -0.190185546875, 0, 
53, 1050387144, -0.1413433700799942, -0.5765421390533447, 0.4013470411300659, -0.6975364089012146, 10.027291297912598, -5.125711441040039, 0.42403993010520935, 122.8497543334961, -60.80926513671875, 89.31570434570312, -1.04833984375, 0.07080078125, -0.180908203125, 0, 
54, 1050395477, -0.12961001694202423, -0.5787622332572937, 0.3988092541694641, -0.6994297504425049, 9.465332984924316, -4.598205089569092, 0.6439108848571777, 132.95738220214844, -66.95760345458984, 83.63874816894531, -1.04833984375, 0.076904296875, -0.177001953125, 0, 
55, 1050403810, -0.11754412949085236, -0.5815387964248657, 0.39635637402534485, -0.7006516456604004, 10.142295837402344, -3.4831490516662598, 1.6361958980560303, 132.10671997070312, -79.58854675292969, 83.1430435180664, -1.0498046875, 0.0869140625, -0.16748046875, 0, 
56, 1050412143, -0.1070668175816536, -0.5835858583450317, 0.3960362374782562, -0.7008100152015686, 11.580942153930664, -1.633814811706543, 3.947277307510376, 91.86492156982422, -75.89546203613281, 87.26815032958984, -1.0458984375, 0.09814453125, -0.1630859375, 0, 
57, 1050420476, -0.10004964470863342, -0.5837112665176392, 0.39940789341926575, -0.6998283267021179, 12.864317893981934, 0.05296982824802399, 5.539032459259033, 19.49041748046875, -53.07882308959961, 92.21724700927734, -1.046630859375, 0.108154296875, -0.1572265625, 0, 
58, 1050428809, -0.09624862670898438, -0.5820199251174927, 0.4056580066680908, -0.6981732249259949, 13.387877464294434, 0.9908402562141418, 4.509885787963867, -40.23483657836914, -27.32959747314453, 93.5438003540039, -1.044189453125, 0.123291015625, -0.152587890625, 0, 
59, 1050437142, -0.09435057640075684, -0.5793464183807373, 0.4129076600074768, -0.6964038014411926, 12.935467720031738, 0.5225813984870911, 2.3582048416137695, -66.99640655517578, -9.501985549926758, 88.49382781982422, -1.04443359375, 0.142822265625, -0.15185546875, 0, 
60, 1050445475, -0.09323015809059143, -0.5766258239746094, 0.4198446571826935, -0.6946629881858826, 11.988675117492676, -1.0285007953643799, 0.3331884443759918, -70.09983825683594, -4.023190975189209, 78.96714782714844, -1.0361328125, 0.15625, -0.14404296875, 0, 
61, 1050453808, -0.09158970415592194, -0.5744478106498718, 0.42517051100730896, -0.6934453248977661, 10.873072624206543, -2.4921090602874756, -1.4162043333053589, -46.87166213989258, -5.980691909790039, 68.61096954345703, -1.03466796875, 0.163330078125, -0.14306640625, 0, 
62, 1050462141, -0.08908361196517944, -0.5731488466262817, 0.42857298254966736, -0.692751944065094, 9.745198249816895, -3.7656333446502686, -1.697986125946045, -17.518823623657227, -12.87466812133789, 57.277435302734375, -1.0322265625, 0.17822265625, -0.143310546875, 0, 
63, 1050470474, -0.08636622130870819, -0.5724969506263733, 0.43108269572257996, -0.6920773386955261, 9.211490631103516, -4.6828413009643555, -0.816189706325531, -6.443071365356445, -19.02847671508789, 48.39164352416992, -1.034423828125, 0.187744140625, -0.1435546875, 0, 
64, 1050478807, -0.0841338038444519, -0.5719026923179626, 0.43368852138519287, -0.6912150979042053, 9.09788703918457, -4.910576820373535, -0.12294480204582214, -12.221077919006348, -18.307266235351562, 44.04136657714844, -1.027587890625, 0.19189453125, -0.1376953125, 0, 
65, 1050487140, -0.08256001770496368, -0.5710649490356445, 0.4364981949329376, -0.6903282403945923, 9.00914192199707, -4.804794788360596, 0.1889227330684662, -19.766481399536133, -12.477500915527344, 40.73675537109375, -1.025146484375, 0.19921875, -0.135498046875, 0, 
66, 1050495473, -0.08147832751274109, -0.5700241923332214, 0.43942368030548096, -0.6894603371620178, 8.404352188110352, -4.547144412994385, 0.2005225419998169, -24.846464157104492, -7.59670877456665, 38.28521728515625, -1.027099609375, 0.205322265625, -0.136962890625, 0, 
67, 1050503806, -0.0803351029753685, -0.5692088007926941, 0.4422057867050171, -0.6884888410568237, 8.109060287475586, -4.348628044128418, -0.20057156682014465, -23.37841033935547, -10.73942756652832, 36.1974983215332, -1.0224609375, 0.212646484375, -0.134521484375, 0, 
68, 1050512139, -0.07877381891012192, -0.5686511397361755, 0.4444681406021118, -0.6876729726791382, 8.091431617736816, -4.111065864562988, -0.598154604434967, -13.954781532287598, -13.947151184082031, 34.76218795776367, -1.022705078125, 0.217529296875, -0.1318359375, 0, 
69, 1050520472, -0.07681721448898315, -0.5683270692825317, 0.4460959732532501, -0.6871076822280884, 8.114004135131836, -3.9137046337127686, -0.7358500957489014, -3.0747616291046143, -15.907584190368652, 32.31342697143555, -1.021728515625, 0.22119140625, -0.131591796875, 0, 
70, 1050528805, -0.07457039505243301, -0.5683764219284058, 0.4473801255226135, -0.6864793300628662, 7.703067779541016, -4.206931114196777, -0.6268661618232727, 2.4447662830352783, -21.36260414123535, 30.081148147583008, -1.019287109375, 0.228759765625, -0.1259765625, 0, 
71, 1050537138, -0.07245481014251709, -0.5684471726417542, 0.4485839605331421, -0.6858612895011902, 7.799373626708984, -4.536337852478027, -0.396703839302063, 2.264134168624878, -20.58031463623047, 28.026241302490234, -1.020751953125, 0.23193359375, -0.123291015625, 0, 
72, 1050545471, -0.07054076343774796, -0.5684946775436401, 0.4496307671070099, -0.6853359341621399, 7.539516925811768, -5.076751232147217, -0.06961485743522644, 2.7161741256713867, -18.25159454345703, 25.20060157775879, -1.01953125, 0.238525390625, -0.125, 0, 
73, 1050553804, -0.06864778697490692, -0.5686572194099426, 0.45063871145248413, -0.6847310066223145, 7.1353888511657715, -5.868438720703125, 0.29297134280204773, 2.5397047996520996, -19.774694442749023, 23.846311569213867, -1.018798828125, 0.23876953125, -0.118408203125, 0, 
74, 1050562137, -0.06681594252586365, -0.5687536597251892, 0.4515186548233032, -0.6842522025108337, 7.000182151794434, -6.592609882354736, 0.4040450155735016, 3.9847841262817383, -17.682172775268555, 22.86159324645996, -1.01806640625, 0.245361328125, -0.119873046875, 0, 
75, 1050570470, -0.064813993871212, -0.5689755082130432, 0.4521317780017853, -0.6838552355766296, 6.699313640594482, -7.07602071762085, 0.4171188473701477, 8.447964668273926, -19.017213821411133, 21.607263565063477, -1.015380859375, 0.24658203125, -0.115966796875, 0, 
76, 1050578803, -0.06260083615779877, -0.5692281126976013, 0.4525163471698761, -0.6835968494415283, 6.667782306671143, -7.320321083068848, 0.5475845336914062, 13.139653205871582, -19.346643447875977, 21.802371978759766, -1.015380859375, 0.253173828125, -0.11767578125, 0, 
77, 1050587136, -0.06012092903256416, -0.5694738626480103, 0.45286229252815247, -0.6833857297897339, 6.527111053466797, -7.2905049324035645, 0.7292099595069885, 15.877796173095703, -20.52628517150879, 24.018726348876953, -1.0146484375, 0.2548828125, -0.114013671875, 0, 
78, 1050595469, -0.057406917214393616, -0.5697290301322937, 0.45339807868003845, -0.6830511689186096, 6.611517429351807, -7.025158882141113, 0.6292743682861328, 15.167130470275879, -23.208948135375977, 27.617433547973633, -1.014892578125, 0.259765625, -0.1123046875, 0, 
79, 1050603802, -0.05456192418932915, -0.5698070526123047, 0.453990638256073, -0.6828256249427795, 6.636187553405762, -6.648846626281738, 0.5925403833389282, 16.195966720581055, -21.540550231933594, 30.405044555664062, -1.01318359375, 0.260009765625, -0.108642578125, 0, 
80, 1050612135, -0.05158009007573128, -0.5698797702789307, 0.45497366786003113, -0.6823423504829407, 6.908219814300537, -6.078464031219482, 1.017314076423645, 11.99288558959961, -24.670429229736328, 34.6660270690918, -1.011962890625, 0.269287109375, -0.10693359375, 0, 
81, 1050620468, -0.04884473979473114, -0.5696179270744324, 0.45640525221824646, -0.6818059086799622, 7.072385311126709, -5.822909355163574, 1.0064387321472168, 5.272955417633057, -20.712615966796875, 37.84186935424805, -1.009765625, 0.272705078125, -0.10400390625, 0, 
82, 1050628801, -0.046457190066576004, -0.5691980123519897, 0.45838555693626404, -0.6809946298599243, 6.879480838775635, -5.772006988525391, 1.11397385597229, -4.418194770812988, -19.57795524597168, 39.76959991455078, -1.007568359375, 0.280029296875, -0.10302734375, 0, 
83, 1050637134, -0.04428812861442566, -0.5688034892082214, 0.4609318673610687, -0.67974853515625, 6.7682785987854, -5.5831804275512695, 0.7603307366371155, -14.163920402526855, -22.20171356201172, 41.6298828125, -1.005859375, 0.284423828125, -0.10009765625, 0, 
84, 1050645467, -0.04169002175331116, -0.5685901641845703, 0.46319249272346497, -0.6785537600517273, 6.646274089813232, -5.728954315185547, -0.48302215337753296, -7.691318988800049, -26.042705535888672, 42.374366760253906, -1.003173828125, 0.291748046875, -0.096435546875, 0, 
85, 1050653800, -0.03885981813073158, -0.5682836771011353, 0.46525225043296814, -0.6775685548782349, 6.549140930175781, -5.713353633880615, -1.0375720262527466, -2.7343640327453613, -24.89630889892578, 43.59616470336914, -1.003662109375, 0.301025390625, -0.093505859375, 0, 
86, 1050662133, -0.03626837208867073, -0.5678643584251404, 0.46739643812179565, -0.6765875220298767, 6.277621746063232, -5.658210277557373, -1.0316624641418457, -5.407202243804932, -22.330995559692383, 42.840728759765625, -1.000244140625, 0.30859375, -0.09326171875, 0, 
87, 1050670466, -0.03426572307944298, -0.5673245191574097, 0.4700508117675781, -0.6753045916557312, 6.126633644104004, -5.535261154174805, -0.8551869988441467, -16.7678279876709, -20.03664779663086, 41.884037017822266, -0.999267578125, 0.314208984375, -0.08837890625, 0, 
88, 1050678799, -0.0329284630715847, -0.5665550827980042, 0.47324639558792114, -0.6737834811210632, 6.17879056930542, -5.456972599029541, -0.6572683453559875, -28.616769790649414, -15.716741561889648, 41.38596725463867, -0.994873046875, 0.321533203125, -0.087646484375, 0, 
89, 1050687132, -0.03176378458738327, -0.5660416483879089, 0.4766789376735687, -0.6718482971191406, 6.103478908538818, -5.257744789123535, -0.6991981267929077, -34.751075744628906, -20.298046112060547, 39.68998718261719, -0.990966796875, 0.327880859375, -0.0849609375, 0, 
90, 1050695465, -0.030704990029335022, -0.5658491849899292, 0.4802144169807434, -0.669538140296936, 6.117959022521973, -5.1656928062438965, -0.8793987035751343, -38.82793045043945, -25.53504753112793, 37.33588409423828, -0.990966796875, 0.33447265625, -0.076416015625, 0, 
91, 1050703798, -0.030465085059404373, -0.565514326095581, 0.4841839373111725, -0.6669681668281555, 6.317538738250732, -5.300833702087402, -0.5720509886741638, -50.986778259277344, -21.01483726501465, 33.913421630859375, -0.98388671875, 0.339111328125, -0.072265625, 0, 
92, 1050712131, -0.03119683265686035, -0.5648521780967712, 0.48867595195770264, -0.6642137765884399, 6.135493278503418, -5.467629909515381, -0.435324490070343, -64.68608856201172, -13.202842712402344, 31.257234573364258, -0.987060546875, 0.34716796875, -0.067138671875, 0, 
93, 1050720464, -0.0324932336807251, -0.5640720725059509, 0.4932039976119995, -0.6614618301391602, 5.812788009643555, -5.617827892303467, -0.8598666191101074, -69.45418548583984, -8.321773529052734, 27.081384658813477, -0.98388671875, 0.352294921875, -0.0625, 0, 
94, 1050728797, -0.034264449030160904, -0.5632737874984741, 0.49755534529685974, -0.6587885022163391, 5.521755695343018, -5.87621545791626, -1.075260043144226, -70.98527526855469, -4.25290584564209, 21.643251419067383, -0.98388671875, 0.357666015625, -0.0595703125, 0, 
95, 1050737130, -0.03627488762140274, -0.5626228451728821, 0.5017716288566589, -0.6560336947441101, 5.262794017791748, -6.156524181365967, -1.2403643131256104, -72.12138366699219, -4.510572910308838, 17.289640426635742, -0.9794921875, 0.36279296875, -0.052490234375, 0, 
96, 1050745463, -0.038160961121320724, -0.5624018907546997, 0.5056889057159424, -0.6531018018722534, 5.371948719024658, -6.38062047958374, -1.12259840965271, -69.4512939453125, -10.477614402770996, 13.136063575744629, -0.9814453125, 0.36767578125, -0.05078125, 0, 
97, 1050753796, -0.03996573016047478, -0.5623394250869751, 0.50913405418396, -0.6503651738166809, 5.468496799468994, -6.553542613983154, -1.2225488424301147, -63.15799331665039, -10.695812225341797, 9.118545532226562, -0.9775390625, 0.373046875, -0.043701171875, 0, 
98, 1050762129, -0.041693512350320816, -0.5624632835388184, 0.5119797587394714, -0.6479111313819885, 5.261907577514648, -6.932994842529297, -1.211869716644287, -55.10309600830078, -10.398703575134277, 4.1184468269348145, -0.978759765625, 0.37158203125, -0.036865234375, 0, 
99, 1050770462, -0.04352285712957382, -0.5627115368843079, 0.5145133137702942, -0.6455639600753784, 5.4343791007995605, -7.5592360496521, -1.2001973390579224, -52.3021125793457, -9.772085189819336, -0.1154436320066452, -0.976806640625, 0.374267578125, -0.03173828125, 0, 
100, 1050778795, -0.04548843204975128, -0.5629541873931885, 0.5168781280517578, -0.6433238387107849, 5.588296413421631, -7.898061275482178, -1.4974151849746704, -51.08639144897461, -7.842930316925049, -2.425865650177002, -0.97802734375, 0.374267578125, -0.03076171875, 0, 
101, 1050787128, -0.04718055576086044, -0.5634610056877136, 0.5188219547271729, -0.6411901712417603, 5.202362537384033, -8.39069938659668, -1.9964966773986816, -44.34407043457031, -11.020736694335938, -5.183088302612305, -0.977294921875, 0.37646484375, -0.027099609375, 0, 
102, 1050795461, -0.04815364256501198, -0.5645560622215271, 0.5200896263122559, -0.6391244530677795, 5.2171502113342285, -8.767454147338867, -2.1924164295196533, -31.924327850341797, -20.387588500976562, -8.128726959228516, -0.978271484375, 0.377685546875, -0.01708984375, 0, 
103, 1050803794, -0.04836250841617584, -0.5656111240386963, 0.5206170678138733, -0.6377447843551636, 5.652810096740723, -8.666789054870605, -2.5537147521972656, -14.626824378967285, -19.667274475097656, -6.533234119415283, -0.9794921875, 0.377197265625, -0.01513671875, 0, 
104, 1050812127, -0.047734007239341736, -0.5670343637466431, 0.520396888256073, -0.6367071866989136, 5.331507205963135, -8.847763061523438, -2.553048610687256, 1.1593265533447266, -25.753219604492188, -7.298844337463379, -0.97802734375, 0.376220703125, -0.01025390625, 0, 
105, 1050820460, -0.04680962860584259, -0.568449854850769, 0.5195959210395813, -0.6361672878265381, 5.832956314086914, -8.792441368103027, -2.688350200653076, 12.080694198608398, -23.514631271362305, -8.97700309753418, -0.981689453125, 0.375732421875, -0.009033203125, 0, 
106, 1050828793, -0.04559982195496559, -0.56972336769104, 0.5181566476821899, -0.6362898349761963, 5.619318008422852, -8.863116264343262, -2.767895221710205, 24.564777374267578, -18.7465877532959, -9.904802322387695, -0.97998046875, 0.375732421875, -0.01123046875, 0, 
107, 1050837126, -0.0440121665596962, -0.5711743235588074, 0.5161525011062622, -0.6367298364639282, 5.44814395904541, -8.80648422241211, -2.3409128189086914, 34.81769943237305, -20.129592895507812, -12.223925590515137, -0.982421875, 0.373046875, -0.00732421875, 0, 
108, 1050845459, -0.04195089265704155, -0.5730434060096741, 0.5135253667831421, -0.6373136043548584, 5.421319484710693, -8.92228889465332, -1.8312761783599854, 45.288761138916016, -25.667680740356445, -15.717549324035645, -0.9814453125, 0.37158203125, -0.00732421875, 0, 
109, 1050853792, -0.039817940443754196, -0.5748354196548462, 0.5106545686721802, -0.6381425857543945, 6.147186279296875, -8.819958686828613, -1.3799036741256714, 49.64787673950195, -23.402320861816406, -16.46601676940918, -0.98583984375, 0.37109375, -0.008056640625, 0, 
110, 1050862125, -0.03813343122601509, -0.5764734745025635, 0.5078564286231995, -0.6390001773834229, 5.63600492477417, -8.51135540008545, -1.714292049407959, 45.60977554321289, -18.740007400512695, -18.587705612182617, -0.98681640625, 0.3671875, -0.0078125, 0, 
111, 1050870458, -0.03650568798184395, -0.578181803226471, 0.504926860332489, -0.6398729681968689, 5.55327844619751, -8.198918342590332, -2.7475101947784424, 46.42799758911133, -18.746788024902344, -20.762659072875977, -0.98974609375, 0.36376953125, -0.01025390625, 0, 
112, 1050878791, -0.03480837121605873, -0.5801624655723572, 0.5017191171646118, -0.6406974196434021, 5.394745349884033, -7.888577938079834, -2.91585636138916, 49.26032257080078, -21.896333694458008, -24.127416610717773, -0.988525390625, 0.363525390625, -0.00732421875, 0, 
113, 1050887124, -0.033557672053575516, -0.5824254155158997, 0.49885421991348267, -0.6409479379653931, 5.494265079498291, -7.186398029327393, -2.730940580368042, 38.81977844238281, -26.019044876098633, -27.705312728881836, -0.992431640625, 0.360107421875, -0.00732421875, 0, 
114, 1050895457, -0.03266143798828125, -0.5851983428001404, 0.49634402990341187, -0.640417218208313, 5.978423118591309, -6.047568321228027, -2.581580877304077, 27.763315200805664, -34.52865219116211, -31.690231323242188, -0.9921875, 0.358154296875, -0.0087890625, 0, 
115, 1050903790, -0.03205372765660286, -0.5885739326477051, 0.49346327781677246, -0.6395798325538635, 7.473644256591797, -4.908459186553955, -1.664089322090149, 26.8472957611084, -40.14142608642578, -41.6303596496582, -0.997802734375, 0.353759765625, -0.003173828125, 0, 
116, 1050912123, -0.0326821431517601, -0.5929489731788635, 0.49050772190093994, -0.6377778649330139, 10.764941215515137, -4.47425651550293, -0.05277666077017784, 11.431055068969727, -48.34230041503906, -60.15021896362305, -0.999755859375, 0.3486328125, 0.005859375, 0, 
117, 1050920456, -0.03578788787126541, -0.5983646512031555, 0.4881020188331604, -0.6343898773193359, 15.258091926574707, -4.506450653076172, 1.1199132204055786, -23.857694625854492, -53.91249465942383, -85.2882080078125, -1.00390625, 0.337158203125, 0.011474609375, 0, 
118, 1050928789, -0.04145051911473274, -0.6027195453643799, 0.48601946234703064, -0.6315151453018188, 17.49982261657715, -5.2097344398498535, 0.46971964836120605, -44.75788116455078, -23.45900535583496, -97.39983367919922, -1.00927734375, 0.3251953125, 0.019775390625, 0, 
119, 1050937122, -0.048804402351379395, -0.6046993136405945, 0.4852530360221863, -0.6296838521957397, 14.597851753234863, -8.184416770935059, -1.6148006916046143, -64.6244888305664, 16.38469886779785, -84.86215209960938, -1.013916015625, 0.312744140625, 0.026611328125, 0, 
120, 1050945455, -0.05559572950005531, -0.6059384346008301, 0.4865529537200928, -0.6269204020500183, 11.902583122253418, -12.59118366241455, -5.300299644470215, -84.51676177978516, 9.889836311340332, -58.33818435668945, -1.01806640625, 0.30517578125, 0.0244140625, 0, 
121, 1050953788, -0.060151759535074234, -0.6064116954803467, 0.48841533064842224, -0.6245896816253662, 11.487848281860352, -16.081016540527344, -6.623094081878662, -68.47125244140625, 4.7242231369018555, -29.068483352661133, -1.02392578125, 0.302001953125, 0.03515625, 0, 
122, 1050962121, -0.06095169484615326, -0.6056172251701355, 0.48902902007102966, -0.6248027086257935, 9.226140022277832, -15.155634880065918, -3.555582284927368, -10.346514701843262, 12.619791984558105, 3.539926767349243, -1.0224609375, 0.297607421875, 0.032470703125, 0, 
123, 1050970454, -0.05780297517776489, -0.6044574975967407, 0.48917636275291443, -0.6261084675788879, 6.36916446685791, -8.154253959655762, -1.130683422088623, 33.5464973449707, -1.2858502864837646, 36.80048751831055, -1.019287109375, 0.303466796875, 0.029296875, 0, 
124, 1050978787, -0.053475432097911835, -0.6037046313285828, 0.48973193764686584, -0.6267846822738647, 7.381982326507568, -0.19608430564403534, -0.990627646446228, 35.959022521972656, -18.297090530395508, 47.25993347167969, -1.015380859375, 0.309326171875, 0.025390625, 0, 
125, 1050987120, -0.05136622488498688, -0.6034568548202515, 0.49019676446914673, -0.6268362402915955, 9.312878608703613, 4.331100940704346, -0.6357763409614563, 14.444646835327148, -12.807421684265137, 23.357486724853516, -1.01611328125, 0.319091796875, 0.02734375, 0, 
126, 1050995453, -0.052284710109233856, -0.6040005087852478, 0.49022194743156433, -0.6262167096138, 10.858717918395996, 4.904501438140869, 0.1333809792995453, -10.80932331085205, -4.500921249389648, -12.028792381286621, -1.01318359375, 0.316162109375, 0.025390625, 0, 
127, 1051003786, -0.05708596855401993, -0.6047704219818115, 0.4903457760810852, -0.6249560713768005, 11.005338668823242, 3.0403552055358887, -0.763167679309845, -48.112159729003906, 14.347705841064453, -46.78367233276367, -1.015380859375, 0.310791015625, 0.031982421875, 0, 
128, 1051012119, -0.06447643786668777, -0.6060185432434082, 0.49010202288627625, -0.6232170462608337, 10.841398239135742, 0.8921794891357422, -2.457735538482666, -69.29267120361328, 23.98792266845703, -75.54007720947266, -1.01806640625, 0.3046875, 0.031982421875, 0, 
129, 1051020452, -0.07269015908241272, -0.6076309084892273, 0.48895859718322754, -0.6216393113136292, 10.496964454650879, -1.7859013080596924, -3.310788154602051, -67.07179260253906, 28.570289611816406, -92.53087615966797, -1.022705078125, 0.29443359375, 0.030029296875, 0, 
130, 1051028785, -0.08062641322612762, -0.6093686819076538, 0.4871196448802948, -0.6204022169113159, 10.494461059570312, -4.200883388519287, -3.4186952114105225, -56.35384750366211, 29.161497116088867, -96.34930419921875, -1.029541015625, 0.28076171875, 0.029541015625, 0, 
131, 1051037118, -0.0875481367111206, -0.6110450029373169, 0.48498162627220154, -0.6194895505905151, 10.012435913085938, -5.248011589050293, -3.2728586196899414, -43.226436614990234, 25.953380584716797, -89.53636169433594, -1.035888671875, 0.26708984375, 0.0322265625, 0, 
132, 1051045451, -0.09325391054153442, -0.6127175092697144, 0.48235419392585754, -0.619056224822998, 9.293879508972168, -5.236976146697998, -2.715097665786743, -25.616989135742188, 22.479413986206055, -82.57847595214844, -1.03662109375, 0.25634765625, 0.031005859375, 0, 
133, 1051053784, -0.09776753187179565, -0.6146476864814758, 0.4791235625743866, -0.6189551949501038, 8.832921981811523, -4.73679256439209, -2.184929609298706, -7.92979097366333, 15.96634292602539, -78.90230560302734, -1.041748046875, 0.24560546875, 0.031494140625, 0, 
134, 1051062117, -0.10128416866064072, -0.6167898774147034, 0.4753187596797943, -0.6191922426223755, 9.13864517211914, -3.6621804237365723, -2.017786979675293, 7.923178195953369, 11.208348274230957, -76.10420989990234, -1.0458984375, 0.232421875, 0.0283203125, 0, 
135, 1051070450, -0.10416118055582047, -0.6189712882041931, 0.471091628074646, -0.6197686195373535, 9.390361785888672, -2.680661678314209, -1.7675414085388184, 19.189809799194336, 10.172680854797363, -74.13035583496094, -1.0478515625, 0.223876953125, 0.0283203125, 0, 
136, 1051078783, -0.10683345794677734, -0.6210197806358337, 0.4667946696281433, -0.6205153465270996, 9.633767127990723, -1.9627808332443237, -1.3405091762542725, 22.467639923095703, 11.517166137695312, -71.76859283447266, -1.053466796875, 0.2109375, 0.025634765625, 0, 
137, 1051087116, -0.10976609587669373, -0.6226726174354553, 0.4628876745700836, -0.6212732195854187, 9.677671432495117, -1.3375043869018555, -1.1183000802993774, 16.385961532592773, 16.095163345336914, -68.20618438720703, -1.053466796875, 0.20263671875, 0.025146484375, 0, 
138, 1051095449, -0.11327701061964035, -0.6238314509391785, 0.459553599357605, -0.6219552159309387, 9.758875846862793, -0.9146888256072998, -1.294040560722351, 5.332432270050049, 22.47188377380371, -65.10794830322266, -1.055908203125, 0.1943359375, 0.0205078125, 0, 
139, 1051103782, -0.11746810376644135, -0.6245938539505005, 0.4566897451877594, -0.6225217580795288, 9.653304100036621, -0.9061082005500793, -1.4481327533721924, -5.898036479949951, 28.44720458984375, -64.65988159179688, -1.06201171875, 0.1865234375, 0.017333984375, 0, 
140, 1051112115, -0.12242880463600159, -0.6250651478767395, 0.4542315602302551, -0.622891366481781, 9.250073432922363, -1.4079158306121826, -1.3838856220245361, -17.660375595092773, 33.41852569580078, -66.16058349609375, -1.064453125, 0.174072265625, 0.011474609375, 0, 
141, 1051120448, -0.1281357705593109, -0.6253185868263245, 0.4522155523300171, -0.6229560375213623, 8.828268051147461, -2.1246097087860107, -1.4468493461608887, -30.155715942382812, 36.5825309753418, -67.98793029785156, -1.068115234375, 0.16357421875, 0.010009765625, 0, 
142, 1051128781, -0.13435055315494537, -0.6254191994667053, 0.4505293667316437, -0.622767448425293, 8.551103591918945, -2.680933713912964, -1.709861397743225, -39.16936111450195, 38.290313720703125, -68.91378021240234, -1.067626953125, 0.15234375, 0.006103515625, 0, 
143, 1051137114, -0.14063005149364471, -0.6254966259002686, 0.4489614963531494, -0.6224352121353149, 8.612954139709473, -2.8082382678985596, -1.7547098398208618, -41.69565963745117, 37.436767578125, -68.6524429321289, -1.06787109375, 0.14306640625, 0.00390625, 0, 
144, 1051145447, -0.14693067967891693, -0.6255013942718506, 0.4473813772201538, -0.6221126914024353, 8.587480545043945, -2.7307848930358887, -2.066282272338867, -41.83162307739258, 38.292083740234375, -68.39248657226562, -1.07177734375, 0.135986328125, -0.002685546875, 0, 
145, 1051153780, -0.15324099361896515, -0.625515878200531, 0.4457123279571533, -0.621773898601532, 8.424324035644531, -2.5304718017578125, -2.1378326416015625, -41.253868103027344, 38.31442642211914, -69.40687561035156, -1.075927734375, 0.126708984375, -0.005126953125, 0, 
146, 1051162113, -0.15954773128032684, -0.6256705522537231, 0.4438558518886566, -0.6213598847389221, 8.615212440490723, -2.3045289516448975, -1.726993441581726, -39.76591491699219, 36.83871078491211, -71.93168640136719, -1.075439453125, 0.114501953125, -0.01025390625, 0, 
147, 1051170446, -0.1659739762544632, -0.6258299350738525, 0.44184067845344543, -0.6209522485733032, 8.913779258728027, -2.2844038009643555, -2.0232110023498535, -39.40814208984375, 37.93386459350586, -74.40569305419922, -1.078369140625, 0.10302734375, -0.01318359375, 0, 
148, 1051178779, -0.17242968082427979, -0.6260554194450378, 0.43968501687049866, -0.6204958558082581, 9.123228073120117, -2.406076192855835, -1.98801589012146, -38.587833404541016, 37.44401168823242, -76.3070297241211, -1.08203125, 0.09130859375, -0.021728515625, 0, 
149, 1051187112, -0.17873352766036987, -0.6263009905815125, 0.4373553991317749, -0.6201104521751404, 9.36352252960205, -2.3966047763824463, -1.6732556819915771, -35.33543395996094, 37.38590621948242, -76.53034210205078, -1.08251953125, 0.082275390625, -0.021728515625, 0, 
150, 1051195445, -0.18491926789283752, -0.6263928413391113, 0.4349215626716614, -0.6199156641960144, 9.506946563720703, -2.376260757446289, -1.846436858177185, -32.64461135864258, 39.877647399902344, -74.95919799804688, -1.08642578125, 0.07275390625, -0.021728515625, 0, 
151, 1051203778, -0.1908821016550064, -0.6264204978942871, 0.43240201473236084, -0.6198428869247437, 9.544641494750977, -2.4540793895721436, -1.7457103729248047, -29.442920684814453, 40.36701583862305, -73.17048645019531, -1.087646484375, 0.06201171875, -0.033203125, 0, 
152, 1051212111, -0.19646309316158295, -0.6264174580574036, 0.42964014410972595, -0.6200227737426758, 9.628031730651855, -2.5015833377838135, -1.3487176895141602, -22.651939392089844, 41.163021087646484, -71.09127807617188, -1.0869140625, 0.049560546875, -0.034912109375, 0, 
153, 1051220444, -0.20167425274848938, -0.6263960003852844, 0.42667829990386963, -0.6204163432121277, 9.615546226501465, -2.5627875328063965, -1.0526715517044067, -16.560277938842773, 41.52396774291992, -69.03765106201172, -1.09033203125, 0.041015625, -0.040283203125, 0, 
154, 1051228777, -0.20676784217357635, -0.6262840628623962, 0.4236885607242584, -0.6209015250205994, 9.464311599731445, -2.535402536392212, -1.1134123802185059, -15.009235382080078, 42.46494674682617, -67.42509460449219, -1.0888671875, 0.03173828125, -0.043701171875, 0, 
155, 1051237110, -0.21189576387405396, -0.6260556578636169, 0.4207974970340729, -0.6213688254356384, 9.321789741516113, -2.347003221511841, -1.2515215873718262, -16.59804344177246, 43.23183822631836, -66.30567169189453, -1.091552734375, 0.023681640625, -0.05126953125, 0, 
156, 1051245443, -0.2170245498418808, -0.6257404088973999, 0.4179811179637909, -0.6218171119689941, 9.274398803710938, -2.1850013732910156, -1.4985136985778809, -17.593366622924805, 43.590492248535156, -65.15824890136719, -1.09375, 0.01220703125, -0.05810546875, 0, 
157, 1051253776, -0.22203794121742249, -0.625406801700592, 0.41515326499938965, -0.6222769021987915, 9.197718620300293, -2.053253173828125, -1.6852973699569702, -16.501676559448242, 43.22262954711914, -64.19412994384766, -1.093017578125, 0.00244140625, -0.064208984375, 0, 
158, 1051262109, -0.2269122153520584, -0.6251024007797241, 0.41227754950523376, -0.6227362155914307, 9.141035079956055, -2.021421432495117, -1.6860747337341309, -14.797830581665039, 42.3165397644043, -63.519798278808594, -1.09228515625, -0.010986328125, -0.072265625, 0, 
159, 1051270442, -0.23167140781879425, -0.6247841119766235, 0.40941330790519714, -0.6231927275657654, 8.9788236618042, -2.014838457107544, -1.7059435844421387, -13.975247383117676, 41.729270935058594, -62.42714309692383, -1.09375, -0.01708984375, -0.076416015625, 0, 
160, 1051278775, -0.2363460212945938, -0.6244822144508362, 0.40663716197013855, -0.6235575079917908, 8.911332130432129, -1.9757636785507202, -1.6008963584899902, -14.458054542541504, 40.03598403930664, -61.26894760131836, -1.09423828125, -0.02783203125, -0.080078125, 0, 
161, 1051287108, -0.24092614650726318, -0.6241599917411804, 0.40395402908325195, -0.6238710284233093, 8.995553970336914, -1.8303626775741577, -1.7464542388916016, -14.80854320526123, 38.95085525512695, -59.77446365356445, -1.095458984375, -0.037841796875, -0.088134765625, 0, 
162, 1051295441, -0.24540728330612183, -0.6237884759902954, 0.40126264095306396, -0.6242326498031616, 9.062438011169434, -1.7330254316329956, -1.9505847692489624, -13.772797584533691, 39.25296401977539, -58.50128173828125, -1.093994140625, -0.045654296875, -0.092041015625, 0, 
163, 1051303774, -0.24979877471923828, -0.6234147548675537, 0.39858412742614746, -0.6245802044868469, 9.125724792480469, -1.7024869918823242, -2.1319289207458496, -13.2073335647583, 38.62440872192383, -57.7176399230957, -1.094482421875, -0.05859375, -0.100341796875, 0, 
164, 1051312107, -0.2540491819381714, -0.6231293678283691, 0.3958548605442047, -0.6248863935470581, 9.118622779846191, -1.6669241189956665, -2.1947929859161377, -11.47746753692627, 36.901485443115234, -57.505672454833984, -1.095458984375, -0.06005859375, -0.10595703125, 0, 
165, 1051320440, -0.2581033706665039, -0.6229752898216248, 0.39291730523109436, -0.6252323389053345, 9.166494369506836, -1.6992933750152588, -2.120643138885498, -7.340787887573242, 35.78739929199219, -58.240291595458984, -1.09326171875, -0.07177734375, -0.111328125, 0, 
166, 1051328773, -0.26190292835235596, -0.6230193972587585, 0.38969555497169495, -0.6256245374679565, 9.245593070983887, -1.8154332637786865, -1.8908889293670654, -1.7535834312438965, 34.098541259765625, -59.33393096923828, -1.0927734375, -0.07763671875, -0.1142578125, 0, 
167, 1051337106, -0.2653631269931793, -0.6233543157577515, 0.38616713881492615, -0.6260205507278442, 9.101362228393555, -1.945937991142273, -1.6768099069595337, 4.85366153717041, 30.930877685546875, -60.64580535888672, -1.09619140625, -0.084716796875, -0.119384765625, 0, 
168, 1051345439, -0.2684241235256195, -0.6239991784095764, 0.382287859916687, -0.62645423412323, 8.930746078491211, -2.116790771484375, -1.4547085762023926, 12.633825302124023, 27.73068618774414, -61.66350173950195, -1.092041015625, -0.09716796875, -0.121826171875, 0, 
169, 1051353772, -0.2710590958595276, -0.62494295835495, 0.37802547216415405, -0.6269651055335999, 8.605466842651367, -2.160297155380249, -1.0879552364349365, 21.09288787841797, 25.010705947875977, -62.62963104248047, -1.09228515625, -0.10546875, -0.123291015625, 0, 
170, 1051362105, -0.27335813641548157, -0.6261968016624451, 0.3734842836856842, -0.6274374723434448, 8.41006088256836, -2.2362093925476074, -0.8771477341651917, 27.345077514648438, 21.280776977539062, -63.82443618774414, -1.0888671875, -0.116943359375, -0.130615234375, 0, 
171, 1051370438, -0.2755815386772156, -0.6276016235351562, 0.36887437105178833, -0.6277880072593689, 8.409920692443848, -2.3239693641662598, -0.9925425052642822, 28.526107788085938, 18.819087982177734, -65.06018829345703, -1.0888671875, -0.12841796875, -0.13134765625, 0, 
172, 1051378771, -0.2779272794723511, -0.6289690136909485, 0.3643578290939331, -0.6280229687690735, 8.417000770568848, -2.4292843341827393, -1.014246940612793, 25.942384719848633, 18.39109230041504, -65.49298095703125, -1.08642578125, -0.137939453125, -0.1328125, 0, 
173, 1051387104, -0.2804085910320282, -0.6303024888038635, 0.3599783778190613, -0.62810879945755, 8.341219902038574, -2.539577007293701, -0.9614600539207458, 22.70390510559082, 17.56935691833496, -65.94819641113281, -1.088623046875, -0.150634765625, -0.135498046875, 0, 
174, 1051395437, -0.28304219245910645, -0.6315804123878479, 0.3558350205421448, -0.6280049085617065, 8.533819198608398, -2.7399373054504395, -0.8510823249816895, 18.195035934448242, 16.229724884033203, -65.60540771484375, -1.089111328125, -0.15966796875, -0.13671875, 0, 
175, 1051403770, -0.28578826785087585, -0.6327486634254456, 0.3519619107246399, -0.6277675628662109, 8.788924217224121, -2.9936861991882324, -0.9058021306991577, 13.798815727233887, 15.537362098693848, -64.28330993652344, -1.092529296875, -0.167724609375, -0.135498046875, 0, 
176, 1051412103, -0.28855642676353455, -0.6338326334953308, 0.3483104407787323, -0.627444326877594, 8.955070495605469, -3.2460455894470215, -1.09927499294281, 10.95211124420166, 14.729787826538086, -62.403785705566406, -1.088134765625, -0.179931640625, -0.139892578125, 0, 
177, 1051420436, -0.29116523265838623, -0.6349520683288574, 0.3447151184082031, -0.6270927786827087, 8.974164962768555, -3.374823808670044, -1.3289031982421875, 11.86095905303955, 13.215008735656738, -60.897945404052734, -1.087158203125, -0.18896484375, -0.14208984375, 0, 
178, 1051428769, -0.29347795248031616, -0.6362195611000061, 0.3410187363624573, -0.6267510056495667, 8.867140769958496, -3.60278058052063, -1.4704806804656982, 15.95699405670166, 11.004002571105957, -59.813201904296875, -1.087158203125, -0.1962890625, -0.14208984375, 0, 
179, 1051437102, -0.2955378293991089, -0.6376214027404785, 0.33727166056632996, -0.6263860464096069, 8.828696250915527, -3.975806951522827, -1.581498146057129, 19.03376007080078, 8.68372917175293, -58.886688232421875, -1.0859375, -0.20703125, -0.138671875, 0, 
180, 1051445435, -0.2973896861076355, -0.6391103267669678, 0.3334886431694031, -0.6260174512863159, 8.715126037597656, -4.476716041564941, -1.7696887254714966, 21.511659622192383, 7.0588836669921875, -57.74307632446289, -1.083740234375, -0.21435546875, -0.144287109375, 0, 
181, 1051453768, -0.299151211977005, -0.6405055522918701, 0.32978197932243347, -0.6257158517837524, 8.573321342468262, -4.92665433883667, -2.00642728805542, 21.561891555786133, 7.755259990692139, -55.685401916503906, -1.08154296875, -0.223388671875, -0.141357421875, 0, 
182, 1051462101, -0.30086296796798706, -0.6417297124862671, 0.32619354128837585, -0.6255218386650085, 8.236624717712402, -5.257341384887695, -2.3554649353027344, 20.77759552001953, 9.436220169067383, -52.902408599853516, -1.080322265625, -0.23291015625, -0.142578125, 0, 
183, 1051470434, -0.3024323582649231, -0.6429315805435181, 0.3226756751537323, -0.6253553628921509, 8.237761497497559, -5.4694061279296875, -2.5582096576690674, 21.4499454498291, 8.96863079071045, -50.94779968261719, -1.082275390625, -0.2421875, -0.144287109375, 0, 
184, 1051478767, -0.3036590814590454, -0.6442634463310242, 0.318991094827652, -0.6252803802490234, 8.580737113952637, -5.664675235748291, -2.5811219215393066, 26.867244720458984, 7.804998874664307, -49.56527328491211, -1.081298828125, -0.2470703125, -0.14208984375, 0, 
185, 1051487100, -0.3043577969074249, -0.6457923054695129, 0.31503814458847046, -0.6253679394721985, 8.9227294921875, -5.604095458984375, -2.632422685623169, 35.375972747802734, 6.389657497406006, -47.70753479003906, -1.07958984375, -0.25390625, -0.143310546875, 0, 
186, 1051495433, -0.3043711185455322, -0.6476248502731323, 0.31075021624565125, -0.6256116628646851, 9.20088005065918, -5.225049018859863, -2.61932110786438, 46.30311965942383, 3.561122179031372, -45.33078384399414, -1.0810546875, -0.263427734375, -0.14453125, 0, 
187, 1051503766, -0.30383074283599854, -0.6496213674545288, 0.30627259612083435, -0.62601238489151, 9.63970947265625, -4.767416477203369, -2.8194875717163086, 54.20542907714844, 2.0172832012176514, -42.437835693359375, -1.07080078125, -0.26904296875, -0.139892578125, 0, 
188, 1051512099, -0.302895724773407, -0.6516104936599731, 0.3017352521419525, -0.6266013979911804, 10.248576164245605, -4.312961101531982, -2.583688259124756, 59.02528762817383, 2.311617851257324, -38.617942810058594, -1.076171875, -0.276611328125, -0.140869140625, 0, 
189, 1051520432, -0.30177196860313416, -0.6533054113388062, 0.2973720133304596, -0.6274639964103699, 10.791219711303711, -3.955183744430542, -2.5638155937194824, 59.109920501708984, 5.833012580871582, -33.221466064453125, -1.07470703125, -0.28759765625, -0.141357421875, 0, 
190, 1051528765, -0.3008217513561249, -0.6542614698410034, 0.2933531403541565, -0.6288145184516907, 11.00224781036377, -3.8893795013427734, -2.008809804916382, 53.52402114868164, 15.829096794128418, -26.430490493774414, -1.07421875, -0.28662109375, -0.140869140625, 0, 
191, 1051537098, -0.30013614892959595, -0.6544691324234009, 0.28996527194976807, -0.6304948925971985, 10.7320556640625, -4.16721773147583, -1.6427816152572632, 43.90658187866211, 23.770389556884766, -18.819055557250977, -1.073974609375, -0.291015625, -0.14306640625, 0, 
192, 1051545431, -0.2996461093425751, -0.654133141040802, 0.2875072956085205, -0.6321999430656433, 10.540512084960938, -4.7136640548706055, -1.6410322189331055, 31.95553207397461, 25.602094650268555, -9.7139310836792, -1.07373046875, -0.30078125, -0.14501953125, 0, 
193, 1051553764, -0.2993316948413849, -0.6533763408660889, 0.28629162907600403, -0.6336814165115356, 10.655813217163086, -5.455475330352783, -2.117159843444824, 16.938743591308594, 22.87456703186035, 0.5024620294570923, -1.074462890625, -0.301025390625, -0.151123046875, 0, 
194, 1051562097, -0.29913318157196045, -0.6522632241249084, 0.2863123416900635, -0.6349114179611206, 10.937857627868652, -6.162478923797607, -2.8430967330932617, 2.6855127811431885, 19.037853240966797, 11.142132759094238, -1.073974609375, -0.29541015625, -0.15234375, 0, 
195, 1051570430, -0.2986539900302887, -0.6508645415306091, 0.2872355580329895, -0.6361541748046875, 11.16579532623291, -6.66090202331543, -3.3500170707702637, -3.819007635116577, 16.879623413085938, 22.676156997680664, -1.072998046875, -0.289794921875, -0.15234375, 0, 
196, 1051578763, -0.2974811792373657, -0.6492215991020203, 0.28857100009918213, -0.6377759575843811, 11.176743507385254, -7.039395809173584, -3.2825522422790527, -0.7057754993438721, 17.924440383911133, 35.14368438720703, -1.076171875, -0.2861328125, -0.154541015625, 0, 
197, 1051587096, -0.295505553483963, -0.6472915410995483, 0.2905102074146271, -0.6397727131843567, 11.225500106811523, -7.441531658172607, -3.0442028045654297, 1.462025761604309, 18.19518280029297, 50.041419982910156, -1.074951171875, -0.280029296875, -0.157470703125, 0, 
198, 1051595429, -0.2930152416229248, -0.6449015736579895, 0.2934695780277252, -0.6419772505760193, 10.88650894165039, -7.550298690795898, -2.9042294025421143, -3.9529848098754883, 17.82805633544922, 66.53797912597656, -1.07470703125, -0.268310546875, -0.166259765625, 0, 
199, 1051603762, -0.2899504005908966, -0.642006516456604, 0.29728320240974426, -0.6445109248161316, 10.176340103149414, -7.656623363494873, -2.2300992012023926, -7.123236656188965, 19.51644515991211, 82.32538604736328, -1.08251953125, -0.25341796875, -0.1650390625, 0, 
200, 1051612095, -0.28623804450035095, -0.6386972069740295, 0.30161839723587036, -0.6474373936653137, 9.269899368286133, -7.958309173583984, -1.2872215509414673, -6.057997703552246, 21.858108520507812, 96.15475463867188, -1.081787109375, -0.240478515625, -0.170654296875, 0, 
201, 1051620428, -0.28213316202163696, -0.6348026990890503, 0.3067188560962677, -0.6506651043891907, 9.109030723571777, -8.305452346801758, -0.19126959145069122, -10.489211082458496, 25.15192413330078, 109.7359619140625, -1.084716796875, -0.225341796875, -0.173095703125, 0, 
202, 1051628761, -0.27805349230766296, -0.6301000714302063, 0.3130241632461548, -0.6539811491966248, 9.306439399719238, -8.436338424682617, 0.6632610559463501, -24.241771697998047, 28.50725555419922, 124.0277099609375, -1.084228515625, -0.202392578125, -0.1787109375, 0, 
203, 1051637094, -0.2739698886871338, -0.6246679425239563, 0.32076913118362427, -0.6571552157402039, 9.860952377319336, -7.639490604400635, 0.49706098437309265, -40.562625885009766, 28.39836311340332, 138.86724853515625, -1.08740234375, -0.181884765625, -0.183837890625, 0, 
204, 1051645427, -0.2693040072917938, -0.6191022396087646, 0.3298906981945038, -0.6598296761512756, 10.716277122497559, -5.839947700500488, -0.484221488237381, -50.70006561279297, 17.477453231811523, 154.93019104003906, -1.08642578125, -0.15673828125, -0.185791015625, 0, 
205, 1051653760, -0.26386258006095886, -0.6137255430221558, 0.34022191166877747, -0.6618019342422485, 12.063971519470215, -3.6911892890930176, -0.8798860311508179, -57.5712776184082, 1.871837854385376, 168.5221710205078, -1.087890625, -0.128662109375, -0.191650390625, 0, 
206, 1051662093, -0.2578810155391693, -0.6086122393608093, 0.35125958919525146, -0.6631141901016235, 14.15596866607666, -1.4850659370422363, -0.4987788200378418, -61.56266784667969, -11.27290153503418, 176.06065368652344, -1.09033203125, -0.09912109375, -0.192626953125, 0, 
207, 1051670426, -0.2516235113143921, -0.6036913990974426, 0.36243242025375366, -0.6640033721923828, 16.299272537231445, 0.3744716942310333, 0.3262077569961548, -61.85039520263672, -18.2877254486084, 176.98350524902344, -1.088134765625, -0.068359375, -0.188720703125, 0, 
208, 1051678759, -0.24604173004627228, -0.5984224677085876, 0.3733219504356384, -0.6648309230804443, 18.023069381713867, 2.014751672744751, 0.8214936852455139, -66.38178253173828, -11.364832878112793, 170.27630615234375, -1.087158203125, -0.038818359375, -0.18896484375, 0, 
209, 1051687092, -0.2415565401315689, -0.5926235914230347, 0.3833068311214447, -0.6659870743751526, 17.912240982055664, 2.255819320678711, 0.8646916747093201, -67.23949432373047, 4.974936485290527, 156.35182189941406, -1.085693359375, -0.007080078125, -0.19091796875, 0, 
210, 1051695425, -0.23737555742263794, -0.5873500108718872, 0.39212566614151, -0.667027473449707, 15.45553970336914, 0.9922870993614197, 0.8391684889793396, -57.90570831298828, 4.595378398895264, 141.19613647460938, -1.08349609375, 0.016357421875, -0.18896484375, 0, 
211, 1051703758, -0.23310022056102753, -0.5832337737083435, 0.4003048539161682, -0.6672884225845337, 13.934507369995117, -1.1000349521636963, 0.9853881001472473, -51.69459533691406, -10.632955551147461, 127.8416748046875, -1.080322265625, 0.034423828125, -0.191162109375, 0, 
212, 1051712091, -0.22903817892074585, -0.5797945261001587, 0.40849190950393677, -0.6667304039001465, 13.27868366241455, -2.733707904815674, 0.8404549956321716, -55.823020935058594, -22.368663787841797, 119.86204528808594, -1.076416015625, 0.0595703125, -0.185791015625, 0, 
213, 1051720424, -0.22520282864570618, -0.576448917388916, 0.4168311059474945, -0.6657758355140686, 12.845442771911621, -4.09450101852417, 0.501472532749176, -60.94692611694336, -25.491695404052734, 116.96820831298828, -1.07421875, 0.080810546875, -0.178955078125, 0, 
214, 1051728757, -0.2215760201215744, -0.5728431940078735, 0.42536404728889465, -0.6647070050239563, 12.069807052612305, -4.817212104797363, 0.010463245213031769, -65.84443664550781, -23.520111083984375, 117.98613739013672, -1.069091796875, 0.103759765625, -0.173095703125, 0, 
215, 1051737090, -0.21810698509216309, -0.5690197944641113, 0.4342306852340698, -0.6634039878845215, 11.057262420654297, -5.1120924949646, -0.093693807721138, -72.1651382446289, -23.368289947509766, 119.48029327392578, -1.067138671875, 0.1259765625, -0.168701171875, 0, 
216, 1051745423, -0.21477028727531433, -0.5651555061340332, 0.44352298974990845, -0.66164630651474, 10.102460861206055, -4.8797383308410645, -0.115199975669384, -79.92705535888672, -27.143537521362305, 120.73690032958984, -1.060791015625, 0.149658203125, -0.162841796875, 0, 
217, 1051753756, -0.21090616285800934, -0.5617052912712097, 0.45264652371406555, -0.6596453785896301, 10.164141654968262, -4.062193393707275, -0.27498552203178406, -74.54452514648438, -35.40776062011719, 120.72924041748047, -1.0576171875, 0.169189453125, -0.155517578125, 0, 
218, 1051762089, -0.20613795518875122, -0.5588977336883545, 0.460917204618454, -0.6578077673912048, 10.35897445678711, -3.3288779258728027, -0.14042925834655762, -56.95271682739258, -43.238826751708984, 119.06705474853516, -1.048828125, 0.1875, -0.145751953125, 0, 
219, 1051770422, -0.20032991468906403, -0.5566408634185791, 0.46815428137779236, -0.6564038395881653, 10.639702796936035, -2.4190304279327393, -0.35550162196159363, -35.290138244628906, -48.43925476074219, 118.01667022705078, -1.04296875, 0.2099609375, -0.135986328125, 0, 
220, 1051778755, -0.1933465451002121, -0.5547744631767273, 0.47408995032310486, -0.655817449092865, 11.083338737487793, -1.4346950054168701, -0.5403146147727966, -8.218191146850586, -49.7985954284668, 118.65309143066406, -1.037109375, 0.2265625, -0.1298828125, 0, 
221, 1051787088, -0.18556365370750427, -0.553078293800354, 0.4788989722728729, -0.6560043096542358, 10.770042419433594, -1.0751550197601318, -0.06499636173248291, 13.545065879821777, -47.5377311706543, 117.96837615966797, -1.0302734375, 0.24462890625, -0.12451171875, 0, 
222, 1051795421, -0.17749837040901184, -0.5515250563621521, 0.4833527207374573, -0.6562773585319519, 10.534326553344727, -0.6598146557807922, 0.27075543999671936, 19.820388793945312, -49.23939895629883, 117.33795166015625, -1.02490234375, 0.26123046875, -0.119140625, 0, 
223, 1051803754, -0.16918113827705383, -0.5499049425125122, 0.4876323938369751, -0.6566673517227173, 10.762432098388672, -0.3426849842071533, 0.743680477142334, 23.927783966064453, -48.8871955871582, 118.78569030761719, -1.019287109375, 0.279052734375, -0.109130859375, 0, 
224, 1051812087, -0.1612596958875656, -0.5481355786323547, 0.49203619360923767, -0.6568548083305359, 10.713526725769043, 0.19213730096817017, 0.6855033040046692, 18.09708595275879, -46.81747055053711, 116.91645812988281, -1.0087890625, 0.294921875, -0.105224609375, 0, 
225, 1051820420, -0.1530526876449585, -0.5466782450675964, 0.4960043728351593, -0.6570485830307007, 9.87332820892334, 0.2627336084842682, 0.7396621704101562, 24.932905197143555, -50.450843811035156, 113.88883972167969, -1.00390625, 0.310546875, -0.1005859375, 0, 
226, 1051828753, -0.14558158814907074, -0.5448839664459229, 0.5002226233482361, -0.6570391654968262, 9.543763160705566, -0.17375963926315308, 1.2483322620391846, 15.031214714050293, -44.544071197509766, 111.21665954589844, -0.995361328125, 0.326171875, -0.096435546875, 0, 
227, 1051837086, -0.1384051889181137, -0.5435316562652588, 0.5044368505477905, -0.6564875841140747, 8.284679412841797, -0.023342536762356758, 0.7783510684967041, 10.027811050415039, -50.46898651123047, 104.18666076660156, -0.98974609375, 0.342529296875, -0.092529296875, 0, 
228, 1051845419, -0.13103698194026947, -0.5430199503898621, 0.5082444548606873, -0.6554855704307556, 8.28669548034668, -0.147584468126297, 0.4390558898448944, 13.59610366821289, -62.075538635253906, 96.40184020996094, -0.982421875, 0.357666015625, -0.08642578125, 0, 
229, 1051853752, -0.1236971765756607, -0.5432816743850708, 0.5115540623664856, -0.6541189551353455, 7.640219211578369, -0.15747840702533722, 0.26756665110588074, 16.730192184448242, -70.58771514892578, 86.16407012939453, -0.973876953125, 0.371337890625, -0.074462890625, 0, 
230, 1051862085, -0.11637874692678452, -0.5442342758178711, 0.5141750574111938, -0.6526132822036743, 7.5924553871154785, -0.3032948672771454, 0.26683309674263, 22.94858741760254, -76.60564422607422, 75.93109893798828, -0.96875, 0.381103515625, -0.065673828125, 0, 
231, 1051870418, -0.10928944498300552, -0.5453439950942993, 0.5159541368484497, -0.6515077948570251, 7.4393510818481445, -0.3127864599227905, 0.4254980981349945, 31.8769474029541, -71.96696472167969, 66.91549682617188, -0.962646484375, 0.38818359375, -0.05712890625, 0, 
232, 1051878751, -0.10240457952022552, -0.5465900897979736, 0.5172473192214966, -0.6505561470985413, 6.974950790405273, -0.4406963288784027, 0.3796541690826416, 35.986995697021484, -69.94048309326172, 60.88947677612305, -0.957275390625, 0.396484375, -0.0546875, 0, 
233, 1051887084, -0.09579405933618546, -0.5477404594421387, 0.5181005001068115, -0.6499161720275879, 6.848458290100098, -0.34653007984161377, 0.2522929608821869, 39.94843292236328, -64.09082794189453, 56.072444915771484, -0.95263671875, 0.406494140625, -0.046875, 0, 
234, 1051895417, -0.0894269347190857, -0.5488476157188416, 0.5184186100959778, -0.6496358513832092, 6.286501407623291, -0.25268566608428955, 0.3795076608657837, 45.398067474365234, -58.63701629638672, 50.825252532958984, -0.94482421875, 0.41357421875, -0.042236328125, 0, 
235, 1051903750, -0.08337856829166412, -0.5498147010803223, 0.5184064507484436, -0.6496322154998779, 6.140654563903809, -0.07971866428852081, 0.5481584072113037, 47.74811553955078, -52.54775619506836, 46.6553840637207, -0.941650390625, 0.41796875, -0.038818359375, 0, 
236, 1051912083, -0.07768383622169495, -0.5508493185043335, 0.5183148980140686, -0.6495347023010254, 6.330986022949219, 0.3581309914588928, 0.5732883214950562, 45.18582534790039, -51.31740951538086, 42.47567367553711, -0.93408203125, 0.425537109375, -0.0341796875, 0, 
237, 1051920416, -0.07257021218538284, -0.5518338084220886, 0.5179517269134521, -0.6495802402496338, 6.23827600479126, 0.8978869915008545, 0.394740492105484, 44.17877960205078, -45.29278564453125, 35.57696533203125, -0.931640625, 0.431640625, -0.029541015625, 0, 
238, 1051928749, -0.06788718700408936, -0.5529864430427551, 0.5173801183700562, -0.6495618224143982, 5.626380920410156, 1.4719836711883545, 0.4815165400505066, 42.48305130004883, -44.06754684448242, 29.0484676361084, -0.927001953125, 0.4326171875, -0.02880859375, 0, 
239, 1051937082, -0.06349024921655655, -0.5554688572883606, 0.5168638229370117, -0.6482979655265808, 6.247488021850586, 2.118436813354492, 0.49409034848213196, 32.19682312011719, -63.372222900390625, 16.142974853515625, -0.9267578125, 0.435791015625, -0.02294921875, 0, 
240, 1051945415, -0.060613133013248444, -0.5583956241607666, 0.5166797637939453, -0.6462024450302124, 6.746163368225098, 2.846662759780884, 0.39101505279541016, 12.100515365600586, -63.23451232910156, 1.3932400941848755, -0.923583984375, 0.4365234375, -0.020263671875, 0, 
241, 1051953748, -0.05913146585226059, -0.562069833278656, 0.5165671110153198, -0.6432375907897949, 6.951392650604248, 3.2482967376708984, 0.598759114742279, -4.801626682281494, -66.64338684082031, -16.6279239654541, -0.921142578125, 0.439208984375, -0.0087890625, 0, 
242, 1051962081, -0.058544889092445374, -0.5663542151451111, 0.5159941911697388, -0.6399848461151123, 7.121288776397705, 3.3295764923095703, 1.3685353994369507, -9.19913101196289, -67.58641815185547, -32.53742980957031, -0.923828125, 0.4345703125, 0.001708984375, 0, 
243, 1051970414, -0.05900699645280838, -0.5707553029060364, 0.5152221918106079, -0.6366458535194397, 6.43551778793335, 3.078449249267578, 2.3812403678894043, -16.12972640991211, -61.63368225097656, -44.32863998413086, -0.923583984375, 0.43408203125, 0.01318359375, 0, 
244, 1051978747, -0.06103470176458359, -0.5746675133705139, 0.5147082805633545, -0.6333423852920532, 6.329013347625732, 2.3086347579956055, 3.554994821548462, -30.825965881347656, -46.240333557128906, -52.403404235839844, -0.92529296875, 0.423095703125, 0.021240234375, 0, 
245, 1051987080, -0.06510449945926666, -0.577488362789154, 0.5150192379951477, -0.6301102638244629, 6.386611461639404, 1.0251185894012451, 4.802262783050537, -54.56025695800781, -22.37129783630371, -55.980140686035156, -0.927001953125, 0.42138671875, 0.032958984375, 0, 
246, 1051995413, -0.07169550657272339, -0.5793238282203674, 0.5169700980186462, -0.6260994672775269, 6.525378704071045, -0.41279226541519165, 5.187430381774902, -95.18606567382812, -3.669804334640503, -58.426292419433594, -0.92822265625, 0.413818359375, 0.03955078125, 0, 
247, 1052003746, -0.0811152458190918, -0.5802919864654541, 0.5204794406890869, -0.6211263537406921, 6.741952419281006, -2.0724189281463623, 4.3075995445251465, -138.84742736816406, 14.734986305236816, -65.23149871826172, -0.930419921875, 0.405029296875, 0.05126953125, 0, 
248, 1052012079, -0.09337283670902252, -0.580467700958252, 0.5249075889587402, -0.6154884696006775, 7.241365909576416, -4.188103675842285, 2.304149627685547, -174.9746856689453, 35.4564323425293, -77.12818908691406, -0.935546875, 0.3984375, 0.05810546875, 0, 
249, 1052020412, -0.1077466681599617, -0.5800848603248596, 0.5292255282402039, -0.6097768545150757, 6.224365234375, -6.573533058166504, 0.33248984813690186, -192.2018280029297, 55.03367233276367, -92.05457305908203, -0.94384765625, 0.387939453125, 0.065673828125, 0, 
250, 1052028745, -0.12176790833473206, -0.5806787014007568, 0.5325139164924622, -0.6036796569824219, 6.080059051513672, -8.777599334716797, -2.020509958267212, -182.098388671875, 42.70632553100586, -104.91925048828125, -0.9443359375, 0.374755859375, 0.075927734375, 0, 
251, 1052037078, -0.13490167260169983, -0.5812793374061584, 0.5348157286643982, -0.5982500910758972, 7.049177169799805, -11.80880355834961, -7.3000993728637695, -161.93858337402344, 43.14908218383789, -104.43548583984375, -0.949951171875, 0.361328125, 0.0810546875, 0, 
252, 1052045411, -0.1468087136745453, -0.5816433429718018, 0.537555456161499, -0.592610776424408, 7.670436859130859, -16.58207893371582, -13.140876770019531, -157.69935607910156, 33.5684700012207, -89.41602325439453, -0.955078125, 0.34912109375, 0.091552734375, 0, 
253, 1052053744, -0.1561688780784607, -0.5813353657722473, 0.5417192578315735, -0.5866991281509399, 7.438695430755615, -20.318408966064453, -15.713924407958984, -152.320556640625, 15.190091133117676, -52.93941879272461, -0.9599609375, 0.33935546875, 0.095458984375, 0, 
254, 1052062077, -0.16012147068977356, -0.58131343126297, 0.5448769927024841, -0.5827178359031677, 6.8842973709106445, -21.755197525024414, -16.30523681640625, -85.95775604248047, -9.83346176147461, -15.250372886657715, -0.961181640625, 0.335693359375, 0.09814453125, 0, 
255, 1052070410, -0.15860195457935333, -0.5822246670722961, 0.5468427538871765, -0.5803773999214172, 6.178192138671875, -19.940996170043945, -14.807390213012695, -18.329635620117188, -42.51198196411133, 15.57244873046875, -0.950439453125, 0.334716796875, 0.109619140625, 0, 
256, 1052078743, -0.1533007174730301, -0.5836431980133057, 0.5471016764640808, -0.5801331400871277, 7.0303544998168945, -17.516172409057617, -12.324105262756348, 42.455078125, -54.55252456665039, 32.96352005004883, -0.94970703125, 0.33740234375, 0.11669921875, 0, 
257, 1052087076, -0.14789976179599762, -0.5841342806816101, 0.5470810532569885, -0.5810595154762268, 6.81180477142334, -16.514659881591797, -8.765953063964844, 52.32593536376953, -37.82993698120117, 40.80295181274414, -0.9443359375, 0.34765625, 0.119873046875, 0, 
258, 1052095409, -0.14317867159843445, -0.5838325023651123, 0.5477681756019592, -0.5818976163864136, 5.993502616882324, -14.684889793395996, -6.594295024871826, 38.94489288330078, -28.61928367614746, 46.99806594848633, -0.9375, 0.3544921875, 0.1201171875, 0, 
259, 1052103742, -0.13797032833099365, -0.5830943584442139, 0.5493622422218323, -0.5823931694030762, 6.423232078552246, -11.671131134033203, -5.894913196563721, 32.1383171081543, -33.22230529785156, 60.60353088378906, -0.9306640625, 0.3603515625, 0.123046875, 0, 
260, 1052112075, -0.13167119026184082, -0.5821226239204407, 0.5522668361663818, -0.5820762515068054, 8.408068656921387, -8.0210542678833, -6.905604362487793, 23.829898834228516, -48.70241165161133, 80.25896453857422, -0.923828125, 0.369873046875, 0.124755859375, 0, 
261, 1052120408, -0.12272229790687561, -0.5826218128204346, 0.5557786226272583, -0.5801866054534912, 12.991039276123047, -3.3383231163024902, -9.221826553344727, 30.878520965576172, -94.17265319824219, 92.10014343261719, -0.9150390625, 0.38232421875, 0.131103515625, 0, 
262, 1052128741, -0.10669464617967606, -0.5890069007873535, 0.5541843771934509, -0.5784308314323425, 19.24986457824707, 2.9035093784332275, -10.352697372436523, 139.31524658203125, -185.6704559326172, 63.12317657470703, -0.901611328125, 0.392333984375, 0.145263671875, 0, 
263, 1052137074, -0.08680762350559235, -0.5975601077079773, 0.5415017604827881, -0.5849592685699463, 20.096263885498047, 2.9175901412963867, -2.672224521636963, 325.0901794433594, -148.847900390625, -0.5765516757965088, -0.89599609375, 0.39697265625, 0.150146484375, 0, 
264, 1052145407, -0.07216466963291168, -0.6027306318283081, 0.5255180597305298, -0.5961158275604248, 15.58847427368164, -3.0865988731384277, 10.101200103759766, 339.0019226074219, -40.722862243652344, -38.95988464355469, -0.896484375, 0.3974609375, 0.135498046875, 0, 
265, 1052153740, -0.06455061584711075, -0.6057969331741333, 0.5147289037704468, -0.6032517552375793, 9.276559829711914, -10.475975036621094, 11.85601806640625, 206.97654724121094, -11.054644584655762, -42.494998931884766, -0.8994140625, 0.396240234375, 0.11669921875, 0, 
266, 1052162073, -0.06303022056818008, -0.609261155128479, 0.5115556716918945, -0.6026224493980408, 7.664710998535156, -16.66568374633789, -2.1793758869171143, 38.430904388427734, -42.77290725708008, -39.1208381652832, -0.8984375, 0.388427734375, 0.115234375, 0, 
267, 1052170406, -0.05926656350493431, -0.6109329462051392, 0.5075782537460327, -0.6046718955039978, 10.038495063781738, -12.948270797729492, -4.18960428237915, 81.13703155517578, -20.493528366088867, -12.521968841552734, -0.896728515625, 0.3857421875, 0.118408203125, 0, 
268, 1052178739, -0.050350770354270935, -0.6121490001678467, 0.5034103393554688, -0.6077267527580261, 9.60857105255127, 1.2290468215942383, 1.5672920942306519, 132.69647216796875, -44.129093170166016, 32.904029846191406, -0.89501953125, 0.38623046875, 0.112060546875, 0, 
269, 1052187072, -0.04119487851858139, -0.6127299666404724, 0.500393271446228, -0.6103168725967407, 9.860782623291016, 9.780674934387207, -0.08281616866588593, 121.39086151123047, -45.13533020019531, 48.46783447265625, -0.88671875, 0.392578125, 0.10595703125, 0, 
270, 1052195405, -0.03598661720752716, -0.6135417819023132, 0.497364342212677, -0.6123032569885254, 12.425931930541992, 9.199265480041504, 0.3107995390892029, 84.25486755371094, -25.047807693481445, 13.509527206420898, -0.88427734375, 0.399658203125, 0.105712890625, 0, 
271, 1052203738, -0.036312300711870193, -0.614896833896637, 0.49520695209503174, -0.6126733422279358, 14.372389793395996, 7.40505313873291, -0.11494754999876022, 19.396785736083984, -5.797469139099121, -30.424022674560547, -0.883544921875, 0.394287109375, 0.10302734375, 0, 
272, 1052212071, -0.040628716349601746, -0.6167514324188232, 0.49298784136772156, -0.6123276352882385, 15.63376522064209, 6.002395153045654, 1.6713247299194336, -18.41117286682129, 11.103898048400879, -68.1517333984375, -0.88623046875, 0.38671875, 0.105224609375, 0, 
273, 1052220404, -0.04774396866559982, -0.6183696985244751, 0.4910634458065033, -0.6117280721664429, 15.338395118713379, 3.6806459426879883, 2.118983745574951, -46.51636505126953, 29.785945892333984, -87.89749908447266, -0.88671875, 0.377197265625, 0.102294921875, 0, 
274, 1052228737, -0.055894359946250916, -0.6196731328964233, 0.488716185092926, -0.6115984320640564, 14.441329002380371, 1.283570647239685, 0.42521971464157104, -48.759437561035156, 43.66556167602539, -97.62928771972656, -0.889404296875, 0.36279296875, 0.108154296875, 0, 
275, 1052237070, -0.06424090266227722, -0.6207782030105591, 0.4859313368797302, -0.6118770837783813, 13.24169921875, -0.8341043591499329, -0.8495672941207886, -44.197540283203125, 50.482444763183594, -101.46526336669922, -0.901123046875, 0.347412109375, 0.100830078125, 0, 
276, 1052245403, -0.07239983230829239, -0.6215545535087585, 0.4830872118473053, -0.6124297380447388, 12.209639549255371, -1.6991883516311646, -0.1627262830734253, -40.518959045410156, 54.3709716796875, -97.84797668457031, -0.904052734375, 0.3359375, 0.101806640625, 0, 
277, 1052253736, -0.08045538514852524, -0.6218634843826294, 0.4807816445827484, -0.612925112247467, 11.061559677124023, -1.5540539026260376, -0.6108744740486145, -45.04916000366211, 56.60027313232422, -89.40971374511719, -0.9091796875, 0.319580078125, 0.096923828125, 0, 
278, 1052262069, -0.08830492198467255, -0.622024416923523, 0.47873514890670776, -0.6132829189300537, 10.277501106262207, -1.3473199605941772, -1.9791314601898193, -46.51284408569336, 55.01722717285156, -84.54907989501953, -0.910400390625, 0.31103515625, 0.091552734375, 0, 
279, 1052270402, -0.0960882231593132, -0.6221399903297424, 0.4766027331352234, -0.6136562824249268, 10.289739608764648, -1.076390027999878, -2.802762031555176, -45.204246520996094, 55.20027542114258, -84.47857666015625, -0.919189453125, 0.294189453125, 0.089111328125, 0, 
280, 1052278735, -0.10402283817529678, -0.6222915649414062, 0.47428378462791443, -0.6140055060386658, 9.700363159179688, -0.9224744439125061, -3.2148916721343994, -45.00355529785156, 55.92829513549805, -87.54743957519531, -0.921875, 0.281982421875, 0.085693359375, 0, 
281, 1052287068, -0.11216234415769577, -0.6225751638412476, 0.4717254638671875, -0.6142556667327881, 9.661893844604492, -0.8829820156097412, -3.501403570175171, -45.224212646484375, 55.6423454284668, -92.39163970947266, -0.92578125, 0.26953125, 0.081298828125, 0, 
282, 1052295401, -0.12054428458213806, -0.6229526400566101, 0.46900656819343567, -0.6143671274185181, 9.93338680267334, -1.0982282161712646, -3.363128900527954, -46.667823791503906, 55.48534393310547, -96.57523345947266, -0.93017578125, 0.258544921875, 0.076904296875, 0, 
283, 1052303734, -0.12910237908363342, -0.6233106255531311, 0.4662110209465027, -0.6143932342529297, 10.263717651367188, -1.3561954498291016, -2.9338572025299072, -48.12568283081055, 56.176490783691406, -98.78853607177734, -0.936767578125, 0.24267578125, 0.07373046875, 0, 
284, 1052312067, -0.1378425657749176, -0.6235108971595764, 0.4633701741695404, -0.6144402623176575, 10.212930679321289, -1.6882668733596802, -2.6447248458862305, -49.43585968017578, 58.94245147705078, -99.61349487304688, -0.9345703125, 0.230224609375, 0.07080078125, 0, 
285, 1052320400, -0.1467607617378235, -0.6235411167144775, 0.4605024456977844, -0.6145001649856567, 9.853135108947754, -2.2359399795532227, -2.400613307952881, -50.98392868041992, 61.672306060791016, -100.28491973876953, -0.941162109375, 0.21337890625, 0.063720703125, 0, 
286, 1052328733, -0.15575295686721802, -0.6233711242675781, 0.45770955085754395, -0.6145457625389099, 9.39719009399414, -2.7521541118621826, -2.3579468727111816, -52.73719787597656, 63.56133270263672, -98.98553466796875, -0.9453125, 0.202392578125, 0.061279296875, 0, 
287, 1052337066, -0.16462019085884094, -0.6230513453483582, 0.4549823999404907, -0.6145839691162109, 8.962081909179688, -3.0632495880126953, -2.5161690711975098, -52.60163497924805, 63.83561706542969, -96.47559356689453, -0.948486328125, 0.1884765625, 0.05419921875, 0, 
288, 1052345399, -0.17313016951084137, -0.6227588653564453, 0.45214390754699707, -0.6146369576454163, 8.616369247436523, -2.996980905532837, -2.8426389694213867, -48.43312072753906, 61.75030517578125, -94.51056671142578, -0.954833984375, 0.173828125, 0.046875, 0, 
289, 1052353732, -0.18096309900283813, -0.6227384209632874, 0.4488857090473175, -0.6147893667221069, 8.691446304321289, -2.818586587905884, -2.53306245803833, -37.82832336425781, 57.09052276611328, -93.87235260009766, -0.9560546875, 0.161376953125, 0.04052734375, 0, 
290, 1052362065, -0.1881624460220337, -0.6228954195976257, 0.4451609253883362, -0.61517733335495, 8.921906471252441, -2.6712772846221924, -1.7657777070999146, -26.555849075317383, 54.85774612426758, -92.98614501953125, -0.956787109375, 0.14794921875, 0.037353515625, 0, 
291, 1052370398, -0.1948559582233429, -0.6230674386024475, 0.441058486700058, -0.6158739924430847, 8.849190711975098, -2.7226779460906982, -1.6035231351852417, -17.106975555419922, 55.25983428955078, -91.26799774169922, -0.960693359375, 0.136474609375, 0.03271484375, 0, 
292, 1052378731, -0.20125795900821686, -0.6232019662857056, 0.4369239807128906, -0.6166256666183472, 8.501374244689941, -2.823206663131714, -1.559702754020691, -14.096290588378906, 54.361839294433594, -88.66545867919922, -0.965087890625, 0.12060546875, 0.0234375, 0, 
293, 1052387064, -0.20728324353694916, -0.6233237385749817, 0.43285930156707764, -0.6173728704452515, 8.470990180969238, -2.88322114944458, -1.631648063659668, -11.528145790100098, 51.976768493652344, -84.84327697753906, -0.962646484375, 0.109619140625, 0.01416015625, 0, 
294, 1052395397, -0.21279220283031464, -0.6235060095787048, 0.4287363290786743, -0.6181909441947937, 8.581287384033203, -2.617406129837036, -1.5269269943237305, -6.006266117095947, 49.16164016723633, -81.08195495605469, -0.96484375, 0.09716796875, 0.013671875, 0, 
295, 1052403730, -0.21778906881809235, -0.6237599849700928, 0.4244951903820038, -0.619120717048645, 8.675077438354492, -2.3936123847961426, -1.1792975664138794, 0.24991987645626068, 46.84115982055664, -77.87200164794922, -0.968017578125, 0.083740234375, 0.006103515625, 0, 
296, 1052412063, -0.22234827280044556, -0.6240404844284058, 0.42014986276626587, -0.6201806664466858, 8.574418067932129, -2.161776065826416, -1.2389572858810425, 5.736500263214111, 45.48398971557617, -74.77100372314453, -0.966796875, 0.076171875, 0.00439453125, 0, 
297, 1052420396, -0.22646519541740417, -0.624484658241272, 0.41561803221702576, -0.6212964653968811, 8.410402297973633, -1.9179226160049438, -1.3038928508758545, 11.940178871154785, 42.58766174316406, -73.40715026855469, -0.9716796875, 0.064208984375, -0.002685546875, 0, 
298, 1052428729, -0.2300790250301361, -0.6252736449241638, 0.4107745289802551, -0.622395396232605, 8.26504898071289, -1.8395200967788696, -1.3205759525299072, 19.905317306518555, 37.58790588378906, -73.77650451660156, -0.969970703125, 0.0517578125, -0.011962890625, 0, 
299, 1052437062, -0.2332746684551239, -0.6264159083366394, 0.40569427609443665, -0.6233885884284973, 8.368929862976074, -1.8497880697250366, -1.266809344291687, 26.040863037109375, 32.045928955078125, -74.59545135498047, -0.96728515625, 0.041015625, -0.013671875, 0, 
300, 1052445395, -0.23621822893619537, -0.6278054714202881, 0.4003757834434509, -0.6243200898170471, 8.435309410095215, -1.853398323059082, -1.3857407569885254, 30.71173858642578, 28.74742317199707, -76.03099060058594, -0.970458984375, 0.027099609375, -0.021728515625, 0, 
301, 1052453728, -0.23901872336864471, -0.6293677687644958, 0.3948684632778168, -0.6251882910728455, 8.334417343139648, -1.9542460441589355, -1.2888275384902954, 33.774105072021484, 26.54935073852539, -77.6226577758789, -0.968505859375, 0.015625, -0.02392578125, 0, 
302, 1052462061, -0.24180130660533905, -0.6310332417488098, 0.3892664611339569, -0.6259521245956421, 8.319068908691406, -2.024744749069214, -1.1445000171661377, 34.52244567871094, 24.967859268188477, -79.15773010253906, -0.97412109375, 0.003662109375, -0.0234375, 0, 
303, 1052470394, -0.24455192685127258, -0.6328594088554382, 0.3835732042789459, -0.6265542507171631, 8.374736785888672, -2.035538911819458, -1.0375524759292603, 35.24713897705078, 22.31697654724121, -81.10819244384766, -0.968994140625, -0.003173828125, -0.02685546875, 0, 
304, 1052478727, -0.24735760688781738, -0.6347816586494446, 0.37779465317726135, -0.6270192265510559, 8.382223129272461, -2.132091522216797, -0.9296049475669861, 35.108489990234375, 20.870126724243164, -83.25792694091797, -0.96923828125, -0.01904296875, -0.029296875, 0, 
305, 1052487060, -0.2504330277442932, -0.6366512775421143, 0.3720637857913971, -0.6273295283317566, 8.408716201782227, -2.173109531402588, -0.9330750703811646, 31.349321365356445, 21.2170467376709, -85.45498657226562, -0.970458984375, -0.029541015625, -0.031494140625, 0, 
306, 1052495393, -0.2538876533508301, -0.6384006142616272, 0.36641553044319153, -0.6274877190589905, 8.39017391204834, -2.2091169357299805, -0.9764524102210999, 26.135486602783203, 22.574005126953125, -87.8759994506836, -0.972412109375, -0.044189453125, -0.03662109375, 0, 
307, 1052503726, -0.2577994167804718, -0.6399500370025635, 0.36092203855514526, -0.6274980902671814, 8.253068923950195, -2.349436044692993, -0.9533047080039978, 19.336034774780273, 24.77016258239746, -90.00782775878906, -0.968994140625, -0.05712890625, -0.03515625, 0, 
308, 1052512059, -0.26213645935058594, -0.6412587761878967, 0.35566622018814087, -0.627366304397583, 8.070056915283203, -2.6776819229125977, -0.8028895854949951, 11.991373062133789, 26.859018325805664, -90.85734558105469, -0.968017578125, -0.068115234375, -0.042724609375, 0, 
309, 1052520392, -0.26670703291893005, -0.6423534750938416, 0.3506542146205902, -0.6271412968635559, 7.936716556549072, -3.0627965927124023, -0.7009048461914062, 6.589148044586182, 28.150175094604492, -90.05406188964844, -0.965576171875, -0.0810546875, -0.045654296875, 0, 
310, 1052528725, -0.2712692320346832, -0.6432635188102722, 0.3458714783191681, -0.6269076466560364, 7.788570404052734, -3.4825689792633057, -0.905341625213623, 3.979572296142578, 28.780433654785156, -87.05687713623047, -0.964599609375, -0.093994140625, -0.0458984375, 0, 
311, 1052537058, -0.2755264937877655, -0.6441516280174255, 0.3413097858428955, -0.6266392469406128, 7.694662570953369, -3.957895040512085, -1.1529966592788696, 4.5149359703063965, 26.39409828186035, -82.54335021972656, -0.962646484375, -0.105224609375, -0.0498046875, 0, 
312, 1052545391, -0.2792666256427765, -0.6452158689498901, 0.33691173791885376, -0.6262685656547546, 7.937305450439453, -4.333604335784912, -1.498992919921875, 7.883044242858887, 20.916616439819336, -77.80632019042969, -0.961669921875, -0.1201171875, -0.052490234375, 0, 
313, 1052553724, -0.2824189066886902, -0.6465160846710205, 0.33259931206703186, -0.6258191466331482, 8.21865463256836, -4.636634826660156, -1.6527938842773438, 12.898472785949707, 15.139652252197266, -73.43416595458984, -0.960205078125, -0.126220703125, -0.052734375, 0, 
314, 1052562057, -0.2850521504878998, -0.6479800939559937, 0.3283490538597107, -0.6253554821014404, 8.27248477935791, -5.000999450683594, -1.653815507888794, 17.55254364013672, 10.982690811157227, -69.16416931152344, -0.9560546875, -0.13525390625, -0.05712890625, 0, 
315, 1052570390, -0.28739482164382935, -0.6494572162628174, 0.3243601322174072, -0.6248323917388916, 8.436308860778809, -5.440506935119629, -1.876060962677002, 17.659395217895508, 8.01226806640625, -64.69481658935547, -0.95361328125, -0.146484375, -0.056396484375, 0, 
316, 1052578723, -0.2896404564380646, -0.6508116126060486, 0.32079944014549255, -0.6242242455482483, 8.613447189331055, -5.795445442199707, -2.5129129886627197, 13.999611854553223, 6.173846244812012, -59.75859069824219, -0.953369140625, -0.15673828125, -0.05810546875, 0, 
317, 1052587056, -0.29181861877441406, -0.6519594788551331, 0.3175358176231384, -0.6236801147460938, 8.831466674804688, -5.706990718841553, -3.4699254035949707, 11.502885818481445, 7.049940586090088, -55.43596267700195, -0.948974609375, -0.16357421875, -0.0595703125, 0, 
318, 1052595389, -0.2937507927417755, -0.6529182195663452, 0.3142230808734894, -0.623447835445404, 9.308431625366211, -5.284037113189697, -4.053383827209473, 14.744912147521973, 10.578617095947266, -51.608028411865234, -0.95068359375, -0.1689453125, -0.0576171875, 0, 
319, 1052603722, -0.2953718900680542, -0.6537479758262634, 0.3108019232749939, -0.6235272884368896, 9.584885597229004, -4.885147571563721, -4.084628582000732, 19.273029327392578, 13.5939302444458, -48.193870544433594, -0.95166015625, -0.17822265625, -0.05859375, 0, 
320, 1052612055, -0.2966771125793457, -0.654486358165741, 0.30707013607025146, -0.6239820122718811, 9.665498733520508, -4.5638322830200195, -3.454641580581665, 26.027189254760742, 17.64757537841797, -46.26690673828125, -0.947509765625, -0.18408203125, -0.06005859375, 0, 
321, 1052620388, -0.2975307106971741, -0.6553056836128235, 0.3029218018054962, -0.6247429251670837, 9.659318923950195, -4.542488098144531, -2.559091091156006, 35.280174255371094, 19.52547264099121, -45.34394836425781, -0.94189453125, -0.189208984375, -0.06005859375, 0, 
322, 1052628721, -0.298065721988678, -0.6560760140419006, 0.29867443442344666, -0.6257237792015076, 9.718916893005371, -4.672360420227051, -1.977613091468811, 39.72703552246094, 20.98052406311035, -42.28614807128906, -0.9404296875, -0.197509765625, -0.062744140625, 0, 
323, 1052637054, -0.2983555793762207, -0.6566770076751709, 0.2946678400039673, -0.6268535852432251, 9.763006210327148, -4.846199989318848, -1.8349487781524658, 39.7708740234375, 21.82266616821289, -36.81865310668945, -0.939208984375, -0.2060546875, -0.063720703125, 0, 
324, 1052645387, -0.2983803153038025, -0.6570231914520264, 0.291134238243103, -0.6281290054321289, 9.74136734008789, -5.037668228149414, -1.6735689640045166, 37.64529037475586, 22.28462791442871, -28.512605667114258, -0.936279296875, -0.20654296875, -0.068115234375, 0, 
325, 1052653720, -0.29818201065063477, -0.6568148136138916, 0.2883790135383606, -0.6297100186347961, 9.816568374633789, -5.319334506988525, -1.1555818319320679, 31.86753273010254, 25.78337287902832, -16.214916229248047, -0.93115234375, -0.2119140625, -0.0703125, 0, 
326, 1052662053, -0.2980054020881653, -0.6557673811912537, 0.28676289319992065, -0.6316204071044922, 9.813018798828125, -5.642676830291748, -0.6414498686790466, 19.6922607421875, 31.405046463012695, -1.2989505529403687, -0.93212890625, -0.21435546875, -0.0732421875, 0, 
327, 1052670386, -0.2979623079299927, -0.6537508964538574, 0.28654491901397705, -0.6338261961936951, 9.598382949829102, -6.193261623382568, -0.6534972190856934, 3.5242550373077393, 37.319549560546875, 15.029674530029297, -0.928466796875, -0.21337890625, -0.081298828125, 0, 
328, 1052678719, -0.298178493976593, -0.6509170532226562, 0.28800836205482483, -0.6359743475914001, 9.447070121765137, -7.350602149963379, -1.4572159051895142, -17.023950576782227, 38.019920349121094, 31.0208683013916, -0.926513671875, -0.211181640625, -0.08349609375, 0, 
329, 1052687052, -0.2986004948616028, -0.6475714445114136, 0.29115089774131775, -0.637758195400238, 9.84069538116455, -8.67609691619873, -3.1968042850494385, -37.110260009765625, 33.20610427856445, 44.61621856689453, -0.92431640625, -0.206787109375, -0.08642578125, 0, 
330, 1052695385, -0.29890763759613037, -0.6441016793251038, 0.29561007022857666, -0.6390754580497742, 10.674548149108887, -9.665498733520508, -5.095764636993408, -49.994625091552734, 24.233749389648438, 56.097721099853516, -0.924072265625, -0.1982421875, -0.094482421875, 0, 
331, 1052703718, -0.2989933490753174, -0.640068531036377, 0.30050140619277954, -0.6408036947250366, 10.672284126281738, -9.298851013183594, -6.3939127922058105, -52.491798400878906, 30.194486618041992, 65.6603775024414, -0.919921875, -0.19189453125, -0.100341796875, 0, 
332, 1052712051, -0.29860538244247437, -0.6355258226394653, 0.30541273951530457, -0.6431796550750732, 8.833245277404785, -9.03546142578125, -5.093990325927734, -47.902584075927734, 38.30089569091797, 74.9691162109375, -0.920166015625, -0.17822265625, -0.10400390625, 0, 
333, 1052720384, -0.2968113124370575, -0.6311511397361755, 0.3098094165325165, -0.6462079286575317, 7.331119537353516, -9.581928253173828, -2.0655949115753174, -27.649030685424805, 38.7908935546875, 84.66571044921875, -0.921142578125, -0.170654296875, -0.109619140625, 0, 
334, 1052728717, -0.29375576972961426, -0.6267866492271423, 0.3146013021469116, -0.6495286226272583, 7.49985408782959, -10.268613815307617, 0.6935423016548157, -18.908645629882812, 34.18307113647461, 100.67059326171875, -0.916748046875, -0.1591796875, -0.11669921875, 0, 
335, 1052737050, -0.28969165682792664, -0.6220173239707947, 0.320654958486557, -0.6529693007469177, 8.575460433959961, -9.961295127868652, 1.7679885625839233, -22.608179092407227, 29.452856063842773, 122.55162811279297, -0.913818359375, -0.144287109375, -0.1220703125, 0, 
336, 1052745383, -0.28441348671913147, -0.6170332431793213, 0.32839158177375793, -0.6561655402183533, 10.205524444580078, -8.738683700561523, 1.362841248512268, -29.26198959350586, 17.15180778503418, 148.0629119873047, -0.915283203125, -0.130126953125, -0.122802734375, 0, 
337, 1052753716, -0.27785950899124146, -0.6119706034660339, 0.33806347846984863, -0.6587976813316345, 12.274819374084473, -6.815069198608398, 0.24955815076828003, -38.7603645324707, -0.1769224852323532, 173.87860107421875, -0.914306640625, -0.108154296875, -0.12451171875, 0, 
338, 1052762049, -0.2703591585159302, -0.6068533062934875, 0.3491228222846985, -0.6608807444572449, 14.199532508850098, -4.643446445465088, -0.3706633150577545, -46.12123107910156, -14.082399368286133, 192.55319213867188, -0.90625, -0.08349609375, -0.1259765625, 0, 
339, 1052770382, -0.2621159553527832, -0.6019072532653809, 0.3605947196483612, -0.6625630855560303, 16.27811050415039, -2.5054988861083984, -0.43737122416496277, -44.96075439453125, -24.001888275146484, 200.1517333984375, -0.91015625, -0.056640625, -0.12353515625, 0, 
340, 1052778715, -0.2540898025035858, -0.5969997048377991, 0.37175777554512024, -0.6639589071273804, 19.033702850341797, -0.6713880896568298, 0.7271003723144531, -45.22264099121094, -24.617223739624023, 194.67892456054688, -0.902587890625, -0.03369140625, -0.12109375, 0, 
341, 1052787048, -0.24700728058815002, -0.5919426083564758, 0.38209885358810425, -0.6652871966362, 20.16119384765625, 1.5190364122390747, 1.474048376083374, -46.33348083496094, -16.019105911254883, 179.5534210205078, -0.90576171875, -0.01025390625, -0.12109375, 0, 
342, 1052795381, -0.24083468317985535, -0.5866327285766602, 0.3909657597541809, -0.6670994758605957, 18.972211837768555, 2.107849597930908, 1.1978232860565186, -38.56830978393555, -0.06671391427516937, 162.4892120361328, -0.8984375, 0.01025390625, -0.119873046875, 0, 
343, 1052803714, -0.23483175039291382, -0.5819941759109497, 0.3989187777042389, -0.6685924530029297, 16.533763885498047, 1.3232572078704834, -0.16156359016895294, -31.04302215576172, -4.7769341468811035, 148.61631774902344, -0.8994140625, 0.0283203125, -0.120361328125, 0, 
344, 1052812047, -0.22894389927387238, -0.5783479809761047, 0.4068238139152527, -0.6690351366996765, 15.183342933654785, -0.0544702485203743, -0.994550347328186, -34.083251953125, -21.60809326171875, 138.61334228515625, -0.894287109375, 0.046630859375, -0.122802734375, 0, 
345, 1052820380, -0.2237807959318161, -0.5747547149658203, 0.4153926968574524, -0.6686131954193115, 14.644721984863281, -1.4996352195739746, -1.1729772090911865, -50.6192512512207, -26.9144287109375, 133.95330810546875, -0.89013671875, 0.06201171875, -0.114013671875, 0, 
346, 1052828713, -0.21982941031455994, -0.5704377293586731, 0.42509400844573975, -0.6675226092338562, 14.445178031921387, -2.869550943374634, -0.8755415081977844, -76.66142272949219, -22.199106216430664, 134.09262084960938, -0.882568359375, 0.079833984375, -0.111083984375, 0, 
347, 1052837046, -0.21711105108261108, -0.5651500225067139, 0.43592312932014465, -0.6659238934516907, 13.572482109069824, -3.705317258834839, -0.4152507781982422, -102.5749282836914, -13.384445190429688, 135.51797485351562, -0.88232421875, 0.09912109375, -0.10888671875, 0, 
348, 1052845379, -0.21520745754241943, -0.5592891573905945, 0.4473419189453125, -0.6639142036437988, 12.355484008789062, -3.9642019271850586, -0.06607943028211594, -118.49903106689453, -8.298069953918457, 135.09182739257812, -0.876708984375, 0.1162109375, -0.107421875, 0, 
349, 1052853712, -0.21327005326747894, -0.5537040829658508, 0.45852696895599365, -0.6615861654281616, 11.3328857421875, -3.7307300567626953, -0.07682923227548599, -117.23290252685547, -12.674602508544922, 130.72862243652344, -0.873046875, 0.132568359375, -0.10009765625, 0, 
350, 1052862045, -0.2105792611837387, -0.5490226149559021, 0.4686966836452484, -0.6592188477516174, 10.692083358764648, -3.4271271228790283, -0.3235170245170593, -99.87059020996094, -23.07383155822754, 124.27253723144531, -0.865966796875, 0.1513671875, -0.096435546875, 0, 
351, 1052870378, -0.2066286951303482, -0.5454903244972229, 0.4775328040122986, -0.6570561528205872, 10.437341690063477, -2.8943443298339844, -0.44424721598625183, -73.59886169433594, -36.09532165527344, 118.5816650390625, -0.86279296875, 0.1650390625, -0.092041015625, 0, 
352, 1052878711, -0.20123304426670074, -0.5429631471633911, 0.484890878200531, -0.655433177947998, 10.3322172164917, -2.2451534271240234, -0.22401070594787598, -43.02706527709961, -46.52730178833008, 115.71286010742188, -0.855712890625, 0.17919921875, -0.0859375, 0, 
353, 1052887044, -0.19460850954055786, -0.5411570072174072, 0.49096786975860596, -0.654402494430542, 10.296018600463867, -1.774185061454773, 0.08890463411808014, -16.342830657958984, -53.14012145996094, 113.82979583740234, -0.855224609375, 0.19580078125, -0.08154296875, 0, 
354, 1052895377, -0.1871829479932785, -0.5398040413856506, 0.4959367513656616, -0.653939425945282, 10.448736190795898, -1.2762385606765747, 0.33910030126571655, 4.618258476257324, -55.54890441894531, 111.47600555419922, -0.845703125, 0.20654296875, -0.0751953125, 0, 
355, 1052903710, -0.17917472124099731, -0.5386836528778076, 0.5001881718635559, -0.6538681387901306, 10.205100059509277, -0.8361437916755676, 0.6967129111289978, 18.68625259399414, -56.750518798828125, 110.5950698852539, -0.842529296875, 0.215576171875, -0.06787109375, 0, 
356, 1052912043, -0.17069053649902344, -0.5378193855285645, 0.5038618445396423, -0.6540286540985107, 10.203378677368164, -0.332639217376709, 0.8092663288116455, 29.611852645874023, -59.29470443725586, 109.62235260009766, -0.83984375, 0.2314453125, -0.067138671875, 0, 
357, 1052920376, -0.16190105676651, -0.5371331572532654, 0.5071154832839966, -0.6543129682540894, 9.80982780456543, -0.13499411940574646, 1.126811146736145, 36.940086364746094, -61.00635528564453, 108.1103286743164, -0.83349609375, 0.242919921875, -0.0595703125, 0, 
358, 1052928709, -0.15302427113056183, -0.536708414554596, 0.5100219249725342, -0.6545387506484985, 9.009408950805664, 0.0009300645906478167, 0.9008541107177734, 40.865962982177734, -63.731929779052734, 104.58522033691406, -0.829833984375, 0.253662109375, -0.05615234375, 0, 
359, 1052937042, -0.1442004144191742, -0.5368513464927673, 0.5124821662902832, -0.6545030474662781, 8.704153060913086, 0.3850065767765045, 0.8568046689033508, 43.86847686767578, -69.36576080322266, 96.08736419677734, -0.8271484375, 0.264892578125, -0.05078125, 0, 
360, 1052945375, -0.13560524582862854, -0.5373198986053467, 0.5143051147460938, -0.6545258164405823, 8.836216926574707, 0.7249971628189087, 0.454546183347702, 48.95716094970703, -69.08369445800781, 87.34207153320312, -0.8193359375, 0.273193359375, -0.047119140625, 0, 
361, 1052953708, -0.1268770843744278, -0.5380642414093018, 0.5155192017555237, -0.6547095775604248, 7.240763187408447, 0.5152884125709534, 0.9734523892402649, 57.08876037597656, -70.09723663330078, 82.2066650390625, -0.816650390625, 0.27978515625, -0.04150390625, 0, 
362, 1052962041, -0.11802008002996445, -0.5395829677581787, 0.516364574432373, -0.6544498801231384, 7.34821081161499, 0.4493958652019501, 0.8700593709945679, 59.55376052856445, -80.70509338378906, 74.55821990966797, -0.8056640625, 0.28564453125, -0.040283203125, 0, 
363, 1052970374, -0.10976659506559372, -0.5407027006149292, 0.5168892741203308, -0.6545476913452148, 7.622727870941162, 0.31284239888191223, 0.7785788774490356, 59.86180877685547, -69.5776138305664, 69.9897232055664, -0.81103515625, 0.296142578125, -0.03271484375, 0, 
364, 1052978707, -0.1016913577914238, -0.5430724620819092, 0.5173050761222839, -0.6535609364509583, 5.7629289627075195, -0.1038350909948349, 0.4628719091415405, 53.68516159057617, -87.53988647460938, 57.223148345947266, -0.804931640625, 0.30126953125, -0.02880859375, 0, 
365, 1052987040, -0.0941852331161499, -0.5462289452552795, 0.517930269241333, -0.6515573263168335, 7.03218412399292, 0.1061687096953392, -0.3335510492324829, 41.429901123046875, -98.38126373291016, 46.494850158691406, -0.801025390625, 0.30615234375, -0.018310546875, 0, 
366, 1052995373, -0.08817820996046066, -0.5483088493347168, 0.5189076066017151, -0.6498711109161377, 6.708065509796143, 0.5238948464393616, -0.4497678577899933, 27.868497848510742, -76.19688415527344, 43.94636154174805, -0.7978515625, 0.310791015625, -0.0146484375, 0, 
367, 1053003706, -0.08267560601234436, -0.5505340695381165, 0.5197896361351013, -0.6480056643486023, 6.223873615264893, 0.6996572613716125, -0.525333046913147, 23.820844650268555, -75.06582641601562, 37.31707763671875, -0.79638671875, 0.314208984375, -0.005859375, 0, 
368, 1053012039, -0.07761001586914062, -0.5530515909194946, 0.5204668641090393, -0.6459414958953857, 5.816110610961914, 0.8762311339378357, -0.682849645614624, 21.245563507080078, -75.88507843017578, 29.70653533935547, -0.792724609375, 0.322265625, 0.002685546875, 0, 
369, 1053020372, -0.0730963945388794, -0.5556302070617676, 0.5212491154670715, -0.6436200737953186, 6.151358604431152, 1.6835803985595703, -0.7241880297660828, 14.34261703491211, -74.48436737060547, 24.752197265625, -0.790283203125, 0.32080078125, 0.0078125, 0, 
370, 1053028705, -0.06938890367746353, -0.5579063892364502, 0.5218526721000671, -0.6415690183639526, 6.219379901885986, 2.6212501525878906, -0.4293307662010193, 11.392436981201172, -63.844722747802734, 18.827869415283203, -0.79052734375, 0.324462890625, 0.01318359375, 0, 
371, 1053037038, -0.06599968671798706, -0.5608207583427429, 0.5219913721084595, -0.6392689347267151, 6.599406719207764, 3.3153040409088135, -0.11041414737701416, 11.882237434387207, -68.59817504882812, 7.513326644897461, -0.78955078125, 0.323486328125, 0.0205078125, 0, 
372, 1053045371, -0.0632440447807312, -0.5640531778335571, 0.5213780999183655, -0.6372007131576538, 6.936485290527344, 3.5080251693725586, 1.002769112586975, 15.550488471984863, -64.43547821044922, -5.8040666580200195, -0.790283203125, 0.323486328125, 0.026611328125, 0, 
373, 1053053704, -0.061436258256435394, -0.5678592920303345, 0.520222008228302, -0.6349378824234009, 7.082363128662109, 3.5681591033935547, 1.7881429195404053, 12.069491386413574, -63.6471061706543, -22.71131706237793, -0.788818359375, 0.320068359375, 0.031494140625, 0, 
374, 1053062037, -0.060589492321014404, -0.572595477104187, 0.518604040145874, -0.6320829391479492, 6.661868572235107, 3.602400541305542, 2.27549409866333, 5.138821601867676, -69.18411254882812, -41.7531852722168, -0.793212890625, 0.320068359375, 0.041015625, 0, 
375, 1053070370, -0.06088721752166748, -0.5782917141914368, 0.5166564583778381, -0.6284527778625488, 6.571941375732422, 3.285263776779175, 3.3452260494232178, -5.729862213134766, -75.14970397949219, -61.87727355957031, -0.795654296875, 0.3125, 0.048828125, 0, 
376, 1053078703, -0.06268084794282913, -0.5841823816299438, 0.514596700668335, -0.6245060563087463, 7.236563205718994, 2.4884142875671387, 4.423983097076416, -18.7496337890625, -68.67129516601562, -77.25629425048828, -0.794189453125, 0.304443359375, 0.0634765625, 0, 
377, 1053087036, -0.0663641095161438, -0.5890723466873169, 0.5129430294036865, -0.6208820939064026, 7.87028694152832, 1.4009712934494019, 4.9431071281433105, -35.995582580566406, -44.419639587402344, -82.93029022216797, -0.79296875, 0.2939453125, 0.067138671875, 0, 
378, 1053095369, -0.07247641682624817, -0.5921000838279724, 0.5120500326156616, -0.6180494427680969, 7.961687088012695, 0.05359789729118347, 5.173614978790283, -58.28364562988281, -5.713435173034668, -83.58124542236328, -0.802490234375, 0.285888671875, 0.077880859375, 0, 
379, 1053103702, -0.08108365535736084, -0.5934311747550964, 0.5119059681892395, -0.6158186197280884, 7.648194789886475, -1.7907583713531494, 5.0507731437683105, -82.42476654052734, 30.449188232421875, -86.19393157958984, -0.803955078125, 0.275390625, 0.07763671875, 0, 
380, 1053112035, -0.09203352779150009, -0.5940122008323669, 0.512373685836792, -0.6133254170417786, 7.403635501861572, -4.211052894592285, 4.278273105621338, -109.39964294433594, 50.44857406616211, -96.00189208984375, -0.806396484375, 0.26318359375, 0.078125, 0, 
381, 1053120368, -0.10424130409955978, -0.594758927822113, 0.5124521851539612, -0.6105766892433167, 7.168771266937256, -6.9748053550720215, 2.98507022857666, -117.99626159667969, 56.32468795776367, -111.32299041748047, -0.810791015625, 0.25390625, 0.07666015625, 0, 
382, 1053128701, -0.11598300188779831, -0.5961889624595642, 0.511160671710968, -0.6081424355506897, 5.819396018981934, -8.95630168914795, -0.20126748085021973, -99.47412109375, 51.8318977355957, -122.93869018554688, -0.818359375, 0.2353515625, 0.07763671875, 0, 
383, 1053137034, -0.12596361339092255, -0.5989286303520203, 0.5087893605232239, -0.6054472923278809, 7.933568000793457, -11.763761520385742, -6.9157538414001465, -75.76661682128906, 28.07706642150879, -126.72916412353516, -0.825439453125, 0.21875, 0.078125, 0, 
384, 1053145367, -0.1364918202161789, -0.6006997227668762, 0.5090436935424805, -0.6011819839477539, 9.383121490478516, -18.64231300354004, -13.972953796386719, -114.78474426269531, 22.4986515045166, -105.56040954589844, -0.8271484375, 0.2060546875, 0.0810546875, 0, 
385, 1053153700, -0.1454888880252838, -0.6010475158691406, 0.5132727026939392, -0.5950979590415955, 8.61669921875, -24.276573181152344, -18.371170043945312, -150.41665649414062, 1.0632963180541992, -53.58114242553711, -0.828857421875, 0.19873046875, 0.08447265625, 0, 
386, 1053162033, -0.1489987075328827, -0.600548267364502, 0.5180454254150391, -0.5905809998512268, 7.038851737976074, -25.957462310791016, -18.63463592529297, -100.12663269042969, -18.872446060180664, 4.99228572845459, -0.829345703125, 0.193603515625, 0.091796875, 0, 
387, 1053170366, -0.14669209718704224, -0.6007810831069946, 0.5228261351585388, -0.586695671081543, 6.237622261047363, -21.750877380371094, -16.923906326293945, -46.180015563964844, -61.01214599609375, 48.27738571166992, -0.8271484375, 0.197265625, 0.0966796875, 0, 
388, 1053178699, -0.14081260561943054, -0.6006152629852295, 0.5266882181167603, -0.5848487019538879, 7.6723313331604, -17.46803855895996, -12.950172424316406, 4.622372627258301, -64.82991790771484, 76.58971405029297, -0.826904296875, 0.20458984375, 0.1064453125, 0, 
389, 1053187032, -0.13539370894432068, -0.5988744497299194, 0.5304018259048462, -0.5845574140548706, 6.235052585601807, -15.117311477661133, -8.063444137573242, 10.208797454833984, -35.60902786254883, 85.93163299560547, -0.82177734375, 0.21435546875, 0.111083984375, 0, 
390, 1053195365, -0.13056537508964539, -0.5966978073120117, 0.5344744324684143, -0.5841721892356873, 5.727354526519775, -13.03548526763916, -5.7449517250061035, 0.983811616897583, -29.321374893188477, 87.29161834716797, -0.8125, 0.22412109375, 0.11328125, 0, 
391, 1053203698, -0.1247137039899826, -0.594569742679596, 0.5385785102844238, -0.5838510990142822, 7.6909942626953125, -9.537891387939453, -5.3249006271362305, 9.670988082885742, -36.662841796875, 95.35152435302734, -0.808837890625, 0.232177734375, 0.11572265625, 0, 
392, 1053212031, -0.11690488457679749, -0.5937438607215881, 0.5423929691314697, -0.5827751159667969, 13.027255058288574, -4.830145359039307, -6.73925256729126, 24.655611038208008, -67.38948059082031, 97.93525695800781, -0.80322265625, 0.241455078125, 0.119140625, 0, 
393, 1053220364, -0.10288930684328079, -0.5978286862373352, 0.5426567792892456, -0.5809939503669739, 20.16604232788086, 2.7003495693206787, -8.202259063720703, 106.39942169189453, -152.9834442138672, 80.73131561279297, -0.796875, 0.256591796875, 0.1298828125, 0, 
394, 1053228697, -0.08169544488191605, -0.6065309643745422, 0.5319398641586304, -0.5852364301681519, 21.256778717041016, 6.449433326721191, -2.384404420852661, 304.6811218261719, -178.50588989257812, 22.070404052734375, -0.792724609375, 0.2646484375, 0.1376953125, 0, 
395, 1053237030, -0.06566113978624344, -0.6114762425422668, 0.5165407061576843, -0.5958075523376465, 17.768272399902344, 0.5665407180786133, 8.264677047729492, 341.3780517578125, -52.369876861572266, -24.096765518188477, -0.790283203125, 0.263427734375, 0.1328125, 0, 
396, 1053245363, -0.05792190879583359, -0.6139364242553711, 0.5064613819122314, -0.6026937365531921, 10.055977821350098, -7.677117347717285, 11.307393074035645, 199.62210083007812, -8.971505165100098, -32.821041107177734, -0.796142578125, 0.260986328125, 0.118896484375, 0, 
397, 1053253696, -0.0572395995259285, -0.6169998049736023, 0.5040238499641418, -0.6016727089881897, 7.680770397186279, -13.653410911560059, -0.04990839213132858, 22.08858871459961, -37.60001754760742, -37.44062042236328, -0.79638671875, 0.26025390625, 0.12060546875, 0, 
398, 1053262029, -0.05486653745174408, -0.6188846230506897, 0.5011669397354126, -0.6023443937301636, 9.58952522277832, -10.982199668884277, -1.3969175815582275, 50.732025146484375, -24.940296173095703, -17.360200881958008, -0.798828125, 0.25732421875, 0.118896484375, 0, 
399, 1053270362, -0.04917135834693909, -0.6195496320724487, 0.4982597529888153, -0.6045602560043335, 9.284980773925781, 0.22897730767726898, 0.590226948261261, 89.10545349121094, -24.50954818725586, 19.143104553222656, -0.7978515625, 0.255126953125, 0.121337890625, 0, 
400, 1053278695, -0.04246848076581955, -0.6201362013816833, 0.4953196048736572, -0.606878399848938, 10.063706398010254, 7.478065490722656, 0.1464230716228485, 98.65139770507812, -29.911283493041992, 28.005475997924805, -0.797607421875, 0.259765625, 0.1220703125, 0, 
401, 1053287028, -0.03887045383453369, -0.6208633780479431, 0.49252888560295105, -0.6086447834968567, 12.745689392089844, 6.633396625518799, -0.19736379384994507, 67.2109603881836, -14.703592300415039, 1.9300663471221924, -0.796630859375, 0.260986328125, 0.118896484375, 0, 
402, 1053295361, -0.039417266845703125, -0.6221411228179932, 0.49003347754478455, -0.6093189120292664, 14.261245727539062, 5.1244611740112305, -0.7768400311470032, 22.28697967529297, -0.7472324371337891, -34.393043518066406, -0.799072265625, 0.256103515625, 0.11669921875, 0, 
403, 1053303694, -0.042580850422382355, -0.6239140033721924, 0.4867725670337677, -0.6099067330360413, 15.149371147155762, 4.255500316619873, 1.323853611946106, 5.964145660400391, 12.433585166931152, -66.3761978149414, -0.802734375, 0.250244140625, 0.115234375, 0, 
404, 1053312027, -0.04810251295566559, -0.6255279779434204, 0.48412004113197327, -0.6099542379379272, 14.796416282653809, 3.505143404006958, 2.1167471408843994, -23.043476104736328, 24.53798484802246, -80.06314086914062, -0.804443359375, 0.2431640625, 0.115966796875, 0, 
405, 1053320360, -0.054643675684928894, -0.6268962025642395, 0.4811777174472809, -0.6103267073631287, 14.211549758911133, 1.9239857196807861, 0.0903530865907669, -27.41062355041504, 36.379947662353516, -89.3458023071289, -0.81005859375, 0.2353515625, 0.11279296875, 0, 
406, 1053328693, -0.06162400543689728, -0.6282471418380737, 0.4778186082839966, -0.6109115481376648, 12.915482521057129, -0.32643771171569824, -0.5944041013717651, -26.277557373046875, 41.568603515625, -96.26243591308594, -0.813232421875, 0.224853515625, 0.111328125, 0, 
407, 1053337026, -0.06859518587589264, -0.6293712854385376, 0.4744628667831421, -0.611626386642456, 11.910111427307129, -1.4190539121627808, -0.5589056611061096, -25.589920043945312, 44.52936935424805, -94.61688995361328, -0.822265625, 0.212158203125, 0.10693359375, 0, 
408, 1053345359, -0.07519254833459854, -0.6302031874656677, 0.47137996554374695, -0.6123777031898499, 11.07300090789795, -1.4709900617599487, -1.174639344215393, -24.661630630493164, 44.6122932434082, -87.10884857177734, -0.823486328125, 0.19921875, 0.10498046875, 0, 
409, 1053353692, -0.08154936134815216, -0.6308183073997498, 0.4684855043888092, -0.6131516098976135, 10.58630084991455, -0.925536572933197, -1.9237807989120483, -24.26479721069336, 44.86466598510742, -82.06642150878906, -0.830322265625, 0.1884765625, 0.102783203125, 0, 
410, 1053362025, -0.08803100883960724, -0.6313020586967468, 0.46562814712524414, -0.6139334440231323, 10.097847938537598, -0.4593368172645569, -2.281148910522461, -25.733545303344727, 46.816043853759766, -81.89736938476562, -0.8349609375, 0.17626953125, 0.09912109375, 0, 
411, 1053370358, -0.09504525363445282, -0.6317450404167175, 0.46282461285591125, -0.6145514845848083, 9.793537139892578, -0.5099477171897888, -2.7271339893341064, -31.9309024810791, 49.06743240356445, -85.89636993408203, -0.83642578125, 0.166748046875, 0.09912109375, 0, 
412, 1053378691, -0.10273427516222, -0.6321474313735962, 0.46013548970222473, -0.6149197816848755, 9.949357032775879, -0.5821302533149719, -3.156968593597412, -40.3832893371582, 51.40284729003906, -90.64112091064453, -0.838623046875, 0.15576171875, 0.091796875, 0, 
413, 1053387024, -0.11097288131713867, -0.6324217915534973, 0.45754164457321167, -0.6151413917541504, 10.166635513305664, -0.7205552458763123, -3.233475685119629, -47.08980941772461, 54.5344352722168, -93.87926483154297, -0.843994140625, 0.14599609375, 0.087158203125, 0, 
414, 1053395357, -0.11947192996740341, -0.6326315402984619, 0.45487910509109497, -0.615308403968811, 10.277681350708008, -1.0628864765167236, -2.757622480392456, -49.1996955871582, 56.36946487426758, -96.33391571044922, -0.847412109375, 0.130859375, 0.08203125, 0, 
415, 1053403690, -0.12810519337654114, -0.6327586770057678, 0.4521116614341736, -0.6154804229736328, 10.058572769165039, -1.6841171979904175, -2.5206732749938965, -49.596702575683594, 58.10585403442383, -97.8697738647461, -0.852294921875, 0.122802734375, 0.080322265625, 0, 
416, 1053412023, -0.13679446280002594, -0.6327880024909973, 0.44936051964759827, -0.6155950427055359, 9.603360176086426, -2.335106134414673, -2.4784631729125977, -50.737369537353516, 58.772010803222656, -97.68115997314453, -0.853759765625, 0.108154296875, 0.07568359375, 0, 
417, 1053420356, -0.14528226852416992, -0.6326759457588196, 0.4467066824436188, -0.6156970858573914, 9.070182800292969, -2.6023929119110107, -2.592024803161621, -50.15923309326172, 58.41205978393555, -94.28475952148438, -0.856201171875, 0.095458984375, 0.07080078125, 0, 
418, 1053428689, -0.15332263708114624, -0.6324833631515503, 0.4441303610801697, -0.6158090829849243, 8.708826065063477, -2.60878324508667, -2.639167308807373, -47.01654052734375, 56.296470642089844, -89.30319213867188, -0.861572265625, 0.081298828125, 0.065185546875, 0, 
419, 1053437022, -0.16090188920497894, -0.6322596073150635, 0.44159913063049316, -0.6159253716468811, 8.593767166137695, -2.521806478500366, -2.2439701557159424, -43.43359375, 53.667213439941406, -84.807373046875, -0.863037109375, 0.07275390625, 0.0615234375, 0, 
420, 1053445355, -0.1679239571094513, -0.6320464611053467, 0.4389367699623108, -0.616172730922699, 8.761961936950684, -2.337188959121704, -2.069803237915039, -36.6524658203125, 51.6428337097168, -81.00120544433594, -0.8701171875, 0.0595703125, 0.056640625, 0, 
421, 1053453688, -0.17410357296466827, -0.6320486664772034, 0.4357832968235016, -0.6166933178901672, 8.950791358947754, -2.3504703044891357, -2.1498403549194336, -23.026996612548828, 48.224830627441406, -78.79814147949219, -0.867919921875, 0.04931640625, 0.05078125, 0, 
422, 1053462021, -0.17954488098621368, -0.6323054432868958, 0.43213406205177307, -0.6174376010894775, 8.94412612915039, -2.4474098682403564, -1.9938857555389404, -10.451220512390137, 44.788795471191406, -77.83857727050781, -0.869384765625, 0.044189453125, 0.04541015625, 0, 
423, 1053470354, -0.18474894762039185, -0.6325393319129944, 0.4283405840396881, -0.6183055639266968, 8.714516639709473, -2.3689486980438232, -1.989117980003357, -6.4885663986206055, 44.989906311035156, -76.63475799560547, -0.87451171875, 0.033447265625, 0.042236328125, 0, 
424, 1053478687, -0.18986637890338898, -0.6327663660049438, 0.4245673418045044, -0.6191249489784241, 8.700121879577637, -2.3624448776245117, -1.6343562602996826, -6.206064224243164, 44.081180572509766, -75.80694580078125, -0.876220703125, 0.02099609375, 0.035400390625, 0, 
425, 1053487020, -0.19490593671798706, -0.6328260898590088, 0.42089956998825073, -0.6200017333030701, 9.022939682006836, -2.3258907794952393, -1.4928722381591797, -6.532210350036621, 45.257511138916016, -73.09310913085938, -0.876220703125, 0.010986328125, 0.032958984375, 0, 
426, 1053495353, -0.19987469911575317, -0.6327505111694336, 0.4173102378845215, -0.6209228038787842, 9.036386489868164, -2.384758710861206, -1.4895107746124268, -6.687919616699219, 46.19294357299805, -70.9117660522461, -0.877197265625, 0.00146484375, 0.0283203125, 0, 
427, 1053503686, -0.20486801862716675, -0.6326670050621033, 0.4138753414154053, -0.6216786503791809, 8.879556655883789, -2.3784751892089844, -1.4503319263458252, -9.190777778625488, 44.52302932739258, -70.1810073852539, -0.88037109375, -0.00439453125, 0.023681640625, 0, 
428, 1053512019, -0.20984867215156555, -0.632492184638977, 0.41056758165359497, -0.6223883032798767, 8.579686164855957, -2.390139579772949, -1.206263780593872, -10.686809539794922, 44.48754119873047, -68.58133697509766, -0.87841796875, -0.013671875, 0.020263671875, 0, 
429, 1053520352, -0.21445053815841675, -0.6324443817138672, 0.40696752071380615, -0.6232320666313171, 8.42807674407959, -2.2161366939544678, -1.2790719270706177, -3.7696433067321777, 43.25586700439453, -68.20658874511719, -0.87841796875, -0.024169921875, 0.0126953125, 0, 
430, 1053528685, -0.21847665309906006, -0.6326727867126465, 0.40297749638557434, -0.6241939663887024, 8.222877502441406, -2.0335614681243896, -1.6954679489135742, 6.057916164398193, 39.858341217041016, -67.86801147460938, -0.880126953125, -0.036376953125, 0.01025390625, 0, 
431, 1053537018, -0.22207972407341003, -0.6333001255989075, 0.398531436920166, -0.6251397728919983, 7.772862434387207, -1.9607834815979004, -1.8863016366958618, 14.763090133666992, 35.3087158203125, -70.4569320678711, -0.87890625, -0.04443359375, 0.00439453125, 0, 
432, 1053545351, -0.22557005286216736, -0.6342270970344543, 0.39382970333099365, -0.6259297132492065, 7.608621120452881, -1.912450909614563, -1.7017667293548584, 18.00239372253418, 31.550382614135742, -73.83778381347656, -0.879150390625, -0.05419921875, 0.00048828125, 0, 
433, 1053553684, -0.2290530502796173, -0.635337233543396, 0.38889771699905396, -0.6266221404075623, 7.848606109619141, -1.8594850301742554, -1.41669762134552, 20.088695526123047, 29.784976959228516, -77.07344818115234, -0.883544921875, -0.0625, -0.0029296875, 0, 
434, 1053562017, -0.23255077004432678, -0.6365602016448975, 0.38374122977256775, -0.6272713541984558, 7.944256782531738, -1.8542265892028809, -1.3239929676055908, 22.01894187927246, 29.23259925842285, -79.9064712524414, -0.88037109375, -0.074951171875, -0.00537109375, 0, 
435, 1053570350, -0.23604951798915863, -0.637924313545227, 0.37838470935821533, -0.6278324723243713, 7.8265862464904785, -1.9016697406768799, -1.3584420680999756, 23.720617294311523, 27.880859375, -82.6877670288086, -0.87841796875, -0.087158203125, -0.008056640625, 0, 
436, 1053578683, -0.23960340023040771, -0.6394451260566711, 0.3728586733341217, -0.6282452344894409, 7.666868686676025, -2.0230915546417236, -1.4650954008102417, 24.438737869262695, 26.07404136657715, -85.95177459716797, -0.880126953125, -0.0947265625, -0.010009765625, 0, 
437, 1053587016, -0.24318553507328033, -0.6411108374595642, 0.3672288656234741, -0.6284871101379395, 7.475311756134033, -2.1757912635803223, -1.5477029085159302, 24.685800552368164, 23.79733657836914, -88.41131591796875, -0.88134765625, -0.10791015625, -0.012451171875, 0, 
438, 1053595349, -0.2467106580734253, -0.642917811870575, 0.3615283966064453, -0.6285723447799683, 7.454463481903076, -2.328411817550659, -1.6577448844909668, 25.483856201171875, 21.152456283569336, -89.78153991699219, -0.88330078125, -0.11572265625, -0.017578125, 0, 
439, 1053603682, -0.25012287497520447, -0.6447854042053223, 0.35574665665626526, -0.6286096572875977, 7.458150863647461, -2.619457960128784, -1.649643063545227, 27.150619506835938, 19.910545349121094, -89.98865509033203, -0.880126953125, -0.130126953125, -0.01806640625, 0, 
440, 1053612015, -0.2534705698490143, -0.6466219425201416, 0.35000959038734436, -0.6286028623580933, 7.578688621520996, -3.0590763092041016, -1.413125991821289, 27.015380859375, 19.32920265197754, -89.03450012207031, -0.87939453125, -0.141845703125, -0.020263671875, 0, 
441, 1053620348, -0.25676435232162476, -0.6483995318412781, 0.34441596269607544, -0.6285246014595032, 7.912074565887451, -3.539393186569214, -1.3652153015136719, 25.701276779174805, 18.436561584472656, -87.26045989990234, -0.881591796875, -0.151611328125, -0.016845703125, 0, 
442, 1053628681, -0.25993943214416504, -0.6501002311706543, 0.33895379304885864, -0.6284322142601013, 8.341959953308105, -3.971216917037964, -1.327046275138855, 25.28814125061035, 17.95475959777832, -84.74575805664062, -0.878173828125, -0.16552734375, -0.02099609375, 0, 
