PacketCounter,SampleTimeFine,Quat_W,Quat_X,Quat_Y,Quat_Z,Acc_X,Acc_Y,Acc_Z,Gyr_X,Gyr_Y,Gyr_Z,Mag_X,Mag_Y,Mag_Z,Status,
0, 1031104582, -0.23572608828544617, -0.5732771158218384, 0.4330316483974457, -0.6544352173805237, 0, 0, 0, 0, 0, 0, -1.050048828125, 0.00341796875, -0.161865234375, 0, 
1, 1031112915, -0.23577038943767548, -0.5733069777488708, 0.43292921781539917, -0.6544609069824219, 9.49362850189209, -3.0002920627593994, -0.44008806347846985, 1.6440752744674683, -0.3159131407737732, -1.5184502601623535, -1.050537109375, 0.00390625, -0.156005859375, 0, 
2, 1031121248, -0.23586145043373108, -0.5732979774475098, 0.43281906843185425, -0.6545087695121765, 9.513998031616211, -3.0138583183288574, -0.2392037808895111, 1.5305402278900146, 0.4401421844959259, -1.6948425769805908, -1.052734375, 0.001220703125, -0.159423828125, 0, 
3, 1031129581, -0.2360011637210846, -0.5732774138450623, 0.4326518177986145, -0.654586911201477, 9.583356857299805, -2.9473607540130615, -0.12903811037540436, 1.624928593635559, 1.328802466392517, -2.4180350303649902, -1.0517578125, -0.000244140625, -0.159912109375, 0, 
4, 1031137914, -0.23621942102909088, -0.573222815990448, 0.4324774742126465, -0.654671311378479, 9.555771827697754, -2.9028258323669434, -0.04854979366064072, 0.8404414653778076, 2.208754062652588, -2.947942018508911, -1.05029296875, 0.003173828125, -0.158935546875, 0, 
5, 1031146247, -0.23648440837860107, -0.5731670260429382, 0.432370662689209, -0.6546950340270996, 9.610507011413574, -2.86295747756958, -0.041493747383356094, -0.345561683177948, 1.7660120725631714, -3.0368239879608154, -1.05224609375, 0.000244140625, -0.160400390625, 0, 
6, 1031154580, -0.23679637908935547, -0.5730664730072021, 0.43229585886001587, -0.6547196507453918, 9.603047370910645, -2.8163602352142334, -0.07711676508188248, -1.5345743894577026, 2.457724094390869, -2.92053484916687, -1.05322265625, 0.000732421875, -0.159423828125, 0, 
7, 1031162913, -0.23717209696769714, -0.5729250311851501, 0.4322354197502136, -0.6547473073005676, 9.474345207214355, -2.82303786277771, -0.1851324439048767, -1.8915857076644897, 3.074566602706909, -3.147451639175415, -1.05078125, 0.004638671875, -0.160400390625, 0, 
8, 1031171246, -0.23746779561042786, -0.5728158950805664, 0.4321024715900421, -0.654823362827301, 9.4631986618042, -2.755068302154541, -0.3185215890407562, -0.2166195958852768, 2.9128637313842773, -3.023914337158203, -1.04931640625, -0.00048828125, -0.16259765625, 0, 
9, 1031179579, -0.23766827583312988, -0.5727732181549072, 0.43193352222442627, -0.6548993587493896, 9.486735343933105, -2.696516275405884, -0.4123448431491852, 1.0757339000701904, 1.8801747560501099, -2.8514792919158936, -1.05419921875, 0.000732421875, -0.159912109375, 0, 
10, 1031187912, -0.2378583550453186, -0.5728183388710022, 0.4317832589149475, -0.6548901200294495, 9.42554759979248, -2.6474056243896484, -0.325909823179245, 0.8190024495124817, 0.2648640275001526, -3.4056689739227295, -1.052490234375, -0.001708984375, -0.161865234375, 0, 
11, 1031196245, -0.23811164498329163, -0.5728476643562317, 0.4317016303539276, -0.6548263430595398, 9.50755786895752, -2.647353410720825, -0.28895848989486694, -0.7218091487884521, 0.15674631297588348, -3.5246214866638184, -1.05029296875, -0.004150390625, -0.163330078125, 0, 
12, 1031204578, -0.23844416439533234, -0.5727803111076355, 0.43164244294166565, -0.6548032760620117, 9.507750511169434, -2.662536144256592, -0.25522446632385254, -1.5708186626434326, 1.7161152362823486, -3.3476781845092773, -1.052001953125, -0.001708984375, -0.160888671875, 0, 
13, 1031212911, -0.23874637484550476, -0.5726758241653442, 0.43150103092193604, -0.6548776626586914, 9.467575073242188, -2.6873669624328613, -0.17771746218204498, -0.18583127856254578, 2.937530040740967, -3.1885111331939697, -1.052734375, -0.001708984375, -0.160400390625, 0, 
14, 1031221244, -0.2391107976436615, -0.5725311040878296, 0.43132710456848145, -0.6549856662750244, 9.382390975952148, -2.7389397621154785, -0.07988850772380829, -0.08754945546388626, 3.954312801361084, -3.6533069610595703, -1.051025390625, -0.001708984375, -0.166748046875, 0, 
15, 1031229577, -0.23952622711658478, -0.5723962187767029, 0.4311869144439697, -0.6550440788269043, 9.385019302368164, -2.797689199447632, 0.0013690907508134842, -1.2840286493301392, 3.7548415660858154, -4.0724196434021, -1.049560546875, -0.004150390625, -0.161865234375, 0, 
16, 1031237910, -0.23997890949249268, -0.5722878575325012, 0.43107470870018005, -0.6550469398498535, 9.428617477416992, -2.8291687965393066, 0.028208062052726746, -2.044438600540161, 3.1812877655029297, -4.519285202026367, -1.052490234375, -0.00390625, -0.167236328125, 0, 
17, 1031246243, -0.24035948514938354, -0.572268545627594, 0.4308965802192688, -0.655041515827179, 9.446405410766602, -2.880154609680176, 0.007036889903247356, -0.6645869016647339, 2.129324197769165, -4.950847148895264, -1.05224609375, -0.00439453125, -0.16455078125, 0, 
18, 1031254576, -0.2406943440437317, -0.5723434090614319, 0.43075263500213623, -0.6549478769302368, 9.603081703186035, -2.9264931678771973, -0.21135669946670532, -0.8787731528282166, 0.20313367247581482, -5.1113200187683105, -1.05322265625, -0.001953125, -0.1640625, 0, 
19, 1031262909, -0.2410717010498047, -0.5723329782485962, 0.4306343197822571, -0.6548960208892822, 9.51102066040039, -2.8402881622314453, -0.45839229226112366, -1.423485517501831, 1.4663254022598267, -4.657308578491211, -1.053955078125, -0.0068359375, -0.166259765625, 0, 
20, 1031271242, -0.24137581884860992, -0.5723234415054321, 0.43043941259384155, -0.6549202799797058, 9.412613868713379, -2.795351505279541, -0.5974686741828918, 0.5872448086738586, 1.770827293395996, -4.351859092712402, -1.05126953125, -0.00439453125, -0.1640625, 0, 
21, 1031279575, -0.24153727293014526, -0.5724021196365356, 0.4301910996437073, -0.6549551486968994, 9.480026245117188, -2.790282964706421, -0.44040265679359436, 2.2546801567077637, 0.5010528564453125, -3.9765331745147705, -1.05126953125, -0.001953125, -0.164306640625, 0, 
22, 1031287908, -0.2416680008172989, -0.5724956393241882, 0.4299261271953583, -0.6549990773200989, 9.476109504699707, -2.766526699066162, -0.12908503413200378, 2.813045024871826, 0.2748023271560669, -3.8810689449310303, -1.04833984375, -0.00927734375, -0.16650390625, 0, 
23, 1031296241, -0.2417912483215332, -0.5726027488708496, 0.42963647842407227, -0.6550501585006714, 9.50123119354248, -2.742018222808838, -0.0555272102355957, 3.11690616607666, 0.2831525504589081, -4.072073936462402, -1.05126953125, -0.008544921875, -0.163818359375, 0, 
24, 1031304574, -0.24194824695587158, -0.572665810585022, 0.4292899966239929, -0.6551641821861267, 9.429261207580566, -2.752962589263916, -0.22312909364700317, 3.7325708866119385, 1.5039526224136353, -4.348758697509766, -1.05078125, -0.005859375, -0.1669921875, 0, 
25, 1031312907, -0.24213907122612, -0.572746753692627, 0.42888373136520386, -0.6552889347076416, 9.39140796661377, -2.8104183673858643, -0.1747417151927948, 3.9839487075805664, 1.88657808303833, -5.199690341949463, -1.05126953125, -0.008056640625, -0.163818359375, 0, 
26, 1031321240, -0.24237756431102753, -0.5728375911712646, 0.42852333188056946, -0.6553574800491333, 9.342413902282715, -2.8457698822021484, -0.06759420037269592, 2.8435769081115723, 1.4817192554473877, -5.501809120178223, -1.052978515625, -0.00927734375, -0.166015625, 0, 
27, 1031329573, -0.24258898198604584, -0.5729509592056274, 0.4281984865665436, -0.655392587184906, 9.393217086791992, -2.85312819480896, 0.0235300250351429, 2.667607545852661, 0.7370880842208862, -5.234217643737793, -1.051513671875, -0.010498046875, -0.17041015625, 0, 
28, 1031337906, -0.2427178919315338, -0.5730929970741272, 0.4278676509857178, -0.6554365158081055, 9.462268829345703, -2.862603187561035, 0.00836771447211504, 3.5244288444519043, 0.06735263019800186, -4.66701602935791, -1.0517578125, -0.01123046875, -0.1689453125, 0, 
29, 1031346239, -0.2428291290998459, -0.573146641254425, 0.4275398552417755, -0.6555622816085815, 9.515862464904785, -2.8454976081848145, -0.022145625203847885, 3.8187365531921387, 1.410178780555725, -3.7000019550323486, -1.04833984375, -0.01171875, -0.167236328125, 0, 
30, 1031354572, -0.24294859170913696, -0.5731449723243713, 0.42723286151885986, -0.6557197570800781, 9.516342163085938, -2.829892635345459, -0.2589135766029358, 3.613386869430542, 2.105912685394287, -3.1721689701080322, -1.04931640625, -0.01318359375, -0.16796875, 0, 
31, 1031362905, -0.24306994676589966, -0.5731067061424255, 0.426926851272583, -0.6559075117111206, 9.477746963500977, -2.826350450515747, -0.3458542823791504, 3.5990686416625977, 2.714993715286255, -2.872406005859375, -1.051025390625, -0.01171875, -0.169921875, 0, 
32, 1031371238, -0.24326582252979279, -0.5730516314506531, 0.42672523856163025, -0.6560139060020447, 9.415840148925781, -2.8442118167877197, -0.3830072581768036, 1.5090497732162476, 2.3043718338012695, -2.884521245956421, -1.049072265625, -0.01611328125, -0.16845703125, 0, 
33, 1031379571, -0.24344958364963531, -0.5731160640716553, 0.4266328513622284, -0.6559495329856873, 9.421581268310547, -2.82051682472229, -0.21064190566539764, 0.04435104876756668, -0.5464540719985962, -3.197450637817383, -1.0537109375, -0.01513671875, -0.168212890625, 0, 
34, 1031387904, -0.24358852207660675, -0.5732426643371582, 0.42657431960105896, -0.6558255553245544, 9.622077941894531, -2.723745584487915, -0.27827200293540955, 0.23892953991889954, -2.054863214492798, -3.0865278244018555, -1.05078125, -0.01513671875, -0.168701171875, 0, 
35, 1031396237, -0.24366647005081177, -0.573363721370697, 0.426372766494751, -0.6558218598365784, 9.599767684936523, -2.7361202239990234, -0.27872800827026367, 2.4079556465148926, -0.8351777195930481, -3.2329771518707275, -1.052490234375, -0.01318359375, -0.170166015625, 0, 
36, 1031404570, -0.24375015497207642, -0.5734671950340271, 0.4260888397693634, -0.6558848023414612, 9.50737476348877, -2.8174257278442383, -0.23710688948631287, 3.4686155319213867, 0.1347949057817459, -3.599670648574829, -1.05224609375, -0.017578125, -0.171875, 0, 
37, 1031412903, -0.24385152757167816, -0.573555588722229, 0.4257993698120117, -0.6559576988220215, 9.393234252929688, -2.7711081504821777, -0.15037180483341217, 3.3570656776428223, 0.4953921437263489, -3.6881937980651855, -1.053466796875, -0.01611328125, -0.17138671875, 0, 
38, 1031421236, -0.24396152794361115, -0.5736663937568665, 0.42556193470954895, -0.6559740900993347, 9.482956886291504, -2.7765307426452637, -0.0865304246544838, 2.4112091064453125, -0.24889355897903442, -3.6677284240722656, -1.0498046875, -0.0205078125, -0.1728515625, 0, 
39, 1031429569, -0.24407023191452026, -0.5737971067428589, 0.4253479242324829, -0.6559582352638245, 9.431549072265625, -2.7696473598480225, -0.06698999553918839, 2.2390553951263428, -0.7956037521362305, -3.7044334411621094, -1.0517578125, -0.016357421875, -0.17236328125, 0, 
40, 1031437902, -0.2441508173942566, -0.573948085308075, 0.4251415431499481, -0.6559298038482666, 9.420894622802734, -2.7258100509643555, -0.00969336275011301, 2.691864013671875, -1.3742038011550903, -3.547879219055176, -1.048828125, -0.01806640625, -0.171142578125, 0, 
41, 1031446235, -0.24413786828517914, -0.5741170644760132, 0.42494070529937744, -0.6559168696403503, 9.469217300415039, -2.6290600299835205, -0.012119784019887447, 3.226689338684082, -1.8724007606506348, -2.718515634536743, -1.053955078125, -0.01708984375, -0.1708984375, 0, 
42, 1031454568, -0.2441285252571106, -0.5742270350456238, 0.42475879192352295, -0.6559417247772217, 9.529187202453613, -2.5343017578125, -0.05454488471150398, 3.0539209842681885, -1.1034355163574219, -2.1217806339263916, -1.052734375, -0.019287109375, -0.1689453125, 0, 
43, 1031462901, -0.24420511722564697, -0.5742470622062683, 0.4245864152908325, -0.6560074090957642, 9.46760368347168, -2.521871566772461, -0.13495473563671112, 2.2221245765686035, 0.5182400345802307, -2.1663753986358643, -1.048583984375, -0.017578125, -0.1689453125, 0, 
44, 1031471234, -0.24443261325359344, -0.5741697549819946, 0.4244674742221832, -0.6560673117637634, 9.407333374023438, -2.5190799236297607, -0.1442531943321228, 0.32372549176216125, 1.9938760995864868, -2.551741123199463, -1.051025390625, -0.015625, -0.169189453125, 0, 
45, 1031479567, -0.24479195475578308, -0.574069082736969, 0.4244537353515625, -0.6560302972793579, 9.361349105834961, -2.5853872299194336, -0.14228275418281555, -2.4464540481567383, 1.9138445854187012, -3.10543155670166, -1.0517578125, -0.0185546875, -0.171875, 0, 
46, 1031487900, -0.24509243667125702, -0.5740914344787598, 0.4245375394821167, -0.6558443903923035, 9.39454174041748, -2.6132473945617676, -0.239116832613945, -2.9849934577941895, -1.1559321880340576, -3.0199058055877686, -1.052734375, -0.0185546875, -0.1728515625, 0, 
47, 1031496233, -0.24515856802463531, -0.5743178725242615, 0.4244559407234192, -0.655674159526825, 9.529228210449219, -2.7149887084960938, -0.39513078331947327, 0.8040949106216431, -3.5715208053588867, -3.3538765907287598, -1.052978515625, -0.02001953125, -0.169677734375, 0, 
48, 1031504566, -0.24504442512989044, -0.5746014714241028, 0.4242233335971832, -0.6556191444396973, 9.649334907531738, -2.740675210952759, -0.3603573739528656, 4.341728210449219, -3.7008211612701416, -2.8553977012634277, -1.05126953125, -0.021240234375, -0.16796875, 0, 
49, 1031512899, -0.24482326209545135, -0.5749011635780334, 0.4239048659801483, -0.6556450128555298, 9.726006507873535, -2.778794527053833, -0.2753516137599945, 6.601571083068848, -3.5609428882598877, -2.401744842529297, -1.048583984375, -0.01953125, -0.169677734375, 0, 
50, 1031521232, -0.2446545511484146, -0.575130045413971, 0.42355969548225403, -0.6557303071022034, 9.740863800048828, -2.812572479248047, -0.24471496045589447, 6.773364543914795, -2.141580581665039, -2.4662411212921143, -1.050537109375, -0.021484375, -0.166015625, 0, 
51, 1031529565, -0.2446269392967224, -0.5751974582672119, 0.42322367429733276, -0.6558985114097595, 9.675662994384766, -2.807809352874756, -0.1452258676290512, 5.27536678314209, 0.8459485173225403, -2.4545862674713135, -1.0517578125, -0.02587890625, -0.166748046875, 0, 
52, 1031537898, -0.24469713866710663, -0.5751933455467224, 0.42289572954177856, -0.6560871601104736, 9.580469131469727, -2.743072748184204, -0.1298079490661621, 4.3317131996154785, 2.1728427410125732, -2.7790164947509766, -1.053466796875, -0.023681640625, -0.17041015625, 0, 
53, 1031546231, -0.24488306045532227, -0.5751931667327881, 0.42259594798088074, -0.6562110781669617, 9.518142700195312, -2.7020187377929688, -0.0490594282746315, 2.776390790939331, 2.2256336212158203, -3.847385883331299, -1.052490234375, -0.020751953125, -0.169189453125, 0, 
54, 1031554564, -0.2452336996793747, -0.5751549601554871, 0.4223918318748474, -0.6562449932098389, 9.432171821594238, -2.6910393238067627, -0.06747536361217499, 0.04560614749789238, 2.450859785079956, -4.653594493865967, -1.052978515625, -0.026123046875, -0.1689453125, 0, 
55, 1031562897, -0.24571557343006134, -0.575077474117279, 0.4222559928894043, -0.6562200784683228, 9.339029312133789, -2.686539649963379, -0.037774961441755295, -2.1694998741149902, 2.9124536514282227, -5.275021076202393, -1.050537109375, -0.02490234375, -0.173095703125, 0, 
56, 1031571230, -0.2462984025478363, -0.5749856233596802, 0.42219802737236023, -0.6561194062232971, 9.34045696258545, -2.7276389598846436, -0.07109492272138596, -4.267460346221924, 2.781667947769165, -5.732287406921387, -1.049560546875, -0.029052734375, -0.16943359375, 0, 
57, 1031579563, -0.2469339817762375, -0.5748810172080994, 0.4222266972064972, -0.6559537649154663, 9.393552780151367, -2.7892205715179443, -0.11815601587295532, -5.778213024139404, 2.382418632507324, -5.678906440734863, -1.052001953125, -0.02587890625, -0.1748046875, 0, 
58, 1031587896, -0.24758297204971313, -0.57475346326828, 0.4222775995731354, -0.6557879447937012, 9.435449600219727, -2.9035372734069824, -0.025370657444000244, -6.1884765625, 2.5800836086273193, -5.484879016876221, -1.055908203125, -0.02587890625, -0.175048828125, 0, 
59, 1031596229, -0.248257115483284, -0.5745513439178467, 0.42245757579803467, -0.6555942893028259, 9.450944900512695, -2.992579698562622, -0.053278159350156784, -7.94233512878418, 2.7491378784179688, -4.3601579666137695, -1.051513671875, -0.0283203125, -0.17333984375, 0, 
60, 1031604562, -0.24896840751171112, -0.5742735266685486, 0.42288899421691895, -0.655289888381958, 9.31001091003418, -3.135068893432617, -0.16042737662792206, -11.373311042785645, 1.8862453699111938, -2.638881206512451, -1.04931640625, -0.02734375, -0.1748046875, 0, 
61, 1031612895, -0.2495873123407364, -0.5739927887916565, 0.4234975576400757, -0.6549072265625, 9.265932083129883, -3.2013256549835205, -0.3465823233127594, -12.7364501953125, 0.17639246582984924, -0.6689926981925964, -1.051025390625, -0.025390625, -0.1748046875, 0, 
62, 1031621228, -0.2500523030757904, -0.5737083554267883, 0.4241816997528076, -0.654536247253418, 9.250873565673828, -3.2908284664154053, -0.4980204403400421, -11.998271942138672, -0.911559522151947, 1.384974479675293, -1.050048828125, -0.02880859375, -0.17333984375, 0, 
63, 1031629561, -0.25040560960769653, -0.5733761787414551, 0.42489632964134216, -0.6542286276817322, 9.217182159423828, -3.3504605293273926, -0.5681782364845276, -11.33454418182373, -0.679660975933075, 3.119276285171509, -1.0546875, -0.02587890625, -0.174072265625, 0, 
64, 1031637894, -0.2506970465183258, -0.5729787945747375, 0.42565399408340454, -0.6539726257324219, 9.235568046569824, -3.3651540279388428, -0.6425800919532776, -11.095601081848145, -0.22965724766254425, 4.578993320465088, -1.051513671875, -0.02392578125, -0.174072265625, 0, 
65, 1031646227, -0.25094011425971985, -0.5725117325782776, 0.42641139030456543, -0.6537951231002808, 9.39976978302002, -3.4644899368286133, -0.6282532215118408, -10.554064750671387, 0.7682094573974609, 5.686347961425781, -1.052001953125, -0.023681640625, -0.1748046875, 0, 
66, 1031654560, -0.25114306807518005, -0.571890652179718, 0.4271842837333679, -0.6537562012672424, 9.614346504211426, -3.6887381076812744, -0.8005200028419495, -9.843948364257812, 2.866899251937866, 7.5510783195495605, -1.052001953125, -0.020751953125, -0.174560546875, 0, 
67, 1031662893, -0.25126034021377563, -0.5710964202880859, 0.42789173126220703, -0.6539428234100342, 9.52108097076416, -3.9169979095458984, -1.0064069032669067, -8.107650756835938, 6.005412578582764, 9.601933479309082, -1.054931640625, -0.019287109375, -0.175048828125, 0, 
68, 1031671226, -0.25124701857566833, -0.5701463222503662, 0.4285096824169159, -0.654371976852417, 9.033428192138672, -4.148813247680664, -1.216454267501831, -5.5715837478637695, 8.893353462219238, 11.832255363464355, -1.050048828125, -0.016845703125, -0.175537109375, 0, 
69, 1031679559, -0.25103962421417236, -0.5691624283790588, 0.42910993099212646, -0.6549145579338074, 8.635518074035645, -4.378633975982666, -1.2794444561004639, -3.1555206775665283, 8.966456413269043, 14.026165962219238, -1.04931640625, -0.0166015625, -0.176513671875, 0, 
70, 1031687892, -0.25054556131362915, -0.5682680606842041, 0.42976605892181396, -0.6554501056671143, 8.70337200164795, -4.488811016082764, -1.2232638597488403, -1.0380940437316895, 6.173429012298584, 16.493175506591797, -1.0498046875, -0.01025390625, -0.18115234375, 0, 
71, 1031696225, -0.24963128566741943, -0.5675179958343506, 0.4304555654525757, -0.6559961438179016, 9.172575950622559, -4.6284871101379395, -1.0704853534698486, 2.394009828567505, 2.4027442932128906, 19.72319984436035, -1.04736328125, -0.009521484375, -0.177001953125, 0, 
72, 1031704558, -0.2482316941022873, -0.5668817758560181, 0.4311048090457916, -0.6566505432128906, 9.677983283996582, -4.6866888999938965, -0.9991578459739685, 7.683596611022949, -0.5571867823600769, 23.485462188720703, -1.049072265625, -0.009033203125, -0.1796875, 0, 
73, 1031712891, -0.24619275331497192, -0.5664004683494568, 0.4314856231212616, -0.6575828194618225, 9.991212844848633, -4.83864688873291, -0.9323411583900452, 17.160491943359375, -2.6189043521881104, 27.19751739501953, -1.048583984375, -0.00048828125, -0.18505859375, 0, 
74, 1031721224, -0.24339234828948975, -0.566082239151001, 0.43144047260284424, -0.6589274406433105, 10.303701400756836, -5.333066940307617, -0.6504937410354614, 29.83357048034668, -3.934147596359253, 31.18977165222168, -1.05078125, 0.00048828125, -0.177734375, 0, 
75, 1031729557, -0.23983421921730042, -0.5658634901046753, 0.43104204535484314, -0.660678505897522, 10.274735450744629, -5.866202354431152, -0.5933411717414856, 41.786773681640625, -5.009952545166016, 36.07926940917969, -1.050048828125, 0.002685546875, -0.180908203125, 0, 
76, 1031737890, -0.23553764820098877, -0.5658619999885559, 0.4303264915943146, -0.6626889705657959, 9.542349815368652, -6.271369457244873, -0.8374543190002441, 52.832183837890625, -8.35598373413086, 39.88104248046875, -1.046142578125, 0.007568359375, -0.180419921875, 0, 
77, 1031746223, -0.2305750548839569, -0.5662817358970642, 0.4296424686908722, -0.6645169258117676, 9.047720909118652, -6.6229095458984375, -1.3854701519012451, 57.846675872802734, -17.598546981811523, 43.11878204345703, -1.046875, 0.01318359375, -0.181640625, 0, 
78, 1031754556, -0.22498813271522522, -0.5671240091323853, 0.42925596237182617, -0.6659621000289917, 8.895094871520996, -6.577034950256348, -2.3990721702575684, 59.31005096435547, -29.159942626953125, 47.41783905029297, -1.047119140625, 0.013671875, -0.1796875, 0, 
79, 1031762889, -0.2186390906572342, -0.5683621168136597, 0.42888787388801575, -0.6672571301460266, 9.072687149047852, -6.326684474945068, -2.7798233032226562, 65.18183135986328, -38.42496109008789, 51.75364303588867, -1.04541015625, 0.0205078125, -0.172607421875, 0, 
80, 1031771222, -0.21143274009227753, -0.5697018504142761, 0.4281614422798157, -0.6689013838768005, 9.49050521850586, -6.13209867477417, -2.175823211669922, 77.18949127197266, -40.48863983154297, 57.254920959472656, -1.05029296875, 0.029052734375, -0.17041015625, 0, 
81, 1031779555, -0.20349711179733276, -0.5708897113800049, 0.42709746956825256, -0.671026885509491, 9.938559532165527, -6.195793151855469, -1.330978512763977, 88.7458267211914, -38.7517204284668, 63.62675094604492, -1.047607421875, 0.03076171875, -0.165771484375, 0, 
82, 1031787888, -0.19490300118923187, -0.5718092322349548, 0.4258624315261841, -0.6735750436782837, 10.080503463745117, -6.658437252044678, -0.7710734605789185, 97.34224700927734, -36.39341735839844, 71.09566497802734, -1.04736328125, 0.03955078125, -0.16455078125, 0, 
83, 1031796221, -0.1857127845287323, -0.5724220275878906, 0.4246271848678589, -0.676425039768219, 10.029698371887207, -7.421195030212402, -0.2799249291419983, 102.85982513427734, -34.61956787109375, 79.24425506591797, -1.04833984375, 0.048828125, -0.16015625, 0, 
84, 1031804554, -0.1758241355419159, -0.5727358460426331, 0.4233325123786926, -0.679606020450592, 9.673552513122559, -8.320920944213867, 0.06428158283233643, 110.09368896484375, -33.16841125488281, 87.83724212646484, -1.0458984375, 0.057861328125, -0.161865234375, 0, 
85, 1031812887, -0.16523146629333496, -0.572817862033844, 0.42196017503738403, -0.6830396056175232, 8.992836952209473, -9.19122314453125, 0.15782055258750916, 117.26184844970703, -32.91790771484375, 95.7939453125, -1.044677734375, 0.068115234375, -0.158203125, 0, 
86, 1031821220, -0.15421339869499207, -0.5726611614227295, 0.4211852550506592, -0.6862185001373291, 9.01411247253418, -9.823158264160156, -0.178816020488739, 112.97186279296875, -36.50342559814453, 105.26765441894531, -1.042236328125, 0.07568359375, -0.158203125, 0, 
87, 1031829553, -0.14287054538726807, -0.5721462368965149, 0.4212817847728729, -0.6890383958816528, 9.232617378234863, -9.69301986694336, -1.0923099517822266, 104.47525024414062, -39.68429946899414, 116.54174041748047, -1.043212890625, 0.091552734375, -0.15576171875, 0, 
88, 1031837886, -0.13102278113365173, -0.5714040994644165, 0.4218214154243469, -0.6916735172271729, 8.799158096313477, -8.95148754119873, -1.8359850645065308, 102.7266616821289, -42.77865219116211, 125.72527313232422, -1.037841796875, 0.10595703125, -0.153076171875, 0, 
89, 1031846219, -0.11864810436964035, -0.5703134536743164, 0.422260582447052, -0.6945332288742065, 8.977397918701172, -8.2828950881958, -1.3110227584838867, 108.50619506835938, -40.576358795166016, 132.41677856445312, -1.037109375, 0.123291015625, -0.156982421875, 0, 
90, 1031854552, -0.10613034665584564, -0.5685295462608337, 0.4228639602661133, -0.6976473927497864, 10.241332054138184, -7.678768634796143, 0.15731202065944672, 108.39395904541016, -33.05453109741211, 139.4618682861328, -1.03173828125, 0.13720703125, -0.1572265625, 0, 
91, 1031862885, -0.0941036194562912, -0.5659635663032532, 0.4246489107608795, -0.700370192527771, 11.077437400817871, -7.258365154266357, 0.8104345798492432, 89.81321716308594, -27.482255935668945, 148.01377868652344, -1.02734375, 0.15625, -0.15576171875, 0, 
92, 1031871218, -0.08257342875003815, -0.5624780654907227, 0.42740583419799805, -0.7029504776000977, 11.53328800201416, -6.6856465339660645, 0.9700136780738831, 74.55216979980469, -18.090532302856445, 155.9281768798828, -1.024658203125, 0.178955078125, -0.158203125, 0, 
93, 1031879551, -0.07119859755039215, -0.5585574507713318, 0.4303520917892456, -0.7055186629295349, 12.00464153289795, -6.2834882736206055, 1.15199613571167, 70.96747589111328, -13.282564163208008, 158.48863220214844, -1.01806640625, 0.19580078125, -0.15869140625, 0, 
94, 1031887884, -0.06027079001069069, -0.5543790459632874, 0.4339035749435425, -0.7076540589332581, 12.188192367553711, -5.99574089050293, 0.7921975255012512, 58.83453369140625, -12.05201244354248, 159.84793090820312, -1.010498046875, 0.215087890625, -0.162353515625, 0, 
95, 1031896217, -0.04989086091518402, -0.5500595569610596, 0.4376148581504822, -0.709544837474823, 11.621637344360352, -5.951780319213867, 0.6848875880241394, 51.540245056152344, -9.408846855163574, 156.4276885986328, -1.001953125, 0.2373046875, -0.1630859375, 0, 
96, 1031904550, -0.03979787230491638, -0.5458038449287415, 0.44139018654823303, -0.711128830909729, 12.074858665466309, -5.678436279296875, 0.27090683579444885, 46.92792510986328, -10.671747207641602, 153.46450805664062, -0.994140625, 0.25634765625, -0.169677734375, 0, 
97, 1031912883, -0.029951196163892746, -0.5414710640907288, 0.44496724009513855, -0.7126931548118591, 11.398305892944336, -5.63847541809082, 0.3792635500431061, 46.87016677856445, -8.460745811462402, 150.07772827148438, -0.987548828125, 0.27294921875, -0.170654296875, 0, 
98, 1031921216, -0.020509939640760422, -0.5369753837585449, 0.44863077998161316, -0.7141305804252625, 11.020418167114258, -5.787887096405029, 0.8508943915367126, 42.15022659301758, -5.363284111022949, 147.64242553710938, -0.97900390625, 0.29541015625, -0.17626953125, 0, 
99, 1031929549, -0.011549427174031734, -0.5324752330780029, 0.452511191368103, -0.7152522802352905, 10.801200866699219, -6.17863655090332, 0.8804915547370911, 34.530479431152344, -4.745577335357666, 144.5117950439453, -0.97314453125, 0.314697265625, -0.18017578125, 0, 
100, 1031937882, -0.002921340987086296, -0.5279383659362793, 0.45661434531211853, -0.7160942554473877, 10.395917892456055, -6.789748191833496, 0.6440026760101318, 28.149274826049805, -4.400172233581543, 143.0110626220703, -0.963134765625, 0.332275390625, -0.181884765625, 0, 
101, 1031946215, 0.0056311869993805885, -0.5234163999557495, 0.46071726083755493, -0.7167693972587585, 9.985960960388184, -7.440744876861572, 0.7564594149589539, 26.566715240478516, -5.282059192657471, 142.21124267578125, -0.95068359375, 0.35009765625, -0.186767578125, 0, 
102, 1031954548, 0.014072006568312645, -0.518944501876831, 0.46494823694229126, -0.7171728014945984, 9.994551658630371, -7.874073505401611, 0.4982764422893524, 22.767358779907227, -7.023166656494141, 141.69129943847656, -0.94580078125, 0.367919921875, -0.190673828125, 0, 
103, 1031962881, 0.022655250504612923, -0.5142923593521118, 0.4692060649394989, -0.717531144618988, 10.449409484863281, -8.081546783447266, -0.1393425464630127, 23.273712158203125, -6.4649882316589355, 144.49302673339844, -0.934326171875, 0.386474609375, -0.191650390625, 0, 
104, 1031971214, 0.03184635937213898, -0.5098745226860046, 0.47287389636039734, -0.7179270386695862, 9.814577102661133, -7.938747406005859, -0.14365726709365845, 33.55162811279297, -12.619330406188965, 144.753662109375, -0.927490234375, 0.4033203125, -0.194580078125, 0, 
105, 1031979547, 0.041324738413095474, -0.5052123069763184, 0.4762491285800934, -0.7185086607933044, 10.409456253051758, -7.775234222412109, 0.12867140769958496, 39.780582427978516, -10.897748947143555, 147.08663940429688, -0.917724609375, 0.425048828125, -0.20068359375, 0, 
106, 1031987880, 0.05078047513961792, -0.5004119873046875, 0.47960013151168823, -0.7190328240394592, 9.940591812133789, -7.643760681152344, 0.22746950387954712, 39.55307388305664, -9.8018217086792, 147.59368896484375, -0.903564453125, 0.439453125, -0.203125, 0, 
107, 1031996213, 0.06025725603103638, -0.4952735900878906, 0.48293036222457886, -0.7196296453475952, 10.106867790222168, -7.6299333572387695, 0.2028781771659851, 40.63056945800781, -6.108317852020264, 149.8756561279297, -0.893798828125, 0.45703125, -0.204833984375, 0, 
108, 1032004546, 0.06982146948575974, -0.48995259404182434, 0.4861925542354584, -0.7202107310295105, 9.645949363708496, -7.525275707244873, 0.4780343472957611, 41.93531036376953, -5.04761266708374, 151.46923828125, -0.881103515625, 0.46875, -0.20849609375, 0, 
109, 1032012879, 0.079237200319767, -0.48443952202796936, 0.4896314740180969, -0.7206360101699829, 9.579604148864746, -7.6311116218566895, 0.16238194704055786, 38.33830261230469, -3.029910087585449, 152.65670776367188, -0.866943359375, 0.48828125, -0.21728515625, 0, 
110, 1032021212, 0.08856507390737534, -0.47899892926216125, 0.49316471815109253, -0.7207774519920349, 8.76950740814209, -7.592197418212891, 0.1675015091896057, 34.81730651855469, -4.948558807373047, 152.20782470703125, -0.85302734375, 0.507080078125, -0.218994140625, 0, 
111, 1032029545, 0.09762845933437347, -0.47336605191230774, 0.49675583839416504, -0.720862090587616, 8.65490436553955, -7.686095237731934, 0.3884349465370178, 32.36101531982422, -1.5484774112701416, 151.3691864013672, -0.83935546875, 0.5205078125, -0.224609375, 0, 
112, 1032037878, 0.10631084442138672, -0.46777650713920593, 0.5007486939430237, -0.72052001953125, 8.019041061401367, -7.643435478210449, 0.6264827847480774, 22.915536880493164, -1.6189295053482056, 150.4586639404297, -0.827392578125, 0.53369140625, -0.22900390625, 0, 
113, 1032046211, 0.1144627183675766, -0.4623262882232666, 0.5051458477973938, -0.7197189927101135, 7.637940883636475, -7.624741077423096, 0.8735650181770325, 12.142597198486328, -1.7029184103012085, 147.5404052734375, -0.81201171875, 0.551513671875, -0.232177734375, 0, 
114, 1032054544, 0.12230822443962097, -0.4569082260131836, 0.50963294506073, -0.7187247276306152, 7.6892218589782715, -7.590721607208252, 0.5136667490005493, 7.9023566246032715, -0.9855004549026489, 145.13742065429688, -0.7978515625, 0.56591796875, -0.238525390625, 0, 
115, 1032062877, 0.13006742298603058, -0.45152992010116577, 0.5139604806900024, -0.7176790237426758, 7.206965923309326, -7.5710954666137695, 0.5623069405555725, 8.51914119720459, -1.35884690284729, 143.11253356933594, -0.784423828125, 0.579833984375, -0.23681640625, 0, 
116, 1032071210, 0.1374344378709793, -0.4460805654525757, 0.5184844732284546, -0.7164587378501892, 7.004573822021484, -7.433441162109375, 1.1431037187576294, 3.0286550521850586, 1.3763283491134644, 141.2586212158203, -0.76953125, 0.59814453125, -0.239990234375, 0, 
117, 1032079543, 0.1447298228740692, -0.4408438801765442, 0.5234560966491699, -0.7146462202072144, 6.538662910461426, -7.536768436431885, 1.1884069442749023, -6.435039520263672, -2.989683151245117, 142.92010498046875, -0.753173828125, 0.61181640625, -0.242919921875, 0, 
118, 1032087876, 0.15194615721702576, -0.4358915388584137, 0.528783917427063, -0.7122595906257629, 6.4257330894470215, -7.257943630218506, 0.6114158034324646, -15.124164581298828, -7.991903781890869, 143.3832550048828, -0.736572265625, 0.628173828125, -0.239013671875, 0, 
119, 1032096209, 0.15904878079891205, -0.4309674799442291, 0.5342337489128113, -0.7096338868141174, 5.979137897491455, -7.266764163970947, 0.28847235441207886, -18.788785934448242, -8.616058349609375, 143.30935668945312, -0.722900390625, 0.64013671875, -0.2412109375, 0, 
120, 1032104542, 0.16619864106178284, -0.4263288676738739, 0.5397732257843018, -0.7065989971160889, 5.1621551513671875, -7.234134674072266, -0.1285722702741623, -23.02261734008789, -13.981392860412598, 143.08827209472656, -0.70556640625, 0.65380859375, -0.242919921875, 0, 
121, 1032112875, 0.17335782945156097, -0.4214950203895569, 0.5453285574913025, -0.7035064697265625, 5.457755088806152, -7.640703201293945, -0.2911337614059448, -23.094350814819336, -12.450562477111816, 144.86322021484375, -0.69189453125, 0.671630859375, -0.23974609375, 0, 
122, 1032121208, 0.1804848611354828, -0.4168711006641388, 0.550874650478363, -0.7001400589942932, 5.311147212982178, -7.466739177703857, -0.39532411098480225, -25.75643539428711, -15.8511962890625, 143.57147216796875, -0.67626953125, 0.681396484375, -0.236572265625, 0, 
123, 1032129541, 0.18725866079330444, -0.4122897684574127, 0.5563987493515015, -0.6966972351074219, 4.829627513885498, -7.794551849365234, 0.17625263333320618, -28.243921279907227, -14.07771110534668, 139.91806030273438, -0.6591796875, 0.697509765625, -0.231201171875, 0, 
124, 1032137874, 0.19379304349422455, -0.40747925639152527, 0.5619536638259888, -0.6932734251022339, 5.360945701599121, -7.931562900543213, 0.03615466505289078, -29.169416427612305, -9.868611335754395, 139.4989471435547, -0.6416015625, 0.710205078125, -0.232421875, 0, 
125, 1032146207, 0.20025964081287384, -0.40280890464782715, 0.5673790574073792, -0.68973708152771, 4.616327285766602, -7.550586223602295, -0.054858721792697906, -29.54875373840332, -11.649186134338379, 137.34762573242188, -0.62646484375, 0.721923828125, -0.22802734375, 0, 
126, 1032154540, 0.20650647580623627, -0.3980136513710022, 0.5728455781936646, -0.6861511468887329, 4.7585577964782715, -7.446005821228027, 0.2462511509656906, -31.205772399902344, -8.91567611694336, 136.60255432128906, -0.60888671875, 0.734130859375, -0.223876953125, 0, 
127, 1032162873, 0.21284449100494385, -0.39349469542503357, 0.578277051448822, -0.6822537183761597, 4.020821571350098, -6.854914665222168, -0.28185367584228516, -33.60675048828125, -14.042773246765137, 135.97958374023438, -0.59423828125, 0.74560546875, -0.22412109375, 0, 
128, 1032171206, 0.21948020160198212, -0.3890781104564667, 0.5833090543746948, -0.6783896088600159, 4.318458080291748, -6.376612663269043, -0.40991488099098206, -28.29277801513672, -18.362123489379883, 135.70042419433594, -0.5732421875, 0.757568359375, -0.2236328125, 0, 
129, 1032179539, 0.22614409029483795, -0.3848858177661896, 0.5882185697555542, -0.6743413209915161, 3.964183807373047, -6.142633438110352, -0.23433127999305725, -29.145099639892578, -22.03411102294922, 134.06338500976562, -0.561279296875, 0.76904296875, -0.217529296875, 0, 
130, 1032187872, 0.23290684819221497, -0.3807717263698578, 0.592975914478302, -0.6701957583427429, 4.445984363555908, -6.577450275421143, -0.4371729791164398, -28.245988845825195, -24.552967071533203, 133.85140991210938, -0.53955078125, 0.78173828125, -0.2099609375, 0, 
131, 1032196205, 0.23944160342216492, -0.37677159905433655, 0.5977655053138733, -0.665884792804718, 3.708038806915283, -6.501295566558838, -0.4406803846359253, -31.443893432617188, -24.49911880493164, 131.51231384277344, -0.521728515625, 0.79296875, -0.2080078125, 0, 
132, 1032204538, 0.2459733635187149, -0.3728173077106476, 0.6023054718971252, -0.6616250276565552, 3.584369659423828, -6.482709884643555, -0.9950778484344482, -28.910818099975586, -25.453201293945312, 129.6575469970703, -0.5078125, 0.79833984375, -0.20556640625, 0, 
133, 1032212871, 0.2525719106197357, -0.3689928352832794, 0.6065869927406311, -0.6573578119277954, 3.3952269554138184, -6.261740207672119, -0.9220879077911377, -26.71173667907715, -28.097925186157227, 127.87879180908203, -0.492919921875, 0.81103515625, -0.2001953125, 0, 
134, 1032221204, 0.25916069746017456, -0.3650808036327362, 0.610227108001709, -0.6535976529121399, 3.1813652515411377, -6.189574241638184, -1.1425166130065918, -16.434814453125, -26.884136199951172, 123.51785278320312, -0.474609375, 0.81982421875, -0.197021484375, 0, 
135, 1032229537, 0.26538872718811035, -0.3609699606895447, 0.6132241487503052, -0.6505697965621948, 3.111316442489624, -5.946123123168945, -1.0222153663635254, -5.606231212615967, -20.680496215820312, 116.09269714355469, -0.45556640625, 0.825927734375, -0.1982421875, 0, 
136, 1032237870, 0.2714037299156189, -0.3571375906467438, 0.6155533790588379, -0.6479986310005188, 2.053622007369995, -5.503811359405518, -0.8494634032249451, 2.1418721675872803, -21.553504943847656, 106.87368774414062, -0.44384765625, 0.834228515625, -0.1953125, 0, 
137, 1032246203, 0.277112752199173, -0.35359930992126465, 0.6172706484794617, -0.645885705947876, 1.569694995880127, -4.935265064239502, -0.6968967914581299, 8.877317428588867, -21.60879135131836, 96.92346954345703, -0.427001953125, 0.837158203125, -0.19677734375, 0, 
138, 1032254536, 0.28245002031326294, -0.3507457673549652, 0.618653416633606, -0.6438032388687134, 1.2372578382492065, -4.526878356933594, -0.4812338948249817, 7.685952186584473, -25.67013168334961, 86.08769226074219, -0.419921875, 0.841796875, -0.197265625, 0, 
139, 1032262869, 0.28735435009002686, -0.34851452708244324, 0.6198175549507141, -0.6417216062545776, 0.35707804560661316, -4.067892074584961, -0.10787368565797806, 5.126488208770752, -28.3337459564209, 75.8824234008789, -0.4072265625, 0.84716796875, -0.197998046875, 0, 
140, 1032271202, 0.29186171293258667, -0.34674766659736633, 0.6206004619598389, -0.6398853659629822, 0.19016830623149872, -3.6319310665130615, -0.12512975931167603, 6.8437957763671875, -29.38702964782715, 65.64622497558594, -0.39697265625, 0.85009765625, -0.196533203125, 0, 
141, 1032279535, 0.2960229814052582, -0.34564483165740967, 0.6210827231407166, -0.6381000280380249, -0.06328579783439636, -3.403625011444092, 0.16084320843219757, 5.608948707580566, -33.23134994506836, 55.27454376220703, -0.390869140625, 0.852783203125, -0.197265625, 0, 
142, 1032287868, 0.29955920577049255, -0.3448100686073303, 0.6214327812194824, -0.6365585327148438, 0.0710417777299881, -3.2272839546203613, 0.3351089060306549, 4.788299560546875, -29.62990379333496, 45.901100158691406, -0.38232421875, 0.855224609375, -0.196044921875, 0, 
143, 1032296201, 0.3024219274520874, -0.34449994564056396, 0.6215006709098816, -0.6353054046630859, 0.13857018947601318, -2.8810806274414062, 0.7752339243888855, 4.371396064758301, -28.25618553161621, 32.973960876464844, -0.378173828125, 0.856689453125, -0.198486328125, 0, 
144, 1032304534, 0.3045755624771118, -0.34452053904533386, 0.6215377449989319, -0.6342281699180603, 0.18943455815315247, -2.469189405441284, 0.9814480543136597, 1.406030535697937, -24.387897491455078, 23.09766960144043, -0.373046875, 0.856689453125, -0.197265625, 0, 
145, 1032312867, 0.306020051240921, -0.3448466956615448, 0.6214165091514587, -0.6334740519523621, 0.5808805823326111, -1.9754620790481567, 0.8848901987075806, 0.9105737209320068, -20.116891860961914, 12.175566673278809, -0.37255859375, 0.857421875, -0.194091796875, 0, 
146, 1032321200, 0.3067288398742676, -0.34559574723243713, 0.6212597489356995, -0.6328765749931335, 0.6065568327903748, -1.7371827363967896, 1.0896872282028198, -2.712266445159912, -16.927350997924805, 1.3461692333221436, -0.372314453125, 0.859130859375, -0.196044921875, 0, 
147, 1032329533, 0.3068298101425171, -0.34679266810417175, 0.6211365461349487, -0.6322935819625854, 0.5503677129745483, -1.7602407932281494, 1.2280232906341553, -7.654226779937744, -15.416290283203125, -7.690547943115234, -0.375, 0.8583984375, -0.19384765625, 0, 
148, 1032337866, 0.3063768446445465, -0.34845876693725586, 0.620750367641449, -0.6319761276245117, 1.0608423948287964, -1.8011711835861206, 0.9708359241485596, -7.7271013259887695, -14.612005233764648, -18.868837356567383, -0.375732421875, 0.85888671875, -0.192138671875, 0, 
149, 1032346199, 0.3051249086856842, -0.3503059446811676, 0.6203653812408447, -0.6319387555122375, 1.4692673683166504, -2.134901285171509, 0.8126984238624573, -9.934284210205078, -8.01388168334961, -28.552776336669922, -0.378662109375, 0.856689453125, -0.188232421875, 0, 
150, 1032354532, 0.30300918221473694, -0.35268738865852356, 0.6202342510223389, -0.6317607760429382, 1.636335849761963, -2.26151442527771, 0.6299130916595459, -19.74812126159668, -4.900702953338623, -38.78321838378906, -0.3857421875, 0.860107421875, -0.1875, 0, 
151, 1032362865, 0.2997818887233734, -0.3555813729763031, 0.62042635679245, -0.6314895749092102, 1.7241781949996948, -2.159803628921509, 0.36963343620300293, -30.869224548339844, 1.0232791900634766, -50.876441955566406, -0.390380859375, 0.858154296875, -0.1826171875, 0, 
152, 1032371198, 0.2955799400806427, -0.3591502904891968, 0.6209012269973755, -0.6309836506843567, 2.0305490493774414, -2.2685739994049072, 0.1353018879890442, -42.885772705078125, 3.491737127304077, -62.72380828857422, -0.396484375, 0.856689453125, -0.175537109375, 0, 
153, 1032379531, 0.29044297337532043, -0.3634956479072571, 0.6214221119880676, -0.6303677558898926, 1.9775841236114502, -2.2865653038024902, -0.28185805678367615, -51.990909576416016, 4.385279655456543, -76.81674194335938, -0.403564453125, 0.852783203125, -0.16748046875, 0, 
154, 1032387864, 0.28445202112197876, -0.3682359755039215, 0.6219803094863892, -0.629797637462616, 2.239962339401245, -2.361449718475342, -0.16339480876922607, -57.77641296386719, 8.627534866333008, -87.56436920166016, -0.414794921875, 0.8525390625, -0.159912109375, 0, 
155, 1032396197, 0.2777562141418457, -0.37311968207359314, 0.6221490502357483, -0.6297452449798584, 2.5914270877838135, -2.6336910724639893, 0.2470504492521286, -54.0973014831543, 14.522130012512207, -98.9194107055664, -0.42919921875, 0.8466796875, -0.15234375, 0, 
156, 1032404530, 0.2704803943634033, -0.3778474032878876, 0.6214669346809387, -0.630765974521637, 3.108642816543579, -3.180729389190674, 0.3377995491027832, -39.935970306396484, 23.087594985961914, -111.04232788085938, -0.44189453125, 0.841796875, -0.146728515625, 0, 
157, 1032412863, 0.2629989981651306, -0.38285690546035767, 0.6199350953102112, -0.6324142813682556, 2.597355604171753, -3.8966867923736572, 0.3170749247074127, -29.309711456298828, 22.506179809570312, -122.01451110839844, -0.4599609375, 0.83642578125, -0.14208984375, 0, 
158, 1032421196, 0.25491225719451904, -0.3884480893611908, 0.6181425452232361, -0.6340683698654175, 3.169177532196045, -4.167932510375977, -0.3635353147983551, -32.29428482055664, 21.677631378173828, -133.59483337402344, -0.4755859375, 0.82958984375, -0.13623046875, 0, 
159, 1032429529, 0.24603693187236786, -0.394451379776001, 0.6163607239723206, -0.6356009244918823, 3.4005727767944336, -4.201594829559326, -1.0497021675109863, -39.06898880004883, 24.193140029907227, -143.52740478515625, -0.492919921875, 0.821044921875, -0.129150390625, 0, 
160, 1032437862, 0.23659829795360565, -0.40086355805397034, 0.6147765517234802, -0.6367061734199524, 3.4106266498565674, -4.037593364715576, -1.5763988494873047, -48.866310119628906, 23.72879981994629, -149.36029052734375, -0.51123046875, 0.8154296875, -0.1279296875, 0, 
161, 1032446195, 0.22650499641895294, -0.40723317861557007, 0.612824559211731, -0.6382147073745728, 4.3583784103393555, -4.017884731292725, -1.9186941385269165, -45.697078704833984, 30.67963218688965, -158.1117401123047, -0.531494140625, 0.80224609375, -0.117431640625, 0, 
162, 1032454528, 0.21622306108474731, -0.41366252303123474, 0.6100629568099976, -0.6402886509895325, 4.359273433685303, -4.539244174957275, -0.9616120457649231, -35.07691192626953, 32.37211608886719, -166.5244598388672, -0.5517578125, 0.79345703125, -0.115478515625, 0, 
163, 1032462861, 0.20588447153568268, -0.420066237449646, 0.6063034534454346, -0.6430922150611877, 4.916191577911377, -5.238889694213867, -0.3807488977909088, -20.407846450805664, 34.272727966308594, -174.6951904296875, -0.575927734375, 0.78369140625, -0.111083984375, 0, 
164, 1032471194, 0.1951429396867752, -0.4267580211162567, 0.601961612701416, -0.6461070775985718, 6.3735175132751465, -6.218547344207764, 0.1274077147245407, -16.642677307128906, 34.64027786254883, -184.57830810546875, -0.594482421875, 0.76904296875, -0.10986328125, 0, 
165, 1032479527, 0.18334482610225677, -0.4343949556350708, 0.5978121757507324, -0.6483222842216492, 7.087018966674805, -7.446476936340332, 0.5924705266952515, -33.70835494995117, 30.827733993530273, -198.56155395507812, -0.625244140625, 0.753173828125, -0.103271484375, 0, 
166, 1032487860, 0.17061692476272583, -0.4429275095462799, 0.5935466289520264, -0.6499404907226562, 9.150309562683105, -9.256340026855469, 0.01881369948387146, -45.39190673828125, 26.607152938842773, -213.3509979248047, -0.646484375, 0.736572265625, -0.1025390625, 0, 
167, 1032496193, 0.15671472251415253, -0.4533715844154358, 0.5897883772850037, -0.6496612429618835, 15.431432723999023, -13.558506965637207, -0.923234224319458, -77.052001953125, 8.762117385864258, -231.96347045898438, -0.673828125, 0.71826171875, -0.08984375, 0, 
168, 1032504526, 0.14130200445652008, -0.46229326725006104, 0.5868879556655884, -0.6495354175567627, 15.992568016052246, -14.472926139831543, -5.12821102142334, -89.61152648925781, 37.394500732421875, -228.02992248535156, -0.6962890625, 0.699462890625, -0.077880859375, 0, 
169, 1032512859, 0.12837883830070496, -0.4686027467250824, 0.5788015127182007, -0.6549308896064758, 8.22752857208252, -12.4391450881958, -3.4987521171569824, 22.180015563964844, 65.6837158203125, -228.4703369140625, -0.724853515625, 0.678955078125, -0.078857421875, 0, 
170, 1032521192, 0.11738350242376328, -0.47512611746788025, 0.5684760808944702, -0.6613065600395203, 6.072638511657715, -11.90723705291748, -0.7109807133674622, 62.195831298828125, 50.74872970581055, -228.8924560546875, -0.749755859375, 0.652099609375, -0.08740234375, 0, 
171, 1032529525, 0.10780461132526398, -0.48267608880996704, 0.5578374862670898, -0.666509211063385, 5.12162446975708, -10.5393648147583, 0.06187381595373154, 63.469608306884766, 22.197216033935547, -224.2655029296875, -0.775146484375, 0.6240234375, -0.090087890625, 0, 
172, 1032537858, 0.09951502829790115, -0.4910944402217865, 0.547178328037262, -0.6704730987548828, 6.821058750152588, -10.22923755645752, 0.21373796463012695, 61.4298210144043, -3.933511972427368, -217.32884216308594, -0.798583984375, 0.60107421875, -0.096435546875, 0, 
173, 1032546191, 0.090908482670784, -0.49872997403144836, 0.5376797318458557, -0.6737359762191772, 8.334789276123047, -10.345784187316895, 0.6822676658630371, 44.37863540649414, 2.549522638320923, -205.64207458496094, -0.820556640625, 0.57763671875, -0.095947265625, 0, 
174, 1032554524, 0.08150572329759598, -0.5061613917350769, 0.5291082262992859, -0.6761783957481384, 8.160591125488281, -9.994261741638184, 0.6182770133018494, 24.52314567565918, 5.8327956199646, -204.04603576660156, -0.837158203125, 0.552001953125, -0.09521484375, 0, 
175, 1032562857, 0.07158423215150833, -0.5132269263267517, 0.5206891894340515, -0.6785070896148682, 9.218708038330078, -10.424078941345215, 0.4893142879009247, 19.072023391723633, 12.416862487792969, -205.09738159179688, -0.85888671875, 0.525634765625, -0.09814453125, 0, 
176, 1032571190, 0.06156891584396362, -0.5195181965827942, 0.5124619603157043, -0.6809611916542053, 11.35865306854248, -11.454532623291016, -0.496706485748291, 18.283950805664062, 21.35523223876953, -199.1192169189453, -0.877685546875, 0.501220703125, -0.09912109375, 0, 
177, 1032579523, 0.05181621015071869, -0.5254310965538025, 0.5037825703620911, -0.6837073564529419, 8.921549797058105, -11.43079948425293, -2.344599962234497, 26.769197463989258, 24.783817291259766, -197.5507049560547, -0.89453125, 0.479736328125, -0.1005859375, 0, 
178, 1032587856, 0.04320812597870827, -0.5320286750793457, 0.4941522777080536, -0.6862267255783081, 7.4279656410217285, -11.869410514831543, -3.2404890060424805, 41.92689514160156, 8.066521644592285, -198.15855407714844, -0.912841796875, 0.450927734375, -0.102294921875, 0, 
179, 1032596189, 0.0353463850915432, -0.5387166738510132, 0.4844687879085541, -0.6883604526519775, 7.210700035095215, -11.848819732666016, -2.3452467918395996, 45.20947265625, -0.677558183670044, -191.97171020507812, -0.927734375, 0.4248046875, -0.103515625, 0, 
180, 1032604522, 0.02754059061408043, -0.5451645255088806, 0.47572773694992065, -0.6897358298301697, 7.6806206703186035, -11.691905975341797, -1.1311215162277222, 31.777021408081055, -3.966125726699829, -182.41082763671875, -0.937744140625, 0.39990234375, -0.102783203125, 0, 
181, 1032612855, 0.01966886967420578, -0.5509562492370605, 0.46824297308921814, -0.6905245780944824, 9.151288986206055, -11.971504211425781, -0.683082640171051, 15.767382621765137, -1.2056926488876343, -169.1830596923828, -0.952392578125, 0.376953125, -0.10400390625, 0, 
182, 1032621188, 0.011798170395195484, -0.5558977723121643, 0.4619538486003876, -0.6909791827201843, 9.213852882385254, -11.518898010253906, -0.6891230940818787, 2.512988328933716, 4.627437114715576, -154.47335815429688, -0.966064453125, 0.35986328125, -0.09912109375, 0, 
183, 1032629521, 0.004104370251297951, -0.5603570938110352, 0.45660972595214844, -0.6910179257392883, 9.5629301071167, -11.613272666931152, -0.5327945947647095, -7.691977500915527, 5.0854387283325195, -142.5135955810547, -0.9755859375, 0.3359375, -0.09912109375, 0, 
184, 1032637854, -0.003403419628739357, -0.5641233921051025, 0.45207592844963074, -0.6909383535385132, 9.095881462097168, -11.154118537902832, -0.5534205436706543, -14.651500701904297, 9.614782333374023, -130.07073974609375, -0.979248046875, 0.318115234375, -0.096435546875, 0, 
185, 1032646187, -0.010767697356641293, -0.5675733089447021, 0.4480280876159668, -0.6906740665435791, 8.159234046936035, -11.026047706604004, -0.02949218451976776, -19.328346252441406, 10.296013832092285, -123.0498046875, -0.987548828125, 0.30322265625, -0.09765625, 0, 
186, 1032654520, -0.018046628683805466, -0.5703915953636169, 0.4446267783641815, -0.6903982758522034, 7.643616199493408, -11.062443733215332, 0.17028236389160156, -24.964868545532227, 15.561196327209473, -113.23811340332031, -0.9912109375, 0.28515625, -0.095458984375, 0, 
187, 1032662853, -0.025219343602657318, -0.5726900100708008, 0.4419664442539215, -0.6899788975715637, 6.630070209503174, -10.810822486877441, -0.28776663541793823, -32.17620849609375, 18.558937072753906, -103.34027862548828, -1.000732421875, 0.267578125, -0.09521484375, 0, 
188, 1032671186, -0.03220009803771973, -0.5745970010757446, 0.44006234407424927, -0.6893197298049927, 6.207327365875244, -10.5952730178833, -0.9292634725570679, -39.42452621459961, 18.932449340820312, -93.20942687988281, -1.0078125, 0.257568359375, -0.094482421875, 0, 
189, 1032679519, -0.038630105555057526, -0.5760613083839417, 0.43903475999832153, -0.6884218454360962, 7.793478012084961, -11.052045822143555, -1.9179089069366455, -45.030216217041016, 17.545177459716797, -78.54721069335938, -1.010498046875, 0.248779296875, -0.091552734375, 0, 
190, 1032687852, -0.04379744082689285, -0.5772911310195923, 0.4380144774913788, -0.6877319812774658, 7.379701137542725, -10.384111404418945, -2.9185805320739746, -33.960365295410156, 13.765350341796875, -64.96199035644531, -1.011474609375, 0.234375, -0.092529296875, 0, 
191, 1032696185, -0.04718426614999771, -0.5789018273353577, 0.43566128611564636, -0.6876487731933594, 6.512682914733887, -10.37939167022705, -2.9747862815856934, -3.341451644897461, 5.078089237213135, -60.68143081665039, -1.01513671875, 0.22900390625, -0.093994140625, 0, 
192, 1032704518, -0.04892685264348984, -0.5810712575912476, 0.4319245219230652, -0.6880544424057007, 6.6746039390563965, -10.266874313354492, -2.8618712425231934, 26.12504005432129, -5.282161235809326, -59.13631057739258, -1.0185546875, 0.220458984375, -0.093994140625, 0, 
193, 1032712851, -0.04981306940317154, -0.5835611820220947, 0.427778422832489, -0.6884737014770508, 7.106947898864746, -9.757917404174805, -2.459336996078491, 37.13430404663086, -13.002994537353516, -56.2404670715332, -1.0224609375, 0.209228515625, -0.0908203125, 0, 
194, 1032721184, -0.050132639706134796, -0.5859803557395935, 0.42366668581962585, -0.6889380812644958, 8.225852966308594, -9.294065475463867, -2.314711809158325, 41.57509231567383, -15.337645530700684, -50.121482849121094, -1.021484375, 0.202392578125, -0.0947265625, 0, 
195, 1032729517, -0.04992145672440529, -0.5882868766784668, 0.41925114393234253, -0.6896886229515076, 8.346840858459473, -9.153182983398438, -2.2478187084198, 50.31754684448242, -14.836596488952637, -46.71738815307617, -1.0244140625, 0.193603515625, -0.08984375, 0, 
196, 1032737850, -0.04921551048755646, -0.590347945690155, 0.41419297456741333, -0.6910330057144165, 8.767156600952148, -9.211363792419434, -1.6349231004714966, 63.67506790161133, -10.120573043823242, -45.37773895263672, -1.03125, 0.1884765625, -0.08837890625, 0, 
197, 1032746183, -0.0479055792093277, -0.5923018455505371, 0.4089816212654114, -0.6925554275512695, 9.643267631530762, -9.415730476379395, -0.9823024272918701, 70.970458984375, -10.98839282989502, -40.17478561401367, -1.02880859375, 0.18115234375, -0.090576171875, 0, 
198, 1032754516, -0.046123940497636795, -0.5941527485847473, 0.40387243032455444, -0.6940874457359314, 9.89052963256836, -9.295738220214844, -0.7117096781730652, 73.83203887939453, -12.650897026062012, -34.24979782104492, -1.03369140625, 0.168212890625, -0.091064453125, 0, 
199, 1032762849, -0.04367588832974434, -0.5961917042732239, 0.3981979191303253, -0.6957740187644958, 8.663175582885742, -9.26976203918457, -0.3598642647266388, 85.64517974853516, -16.52476692199707, -33.46961212158203, -1.03173828125, 0.166259765625, -0.092041015625, 0, 
200, 1032771182, -0.040636345744132996, -0.598351776599884, 0.39184650778770447, -0.6977072954177856, 8.123434066772461, -9.585865020751953, 0.8049207925796509, 98.3975830078125, -18.494352340698242, -33.863685607910156, -1.034423828125, 0.157470703125, -0.08984375, 0, 
201, 1032779515, -0.03779273480176926, -0.6000645756721497, 0.38615164160728455, -0.6995686888694763, 8.35179328918457, -9.698193550109863, 1.5194896459579468, 89.84619140625, -14.102554321289062, -27.982656478881836, -1.036865234375, 0.150390625, -0.094482421875, 0, 
202, 1032787848, -0.035270389169454575, -0.6013025045394897, 0.3816654682159424, -0.7010977268218994, 8.285809516906738, -9.247345924377441, 1.246096134185791, 73.55575561523438, -11.199317932128906, -18.74556541442871, -1.037353515625, 0.143798828125, -0.09375, 0, 
203, 1032796181, -0.03294634073972702, -0.6020780205726624, 0.37845051288604736, -0.7022871971130371, 8.643187522888184, -9.021012306213379, 1.4789447784423828, 57.651954650878906, -9.12612247467041, -7.889797687530518, -1.036376953125, 0.142333984375, -0.094482421875, 0, 
204, 1032804514, -0.03086547926068306, -0.6023213267326355, 0.3765906095504761, -0.7031723856925964, 9.03801441192627, -8.744669914245605, 1.776861310005188, 40.72524642944336, -5.8570876121521, 3.6099603176116943, -1.0390625, 0.14306640625, -0.09814453125, 0, 
205, 1032812847, -0.029000945389270782, -0.6020326018333435, 0.37573912739753723, -0.7039541006088257, 8.686806678771973, -8.050987243652344, 1.837270975112915, 28.423437118530273, -0.8740096688270569, 12.585065841674805, -1.040771484375, 0.140869140625, -0.09521484375, 0, 
206, 1032821180, -0.027165111154317856, -0.6014722585678101, 0.37555164098739624, -0.7046058773994446, 8.764508247375488, -7.763324737548828, 1.7226542234420776, 20.974702835083008, 0.5586596131324768, 19.147153854370117, -1.04052734375, 0.147216796875, -0.098388671875, 0, 
207, 1032829513, -0.0252007357776165, -0.6006378531455994, 0.37580716609954834, -0.705254077911377, 9.58642864227295, -7.996796131134033, 1.1801294088363647, 17.628795623779297, 2.3601105213165283, 25.47869300842285, -1.035400390625, 0.148681640625, -0.098388671875, 0, 
208, 1032837846, -0.022949296981096268, -0.5994227528572083, 0.37616100907325745, -0.7061755657196045, 9.872941017150879, -8.283418655395508, 0.5133399963378906, 20.31875991821289, 6.785411357879639, 31.123165130615234, -1.03369140625, 0.152099609375, -0.099609375, 0, 
209, 1032846179, -0.020111996680498123, -0.5981724858283997, 0.37609338760375977, -0.7073572874069214, 9.85755729675293, -8.601598739624023, 0.159917950630188, 30.58420753479004, 6.379813194274902, 33.6181755065918, -1.036376953125, 0.154541015625, -0.104736328125, 0, 
210, 1032854512, -0.016562145203351974, -0.5969400405883789, 0.37549468874931335, -0.7088068723678589, 9.910599708557129, -8.983344078063965, -0.016034390777349472, 42.988861083984375, 4.865962028503418, 36.142642974853516, -1.033203125, 0.16015625, -0.10595703125, 0, 
211, 1032862845, -0.012182745151221752, -0.5957078337669373, 0.374370276927948, -0.7105250954627991, 9.759611129760742, -8.694707870483398, 0.5889143943786621, 56.32185363769531, 2.910672903060913, 39.99250411987305, -1.032958984375, 0.1630859375, -0.11181640625, 0, 
212, 1032871178, -0.007416203618049622, -0.5943655967712402, 0.3735319674015045, -0.7121543288230896, 9.963593482971191, -8.108804702758789, 1.7686861753463745, 56.214481353759766, 1.2084981203079224, 46.64632034301758, -1.0283203125, 0.166259765625, -0.115234375, 0, 
213, 1032879511, -0.002970411442220211, -0.5925777554512024, 0.37397313117980957, -0.7134441137313843, 10.3872652053833, -7.391304016113281, 2.520321846008301, 39.28004837036133, 4.323444366455078, 56.240020751953125, -1.02783203125, 0.1748046875, -0.115234375, 0, 
214, 1032887844, 0.0009796535596251488, -0.5902521014213562, 0.3760722577571869, -0.7142732739448547, 10.819602012634277, -6.834445476531982, 3.3517723083496094, 16.5734806060791, 8.318387031555176, 67.6067123413086, -1.025634765625, 0.181884765625, -0.12109375, 0, 
215, 1032896177, 0.004317631945014, -0.5872408747673035, 0.3797767758369446, -0.71478271484375, 11.108755111694336, -6.720215320587158, 3.55543851852417, -5.796213150024414, 15.654276847839355, 78.20263671875, -1.024658203125, 0.193359375, -0.12255859375, 0, 
216, 1032904510, 0.007234695367515087, -0.5836434960365295, 0.38461393117904663, -0.7151190638542175, 10.819825172424316, -6.751389503479004, 2.6398978233337402, -21.21346664428711, 22.26689910888672, 86.25387573242188, -1.015869140625, 0.20556640625, -0.12548828125, 0, 
217, 1032912843, 0.010117428377270699, -0.5796590447425842, 0.39009395241737366, -0.7153565287590027, 10.485925674438477, -7.3102335929870605, 1.784888744354248, -28.279613494873047, 25.54079818725586, 93.16193389892578, -1.013916015625, 0.21728515625, -0.129150390625, 0, 
218, 1032921176, 0.01302584819495678, -0.5752931237220764, 0.3963264524936676, -0.7154080867767334, 10.497350692749023, -8.495845794677734, 1.4581421613693237, -36.43893814086914, 27.7625732421875, 101.45911407470703, -1.009033203125, 0.236083984375, -0.133056640625, 0, 
219, 1032929509, 0.01606793701648712, -0.5705811381340027, 0.4032120108604431, -0.7152722477912903, 10.359352111816406, -9.593849182128906, 0.6221811771392822, -42.74946212768555, 29.087839126586914, 109.88636016845703, -1, 0.24658203125, -0.138916015625, 0, 
220, 1032937842, 0.019688352942466736, -0.565814733505249, 0.41028255224227905, -0.7149471640586853, 9.279155731201172, -9.99377155303955, -0.1826319545507431, -41.085044860839844, 24.95567512512207, 117.34085083007812, -0.99658203125, 0.268310546875, -0.1396484375, 0, 
221, 1032946175, 0.023999277502298355, -0.5611155033111572, 0.417230486869812, -0.7144981026649475, 9.113960266113281, -10.631631851196289, -0.008383624255657196, -35.20712661743164, 19.41783332824707, 122.86058044433594, -0.992431640625, 0.284423828125, -0.1416015625, 0, 
222, 1032954508, 0.028860144317150116, -0.5563457608222961, 0.4240818917751312, -0.7140140533447266, 9.645559310913086, -11.358448028564453, -0.02533629536628723, -30.213520050048828, 16.638957977294922, 127.90113830566406, -0.9814453125, 0.3046875, -0.146484375, 0, 
223, 1032962841, 0.034448713064193726, -0.5513858795166016, 0.43054264783859253, -0.7137472033500671, 9.56328296661377, -11.884573936462402, -0.1428317427635193, -19.448293685913086, 15.7854642868042, 133.11373901367188, -0.97412109375, 0.3203125, -0.14794921875, 0, 
224, 1032971174, 0.04092106223106384, -0.5464270114898682, 0.43664804100990295, -0.713510274887085, 9.37039852142334, -11.900601387023926, -0.4104100465774536, -9.101009368896484, 10.585982322692871, 139.03375244140625, -0.964599609375, 0.3369140625, -0.150146484375, 0, 
225, 1032979507, 0.047993600368499756, -0.5412064790725708, 0.44240835309028625, -0.7134999632835388, 9.61094856262207, -12.01706600189209, -0.286939412355423, 0.32219454646110535, 11.07263469696045, 143.8147430419922, -0.9560546875, 0.36083984375, -0.156005859375, 0, 
226, 1032987840, 0.055696696043014526, -0.5359726548194885, 0.4477752447128296, -0.7135432362556458, 9.193297386169434, -12.446707725524902, -0.3947409689426422, 9.183826446533203, 7.496764659881592, 147.072021484375, -0.945556640625, 0.376708984375, -0.15966796875, 0, 
227, 1032996173, 0.06400194019079208, -0.5306023359298706, 0.45292893052101135, -0.7136076092720032, 9.990899085998535, -12.69251823425293, -1.186936378479004, 15.974084854125977, 5.1317901611328125, 152.2795867919922, -0.936767578125, 0.39697265625, -0.162353515625, 0, 
228, 1033004506, 0.07275499403476715, -0.5252530574798584, 0.4578632116317749, -0.7135772705078125, 9.031245231628418, -12.877206802368164, -1.0518912076950073, 20.766382217407227, 1.2392306327819824, 154.97605895996094, -0.921142578125, 0.41455078125, -0.16455078125, 0, 
229, 1033012839, 0.08190798759460449, -0.5196452140808105, 0.46268966794013977, -0.7135779857635498, 9.97941780090332, -12.947367668151855, -0.4617282450199127, 25.187259674072266, 1.3855056762695312, 159.7681884765625, -0.91259765625, 0.4326171875, -0.16943359375, 0, 
230, 1033021172, 0.091792032122612, -0.5140183568000793, 0.467286616563797, -0.7134547829627991, 10.060185432434082, -12.73975658416748, 0.20937654376029968, 31.878070831298828, -4.227978706359863, 165.5103302001953, -0.89892578125, 0.45458984375, -0.177001953125, 0, 
231, 1033029505, 0.10180531442165375, -0.5074907541275024, 0.4719218313694, -0.7137182950973511, 10.688286781311035, -12.272536277770996, 0.06564418971538544, 36.057861328125, 6.566720962524414, 172.40187072753906, -0.88232421875, 0.473388671875, -0.182861328125, 0, 
232, 1033037838, 0.11253710836172104, -0.5013217329978943, 0.47708645462989807, -0.7130327820777893, 9.867696762084961, -10.817641258239746, -0.6759073734283447, 29.194011688232422, -7.504594326019287, 182.09335327148438, -0.870361328125, 0.496337890625, -0.1865234375, 0, 
233, 1033046171, 0.12277719378471375, -0.49419525265693665, 0.4829786419868469, -0.7123509645462036, 10.993767738342285, -10.068309783935547, -0.49054795503616333, 20.198322296142578, 6.269321441650391, 188.622314453125, -0.8525390625, 0.51611328125, -0.190673828125, 0, 
234, 1033054504, 0.13275495171546936, -0.4865627884864807, 0.48983314633369446, -0.7111339569091797, 10.612588882446289, -9.426441192626953, -0.16241376101970673, 6.269862174987793, 10.951048851013184, 196.80027770996094, -0.8359375, 0.535400390625, -0.194580078125, 0, 
235, 1033062837, 0.1426827311515808, -0.4783722758293152, 0.49747434258461, -0.70946204662323, 9.834297180175781, -8.788357734680176, 0.07061825692653656, -3.785926103591919, 15.14051628112793, 206.22288513183594, -0.814208984375, 0.560791015625, -0.201904296875, 0, 
236, 1033071170, 0.15321120619773865, -0.47014036774635315, 0.5054659247398376, -0.7071166634559631, 9.127497673034668, -8.783483505249023, 0.07489859312772751, -7.795795917510986, 7.689556121826172, 215.94195556640625, -0.796875, 0.58349609375, -0.2041015625, 0, 
237, 1033079503, 0.1640874296426773, -0.4618103504180908, 0.5136741995811462, -0.7042447924613953, 9.243563652038574, -8.36423397064209, -0.42831459641456604, -11.089872360229492, 3.282172203063965, 222.56817626953125, -0.7705078125, 0.606201171875, -0.20703125, 0, 
238, 1033087836, 0.17551156878471375, -0.45336151123046875, 0.5221825838088989, -0.700713574886322, 7.979127407073975, -7.727360248565674, -0.5758872628211975, -14.924293518066406, -2.949683666229248, 232.065185546875, -0.74853515625, 0.62744140625, -0.2080078125, 0, 
239, 1033096169, 0.186484232544899, -0.44409632682800293, 0.5311455130577087, -0.697066605091095, 8.43152141571045, -7.237540245056152, -0.31414639949798584, -20.963964462280273, 8.534871101379395, 236.73370361328125, -0.722412109375, 0.654541015625, -0.20849609375, 0, 
240, 1033104502, 0.19797320663928986, -0.43560561537742615, 0.540177583694458, -0.6922990679740906, 8.662224769592285, -6.4147210121154785, -0.8317238092422485, -28.657291412353516, -9.322394371032715, 239.2864990234375, -0.692138671875, 0.676025390625, -0.209716796875, 0, 
241, 1033112835, 0.20909680426120758, -0.42690059542655945, 0.5494727492332458, -0.6871167421340942, 7.61086368560791, -5.75606107711792, -0.315323144197464, -35.8347282409668, -6.339302062988281, 240.14306640625, -0.664306640625, 0.7001953125, -0.20361328125, 0, 
242, 1033121168, 0.21996010839939117, -0.41825932264328003, 0.5588528513908386, -0.6814509630203247, 7.7318339347839355, -5.305531024932861, -0.8907305002212524, -42.0131721496582, -7.570563793182373, 239.06246948242188, -0.63525390625, 0.724365234375, -0.207763671875, 0, 
243, 1033129501, 0.23065850138664246, -0.4100407063961029, 0.5680084228515625, -0.6753110289573669, 6.9947285652160645, -5.170767784118652, -1.2620069980621338, -45.769378662109375, -13.66943073272705, 234.4376678466797, -0.609375, 0.744873046875, -0.20654296875, 0, 
244, 1033137834, 0.24138134717941284, -0.40225473046302795, 0.5765316486358643, -0.6689937710762024, 6.589808940887451, -4.861667156219482, -1.4615565538406372, -42.52586364746094, -20.8846435546875, 228.26705932617188, -0.580322265625, 0.760009765625, -0.19970703125, 0, 
245, 1033146167, 0.2520846724510193, -0.394719660282135, 0.5841931104660034, -0.6628599166870117, 5.942344665527344, -4.836269378662109, -0.912333607673645, -34.07497024536133, -24.88376235961914, 220.73558044433594, -0.550537109375, 0.779296875, -0.197021484375, 0, 
246, 1033154500, 0.26254379749298096, -0.3873901069164276, 0.5910823941230774, -0.6569907069206238, 5.625393867492676, -4.639638900756836, -0.46838438510894775, -26.953203201293945, -26.03722381591797, 211.74490356445312, -0.5205078125, 0.79736328125, -0.192626953125, 0, 
247, 1033162833, 0.27272725105285645, -0.3802572190761566, 0.5972046852111816, -0.6514495015144348, 4.789143085479736, -4.450397968292236, -0.12123309075832367, -19.529937744140625, -26.595090866088867, 202.39048767089844, -0.4951171875, 0.8076171875, -0.18994140625, 0, 
248, 1033171166, 0.2825853228569031, -0.3733144700527191, 0.6025527119636536, -0.646318256855011, 4.232991695404053, -4.396016597747803, -0.18686258792877197, -11.645491600036621, -26.383695602416992, 192.32904052734375, -0.470947265625, 0.82177734375, -0.189697265625, 0, 
249, 1033179499, 0.29213711619377136, -0.3665350377559662, 0.6072636842727661, -0.6415249705314636, 3.831502914428711, -4.278059482574463, -0.35255521535873413, -5.385658264160156, -26.03788948059082, 183.66526794433594, -0.443359375, 0.8330078125, -0.188232421875, 0, 
250, 1033187832, 0.30128535628318787, -0.3598897457122803, 0.6113724112510681, -0.6371385455131531, 3.3240597248077393, -4.137059211730957, -0.3318491280078888, 0.7484299540519714, -24.225194931030273, 174.327392578125, -0.419677734375, 0.84228515625, -0.1904296875, 0, 
251, 1033196165, 0.30986759066581726, -0.35283756256103516, 0.6150484085083008, -0.6334182620048523, 2.7907702922821045, -3.729079246520996, -0.5287151336669922, 9.026056289672852, -14.393463134765625, 167.87298583984375, -0.397705078125, 0.85205078125, -0.19384765625, 0, 
252, 1033204498, 0.3182791471481323, -0.34567078948020935, 0.6184015274047852, -0.6299245953559875, 1.0615601539611816, -3.156203269958496, -0.5905165076255798, 13.416176795959473, -12.2313232421875, 164.8437042236328, -0.376220703125, 0.859375, -0.191162109375, 0, 
253, 1033212831, 0.3265228271484375, -0.33850181102752686, 0.6213437914848328, -0.6266950368881226, 0.059500016272068024, -2.808971881866455, -0.011173376813530922, 18.433006286621094, -11.323957443237305, 160.2790069580078, -0.349853515625, 0.865966796875, -0.19921875, 0, 
254, 1033221164, 0.33445611596107483, -0.3319118916988373, 0.6237638592720032, -0.6236245632171631, -0.3942468464374542, -2.522256851196289, 0.8066219687461853, 20.24711799621582, -15.264933586120605, 149.5338592529297, -0.331787109375, 0.87158203125, -0.203857421875, 0, 
255, 1033229497, 0.3415595591068268, -0.3262694180011749, 0.625696063041687, -0.6208100318908691, -0.08194763213396072, -2.290632486343384, 0.982999324798584, 18.48324966430664, -17.34815216064453, 130.86325073242188, -0.310302734375, 0.875, -0.20703125, 0, 
256, 1033237830, 0.347829669713974, -0.3215397894382477, 0.6270512938499451, -0.6184242367744446, -0.7037346363067627, -1.6304677724838257, 0.9851808547973633, 19.06698226928711, -18.759544372558594, 111.31438446044922, -0.293212890625, 0.878173828125, -0.2109375, 0, 
257, 1033246163, 0.3533390760421753, -0.31784144043922424, 0.6277673840522766, -0.6164833903312683, -1.354258418083191, -0.9154723286628723, 1.1067166328430176, 20.046977996826172, -22.05815887451172, 90.97453308105469, -0.282958984375, 0.880126953125, -0.2119140625, 0, 
258, 1033254496, 0.35804858803749084, -0.3151131272315979, 0.6281523704528809, -0.6147722601890564, -1.9928309917449951, -1.028847098350525, 1.507274866104126, 16.622793197631836, -23.988271713256836, 73.27843475341797, -0.27001953125, 0.884033203125, -0.216552734375, 0, 
259, 1033262829, 0.3619765341281891, -0.31352925300598145, 0.6285424828529358, -0.6128801703453064, -2.177544355392456, -0.9367491006851196, 1.505010962486267, 5.997531414031982, -27.66473388671875, 57.676513671875, -0.2607421875, 0.88525390625, -0.21826171875, 0, 
260, 1033271162, 0.36496981978416443, -0.3127514123916626, 0.6290551424026489, -0.6109735369682312, -2.0170741081237793, -0.6050646901130676, 0.7485840916633606, -3.206678628921509, -25.827529907226562, 43.45083999633789, -0.257568359375, 0.887451171875, -0.2158203125, 0, 
261, 1033279495, 0.367306649684906, -0.31262335181236267, 0.6293439865112305, -0.6093391180038452, -1.9006760120391846, -0.34056565165519714, 0.41169342398643494, -5.0519022941589355, -25.564119338989258, 29.96855926513672, -0.24951171875, 0.885009765625, -0.2158203125, 0, 
262, 1033287828, 0.36894699931144714, -0.31281235814094543, 0.6294501423835754, -0.6081399917602539, -1.459452509880066, -0.4141504168510437, 0.4303262531757355, -4.359187126159668, -21.245975494384766, 18.417301177978516, -0.24951171875, 0.887939453125, -0.21484375, 0, 
263, 1033296161, 0.3695369362831116, -0.31340980529785156, 0.6298193335533142, -0.6070911288261414, -1.5605318546295166, -0.7768271565437317, 0.7429736256599426, -11.83739185333252, -13.586973190307617, 6.452727317810059, -0.248291015625, 0.8896484375, -0.212646484375, 0, 
264, 1033304494, 0.3691011667251587, -0.315062016248703, 0.6309409141540527, -0.6053338646888733, -1.817487120628357, -1.4164773225784302, 0.39093461632728577, -34.044769287109375, -12.739997863769531, -4.390771865844727, -0.25, 0.891357421875, -0.20703125, 0, 
265, 1033312827, 0.36780884861946106, -0.3177635371685028, 0.6324676871299744, -0.6031110882759094, -1.5250493288040161, -2.0020360946655273, -0.127464160323143, -50.48516845703125, -14.003771781921387, -16.518199920654297, -0.24755859375, 0.89453125, -0.20166015625, 0, 
266, 1033321160, 0.36586999893188477, -0.32145360112190247, 0.6339325904846191, -0.6007924675941467, -1.2782447338104248, -2.4112062454223633, -0.30713367462158203, -58.64049530029297, -17.310325622558594, -30.257503509521484, -0.25244140625, 0.893798828125, -0.192626953125, 0, 
267, 1033329493, 0.3631851077079773, -0.32555362582206726, 0.6352023482322693, -0.5988696217536926, -0.3310679495334625, -2.7558138370513916, -0.20851953327655792, -58.92761993408203, -13.426046371459961, -42.85374450683594, -0.25390625, 0.895263671875, -0.183349609375, 0, 
268, 1033337826, 0.3598253130912781, -0.32993972301483154, 0.6361791491508484, -0.5974586009979248, -0.29486149549484253, -2.8143367767333984, 0.002476600930094719, -56.505882263183594, -9.059881210327148, -54.774837493896484, -0.263427734375, 0.896728515625, -0.175537109375, 0, 
269, 1033346159, 0.3557288348674774, -0.3345571756362915, 0.6370393633842468, -0.5964263677597046, 0.2936874330043793, -3.115344762802124, 0.1711556315422058, -56.71004867553711, -3.372468948364258, -65.25931549072266, -0.269775390625, 0.897216796875, -0.161865234375, 0, 
270, 1033354492, 0.3507203161716461, -0.33964821696281433, 0.6381785869598389, -0.5952962636947632, 0.20431463420391083, -3.223357677459717, 0.44173815846443176, -66.37980651855469, 1.649712324142456, -75.12201690673828, -0.276123046875, 0.895263671875, -0.156005859375, 0, 
271, 1033362825, 0.34489601850509644, -0.3452839255332947, 0.6395067572593689, -0.5940304398536682, 0.6482254266738892, -3.186650037765503, 0.40559059381484985, -75.54476928710938, 4.625509738922119, -85.04776000976562, -0.2919921875, 0.89306640625, -0.1435546875, 0, 
272, 1033371158, 0.3383338153362274, -0.35097864270210266, 0.6404281854629517, -0.5934739708900452, 0.7103055715560913, -3.1739842891693115, 0.4755553603172302, -69.77847290039062, 12.070387840270996, -96.88441467285156, -0.30322265625, 0.8916015625, -0.131103515625, 0, 
273, 1033379491, 0.3314710855484009, -0.35691285133361816, 0.6407338380813599, -0.5934776663780212, 1.4598562717437744, -3.5277061462402344, -0.1378660500049591, -62.37259292602539, 12.60187816619873, -107.02886962890625, -0.315673828125, 0.89111328125, -0.125, 0, 
274, 1033387824, 0.32429739832878113, -0.3628280460834503, 0.64018315076828, -0.5944476127624512, 1.6570076942443848, -3.9810755252838135, -0.8223613500595093, -48.322265625, 16.336193084716797, -118.00127410888672, -0.32958984375, 0.88818359375, -0.1123046875, 0, 
275, 1033396157, 0.3166191577911377, -0.36848342418670654, 0.6387507319450378, -0.596644937992096, 2.1131622791290283, -4.519735336303711, -0.9110912680625916, -31.657299041748047, 25.094120025634766, -129.71728515625, -0.34765625, 0.88330078125, -0.110595703125, 0, 
276, 1033404490, 0.30835291743278503, -0.37426111102104187, 0.6367886662483215, -0.5994684100151062, 2.1168947219848633, -4.9646806716918945, -1.0254051685333252, -25.333698272705078, 30.118717193603516, -141.01759338378906, -0.36376953125, 0.878173828125, -0.102783203125, 0, 
277, 1033412823, 0.2994455099105835, -0.3805861175060272, 0.6349177360534668, -0.6019812226295471, 2.059863805770874, -5.410308361053467, -1.579077124595642, -34.414283752441406, 30.012346267700195, -149.31947326660156, -0.38525390625, 0.872314453125, -0.097900390625, 0, 
278, 1033421156, 0.2897830605506897, -0.38729098439216614, 0.6329290270805359, -0.6045225262641907, 2.845543384552002, -5.212114334106445, -2.1165804862976074, -38.718875885009766, 33.1187858581543, -159.6072540283203, -0.408447265625, 0.865966796875, -0.092529296875, 0, 
279, 1033429489, 0.27975985407829285, -0.39438360929489136, 0.6305890679359436, -0.6070986390113831, 3.094261646270752, -4.952907562255859, -1.9217503070831299, -38.949466705322266, 31.826356887817383, -168.00469970703125, -0.4296875, 0.858642578125, -0.08642578125, 0, 
280, 1033437822, 0.26949217915534973, -0.40129536390304565, 0.6276744604110718, -0.6102262139320374, 4.360897064208984, -4.747142791748047, -1.1737568378448486, -30.0091609954834, 36.22346878051758, -173.6978759765625, -0.45166015625, 0.845458984375, -0.083984375, 0, 
281, 1033446155, 0.2591332197189331, -0.4076595902442932, 0.623669445514679, -0.6145854592323303, 5.395956993103027, -4.792934417724609, -0.04409405589103699, -8.695247650146484, 44.376976013183594, -180.33892822265625, -0.479248046875, 0.838134765625, -0.074951171875, 0, 
282, 1033454488, 0.24895063042640686, -0.41344860196113586, 0.6184264421463013, -0.6201997995376587, 6.15797233581543, -5.359496116638184, 1.531636118888855, 15.566933631896973, 50.33829116821289, -185.30148315429688, -0.499755859375, 0.824951171875, -0.080078125, 0, 
283, 1033462821, 0.23892058432102203, -0.419665664434433, 0.612515389919281, -0.6258097887039185, 6.868533611297607, -6.155999183654785, 2.0790488719940186, 20.633703231811523, 43.08891296386719, -191.4501953125, -0.5263671875, 0.81298828125, -0.08544921875, 0, 
284, 1033471154, 0.22856669127941132, -0.42684128880500793, 0.6067377328872681, -0.6304351091384888, 8.065483093261719, -7.185849189758301, 0.8831526637077332, 6.164937973022461, 32.317691802978516, -198.27288818359375, -0.55419921875, 0.796142578125, -0.087158203125, 0, 
285, 1033479487, 0.2174052596092224, -0.43460342288017273, 0.6015401482582092, -0.6340500712394714, 9.65001106262207, -8.264876365661621, -0.679080069065094, -13.86860466003418, 29.87032699584961, -203.62098693847656, -0.57666015625, 0.783203125, -0.083740234375, 0, 
286, 1033487820, 0.20581670105457306, -0.44286033511161804, 0.5967903137207031, -0.6366873979568481, 11.825946807861328, -10.561342239379883, -1.0417375564575195, -29.902896881103516, 24.569894790649414, -205.79042053222656, -0.604248046875, 0.76611328125, -0.079345703125, 0, 
287, 1033496153, 0.19370506703853607, -0.4510156810283661, 0.5930039286613464, -0.6382984519004822, 11.564903259277344, -12.074923515319824, -1.8935794830322266, -49.64909362792969, 26.24394416809082, -200.81422424316406, -0.631103515625, 0.75146484375, -0.077392578125, 0, 
288, 1033504486, 0.18170717358589172, -0.45852312445640564, 0.5878891944885254, -0.6412025094032288, 7.663629531860352, -11.270308494567871, -1.926291584968567, -25.022884368896484, 35.45798110961914, -206.15097045898438, -0.6552734375, 0.736328125, -0.0712890625, 0, 
289, 1033512819, 0.17055116593837738, -0.4657908082008362, 0.5810667276382446, -0.6452348232269287, 8.10916519165039, -11.617256164550781, -1.1303234100341797, 5.0751519203186035, 33.63908767700195, -210.4395294189453, -0.678466796875, 0.7158203125, -0.07080078125, 0, 
290, 1033521152, 0.1598953902721405, -0.4726046919822693, 0.5733057856559753, -0.6499337553977966, 8.249611854553223, -11.041925430297852, -1.6133785247802734, 22.988882064819336, 35.70829772949219, -209.87608337402344, -0.70654296875, 0.693359375, -0.069580078125, 0, 
291, 1033529485, 0.1492948681116104, -0.4794323444366455, 0.5645093321800232, -0.6551339030265808, 6.6072306632995605, -10.449956893920898, -0.8117857575416565, 36.53262710571289, 36.15815734863281, -217.3990478515625, -0.72998046875, 0.673828125, -0.0771484375, 0, 
292, 1033537818, 0.13850469887256622, -0.48717063665390015, 0.5551902651786804, -0.6597424745559692, 7.038632392883301, -10.939921379089355, 0.10323388874530792, 33.52428436279297, 24.424034118652344, -228.32537841796875, -0.754150390625, 0.650390625, -0.079833984375, 0, 
293, 1033546151, 0.1272260993719101, -0.4951125979423523, 0.5463443398475647, -0.6634758710861206, 8.582863807678223, -11.465928077697754, 0.27157095074653625, 18.894424438476562, 21.37371826171875, -229.55828857421875, -0.781005859375, 0.625244140625, -0.08251953125, 0, 
294, 1033554484, 0.11581674218177795, -0.5029711127281189, 0.5373457670211792, -0.6669942736625671, 9.092961311340332, -11.264259338378906, 0.1516423523426056, 17.922054290771484, 21.353116989135742, -230.70127868652344, -0.802001953125, 0.599609375, -0.083251953125, 0, 
295, 1033562817, 0.10468903928995132, -0.5105727910995483, 0.5277693867683411, -0.6706939339637756, 9.457412719726562, -11.165857315063477, -0.07872757315635681, 26.924795150756836, 21.994945526123047, -230.5907440185547, -0.825439453125, 0.57421875, -0.08349609375, 0, 
296, 1033571150, 0.09387556463479996, -0.5185006260871887, 0.5177420973777771, -0.674019992351532, 8.700053215026855, -10.385717391967773, 0.160849928855896, 30.098979949951172, 13.397639274597168, -232.59901428222656, -0.847412109375, 0.547607421875, -0.0830078125, 0, 
297, 1033579483, 0.08239352703094482, -0.5266696214675903, 0.5084019899368286, -0.6762937307357788, 9.421079635620117, -10.366347312927246, 0.7325030565261841, 11.166876792907715, 9.339801788330078, -234.3442840576172, -0.8701171875, 0.515380859375, -0.082275390625, 0, 
298, 1033587816, 0.06969264894723892, -0.5343858599662781, 0.5006885528564453, -0.6774222254753113, 10.064943313598633, -10.275081634521484, -0.058973200619220734, -20.287466049194336, 15.584458351135254, -229.34332275390625, -0.889892578125, 0.487060546875, -0.083984375, 0, 
299, 1033596149, 0.0560452938079834, -0.5413933396339417, 0.4943089783191681, -0.6778096556663513, 10.031099319458008, -10.889641761779785, -1.4083056449890137, -44.08837890625, 24.57375144958496, -222.8576202392578, -0.90625, 0.460693359375, -0.079345703125, 0, 
300, 1033604482, 0.0422406941652298, -0.5474169850349426, 0.48864269256591797, -0.678081214427948, 10.566167831420898, -12.717649459838867, -1.479120135307312, -51.940956115722656, 34.459835052490234, -212.1429443359375, -0.925537109375, 0.434326171875, -0.072998046875, 0, 
301, 1033612815, 0.028954384848475456, -0.5524530410766602, 0.48372867703437805, -0.6782177686691284, 10.706613540649414, -14.690420150756836, -1.9882533550262451, -55.38265609741211, 39.647178649902344, -195.02337646484375, -0.939208984375, 0.41064453125, -0.073486328125, 0, 
302, 1033621148, 0.017041394487023354, -0.5569655299186707, 0.4787963926792145, -0.6784307360649109, 8.948749542236328, -16.00650405883789, -2.571000814437866, -44.067222595214844, 35.92618942260742, -178.80848693847656, -0.951904296875, 0.38671875, -0.07373046875, 0, 
303, 1033629481, 0.007160294335335493, -0.5609925985336304, 0.4734552204608917, -0.6790371537208557, 7.270216941833496, -16.59747314453125, -2.4882826805114746, -21.979969024658203, 30.036054611206055, -159.97044372558594, -0.964599609375, 0.36279296875, -0.07421875, 0, 
304, 1033637814, -0.0008244523778557777, -0.5647984743118286, 0.4679373502731323, -0.6797441244125366, 6.5016374588012695, -15.873281478881836, -2.1018154621124268, -5.026065349578857, 20.473098754882812, -142.11183166503906, -0.9736328125, 0.34423828125, -0.0751953125, 0, 
305, 1033646147, -0.007802832871675491, -0.5682727098464966, 0.46309489011764526, -0.680120587348938, 7.677391052246094, -14.74045467376709, -1.2792184352874756, -5.652231216430664, 14.562074661254883, -125.41159057617188, -0.98046875, 0.32666015625, -0.0751953125, 0, 
306, 1033654480, -0.014766709879040718, -0.571021318435669, 0.4596487283706665, -0.6800403594970703, 8.583049774169922, -13.17921257019043, -1.1468281745910645, -21.58687973022461, 17.502016067504883, -109.72718811035156, -0.984130859375, 0.30810546875, -0.072021484375, 0, 
307, 1033662813, -0.021998930722475052, -0.5731164216995239, 0.45742711424827576, -0.6795802712440491, 7.731369495391846, -12.00064754486084, -1.3413801193237305, -37.67658233642578, 22.113765716552734, -98.6327896118164, -0.98974609375, 0.29296875, -0.0712890625, 0, 
308, 1033671146, -0.028762906789779663, -0.5747250318527222, 0.45590347051620483, -0.678992748260498, 7.812754154205322, -12.078227043151855, -1.604542851448059, -41.46302032470703, 22.466102600097656, -85.68101501464844, -0.998291015625, 0.27880859375, -0.0703125, 0, 
309, 1033679479, -0.034422434866428375, -0.5757967829704285, 0.4545883238315582, -0.6787030696868896, 6.732819557189941, -11.64184856414795, -2.071373462677002, -33.02104949951172, 22.858400344848633, -70.29025268554688, -1.00634765625, 0.2734375, -0.07080078125, 0, 
310, 1033687812, -0.03867190703749657, -0.5765241384506226, 0.4526998698711395, -0.6791189908981323, 5.828768730163574, -11.654215812683105, -3.068263292312622, -12.264307975769043, 23.084531784057617, -59.144554138183594, -1.00439453125, 0.26611328125, -0.07373046875, 0, 
311, 1033696145, -0.041502125561237335, -0.5771207809448242, 0.45048096776008606, -0.6799201965332031, 5.658961296081543, -11.795907974243164, -4.379994869232178, 4.409359931945801, 18.73361587524414, -47.5285758972168, -1.01025390625, 0.25732421875, -0.076171875, 0, 
312, 1033704478, -0.04282132536172867, -0.577822208404541, 0.4478042423725128, -0.6810100078582764, 5.391119480133057, -11.530771255493164, -5.704617500305176, 22.524646759033203, 10.918458938598633, -37.4935417175293, -1.009521484375, 0.251708984375, -0.076904296875, 0, 
313, 1033712811, -0.04174941033124924, -0.5792454481124878, 0.44355344772338867, -0.6826472878456116, 4.947022438049316, -11.678399085998535, -5.336067199707031, 60.066917419433594, -5.264054298400879, -31.75632667541504, -1.011474609375, 0.247314453125, -0.078369140625, 0, 
314, 1033721144, -0.03829595819115639, -0.5814342498779297, 0.4376632571220398, -0.684787392616272, 5.833215236663818, -11.295367240905762, -2.852668523788452, 97.93043518066406, -22.04332160949707, -26.830284118652344, -1.010009765625, 0.2412109375, -0.0830078125, 0, 
315, 1033729477, -0.03411061689257622, -0.5830608010292053, 0.4316476583480835, -0.6874389052391052, 7.383259296417236, -9.96474552154541, -1.3076680898666382, 107.74829864501953, -16.98435401916504, -17.296310424804688, -1.013916015625, 0.234619140625, -0.083251953125, 0, 
316, 1033737810, -0.029612012207508087, -0.5843381285667419, 0.4254890978336334, -0.6903957724571228, 6.999452590942383, -9.12505054473877, -0.4686203896999359, 113.2532730102539, -13.034246444702148, -13.272462844848633, -1.014892578125, 0.229248046875, -0.083984375, 0, 
317, 1033746143, -0.024974456056952477, -0.5856301188468933, 0.41919535398483276, -0.6933284401893616, 7.457149028778076, -8.879990577697754, 0.6854480504989624, 115.5241928100586, -14.119851112365723, -13.127799987792969, -1.017578125, 0.22509765625, -0.089111328125, 0, 
318, 1033754476, -0.02100236341357231, -0.5866641402244568, 0.4133327305316925, -0.6961000561714172, 8.121635437011719, -8.702313423156738, 1.2320775985717773, 105.03462982177734, -9.275788307189941, -14.584443092346191, -1.017822265625, 0.22119140625, -0.091796875, 0, 
319, 1033762809, -0.017500821501016617, -0.5875993967056274, 0.40810921788215637, -0.6984860897064209, 8.64232349395752, -8.1687593460083, 1.0691828727722168, 92.90282440185547, -8.943792343139648, -13.467890739440918, -1.018310546875, 0.216064453125, -0.0966796875, 0, 
320, 1033771142, -0.01398925669491291, -0.5884886980056763, 0.4032934904098511, -0.7006102800369263, 9.171857833862305, -7.680159091949463, 1.0238876342773438, 87.5797348022461, -10.780875205993652, -9.903863906860352, -1.021240234375, 0.210693359375, -0.09765625, 0, 
321, 1033779475, -0.010378123261034489, -0.589231014251709, 0.39885830879211426, -0.7025854587554932, 9.418219566345215, -7.109614372253418, 0.6496329307556152, 83.87158966064453, -11.188650131225586, -5.056077003479004, -1.01708984375, 0.21044921875, -0.103271484375, 0, 
322, 1033787808, -0.006790596060454845, -0.5896568298339844, 0.39476901292800903, -0.7045788764953613, 9.268708229064941, -6.907015800476074, 0.06778591126203537, 80.3818359375, -7.911437034606934, -0.769353449344635, -1.021484375, 0.206787109375, -0.098876953125, 0, 
323, 1033796141, -0.0034448476508259773, -0.5898725986480713, 0.391353577375412, -0.7063257694244385, 9.04479694366455, -7.008735179901123, 0.3005979359149933, 70.54548645019531, -6.615596771240234, 3.495859146118164, -1.017822265625, 0.204833984375, -0.105712890625, 0, 
324, 1033804474, -0.000391300767660141, -0.5898395776748657, 0.38892149925231934, -0.7077036499977112, 9.295425415039062, -6.933807849884033, 0.7494211792945862, 56.60935974121094, -5.677130222320557, 9.927018165588379, -1.01806640625, 0.205322265625, -0.108154296875, 0, 
325, 1033812807, 0.002209387719631195, -0.589469850063324, 0.38748860359191895, -0.7087936401367188, 9.538864135742188, -6.680971622467041, 0.6172640919685364, 41.68659591674805, -2.3097803592681885, 15.452735900878906, -1.021484375, 0.20849609375, -0.1103515625, 0, 
326, 1033821140, 0.003952591679990292, -0.5888400673866272, 0.3871248960494995, -0.7095078229904175, 9.246164321899414, -6.778378486633301, 0.04595556482672691, 22.311241149902344, 1.7668966054916382, 17.127277374267578, -1.02099609375, 0.20654296875, -0.1083984375, 0, 
327, 1033829473, 0.004948094487190247, -0.5880874395370483, 0.38746020197868347, -0.709942638874054, 8.849921226501465, -7.175333023071289, -0.27702367305755615, 7.967565059661865, 4.736841201782227, 16.192758560180664, -1.018798828125, 0.207763671875, -0.112060546875, 0, 
328, 1033837806, 0.005841786973178387, -0.5872638821601868, 0.3879086971282959, -0.7103726267814636, 8.807607650756836, -7.902205944061279, 0.08201923966407776, 6.004887104034424, 5.924023151397705, 16.46187400817871, -1.020751953125, 0.212158203125, -0.112548828125, 0, 
329, 1033846139, 0.0072316499426960945, -0.5864143967628479, 0.3881603181362152, -0.7109239101409912, 8.967227935791016, -8.20189380645752, 0.5930036902427673, 12.596587181091309, 4.510706901550293, 19.878334045410156, -1.019287109375, 0.21337890625, -0.1162109375, 0, 
330, 1033854472, 0.00947735458612442, -0.5855169892311096, 0.3879045248031616, -0.711776077747345, 8.82858943939209, -7.890444278717041, 0.696730375289917, 26.05386734008789, 2.771040678024292, 24.34147834777832, -1.016845703125, 0.2197265625, -0.120361328125, 0, 
331, 1033862805, 0.012260083109140396, -0.5845394134521484, 0.38752904534339905, -0.7127410173416138, 9.2664794921875, -8.013092041015625, 0.5810964107513428, 32.17634963989258, 1.5989198684692383, 29.084882736206055, -1.01513671875, 0.219482421875, -0.11767578125, 0, 
332, 1033871138, 0.01525970734655857, -0.5833241939544678, 0.38774532079696655, -0.7135607004165649, 9.717894554138184, -7.925774097442627, 0.1697167307138443, 27.37104034423828, 1.6888779401779175, 37.219703674316406, -1.012939453125, 0.224609375, -0.1240234375, 0, 
333, 1033879471, 0.018475642427802086, -0.5819270014762878, 0.38861364126205444, -0.7141529321670532, 9.263274192810059, -7.419710636138916, 0.4216369688510895, 21.548715591430664, 0.6498858332633972, 45.62889099121094, -1.0087890625, 0.228271484375, -0.126220703125, 0, 
334, 1033887804, 0.021567177027463913, -0.5803080201148987, 0.3906267583370209, -0.7142851948738098, 9.788450241088867, -6.870029449462891, 0.9990397095680237, 6.892655849456787, 0.08542370796203613, 54.828216552734375, -1.0126953125, 0.235107421875, -0.12353515625, 0, 
335, 1033896137, 0.024357393383979797, -0.5783568024635315, 0.3939800262451172, -0.7139363884925842, 10.23280143737793, -6.525525093078613, 1.5573782920837402, -11.144720077514648, 1.5436862707138062, 64.53227996826172, -1.005859375, 0.24609375, -0.126220703125, 0, 
336, 1033904470, 0.02683105878531933, -0.5759845972061157, 0.3984237313270569, -0.7132992148399353, 10.248093605041504, -6.971189975738525, 1.3618382215499878, -25.806629180908203, 5.44662618637085, 72.43155670166016, -1.00341796875, 0.2548828125, -0.130126953125, 0, 
337, 1033912803, 0.029163319617509842, -0.573553204536438, 0.4036664366722107, -0.7122185230255127, 9.693132400512695, -7.506068706512451, 1.1125560998916626, -37.154293060302734, 3.599412441253662, 77.90494537353516, -0.99951171875, 0.26611328125, -0.124755859375, 0, 
338, 1033921136, 0.031158996745944023, -0.5706682205200195, 0.40910592675209045, -0.7113470435142517, 9.81845474243164, -8.582794189453125, 0.8767970204353333, -40.41343307495117, 11.622771263122559, 78.55162048339844, -0.992431640625, 0.2763671875, -0.1259765625, 0, 
339, 1033929469, 0.033453814685344696, -0.5678751468658447, 0.4146711230278015, -0.7102548480033875, 9.196525573730469, -9.866575241088867, 0.3960266411304474, -40.55690383911133, 7.379450798034668, 82.08424377441406, -0.991943359375, 0.289306640625, -0.125244140625, 0, 
340, 1033937802, 0.03653288260102272, -0.5650923848152161, 0.42035576701164246, -0.7089797258377075, 9.255078315734863, -10.896061897277832, -0.12866762280464172, -36.66777801513672, 1.4142122268676758, 90.65921020507812, -0.986572265625, 0.307861328125, -0.126220703125, 0, 
341, 1033946135, 0.040277332067489624, -0.5620900988578796, 0.4256647229194641, -0.7079951763153076, 9.609992980957031, -11.549431800842285, -0.5944015979766846, -26.023696899414062, 1.795586109161377, 95.39231872558594, -0.9755859375, 0.317626953125, -0.129150390625, 0, 
342, 1033954468, 0.044911690056324005, -0.5588008761405945, 0.42990028858184814, -0.7077610492706299, 9.265909194946289, -12.63724422454834, -0.19489258527755737, -4.164832592010498, 4.5707316398620605, 96.97492218017578, -0.975341796875, 0.33154296875, -0.12744140625, 0, 
343, 1033962801, 0.05045861750841141, -0.5555474758148193, 0.43351760506629944, -0.7077422142028809, 8.794776916503906, -13.161767959594727, 0.39450016617774963, 10.136836051940918, 0.11456070840358734, 100.81071472167969, -0.96533203125, 0.344482421875, -0.128173828125, 0, 
344, 1033971134, 0.05684879422187805, -0.5522493124008179, 0.43659454584121704, -0.707947313785553, 9.421727180480957, -13.482620239257812, 0.6424938440322876, 23.17882537841797, -3.1524784564971924, 104.9425048828125, -0.95947265625, 0.359375, -0.133056640625, 0, 
345, 1033979467, 0.06413920968770981, -0.5490031242370605, 0.43940219283103943, -0.7081122994422913, 9.524609565734863, -14.267932891845703, 0.3150538504123688, 32.38216018676758, -9.565045356750488, 111.43936157226562, -0.95263671875, 0.37158203125, -0.13671875, 0, 
346, 1033987800, 0.07215963304042816, -0.5455147624015808, 0.4421970248222351, -0.7082962989807129, 9.883296012878418, -14.3508939743042, -0.12471452355384827, 38.32094192504883, -11.500221252441406, 119.83031463623047, -0.943603515625, 0.384033203125, -0.13525390625, 0, 
347, 1033996133, 0.0814434140920639, -0.5422472953796387, 0.44532057642936707, -0.7078415751457214, 9.284319877624512, -14.392794609069824, -0.5852856636047363, 40.5185661315918, -25.786256790161133, 133.959716796875, -0.93505859375, 0.40380859375, -0.137939453125, 0, 
348, 1034004466, 0.0913260206580162, -0.5380796790122986, 0.44865962862968445, -0.7077073454856873, 11.434952735900879, -14.100045204162598, -0.828607439994812, 45.82883834838867, -18.070709228515625, 146.47357177734375, -0.923583984375, 0.42041015625, -0.141357421875, 0, 
349, 1034012799, 0.1016051322221756, -0.5327103734016418, 0.4522697627544403, -0.7080702781677246, 10.545804023742676, -13.355854988098145, 0.41819635033607483, 50.72947311401367, -4.792733669281006, 159.20460510253906, -0.914794921875, 0.4384765625, -0.149169921875, 0, 
350, 1034021132, 0.11231278628110886, -0.5269687175750732, 0.4567350745201111, -0.707882821559906, 10.727746963500977, -13.32706356048584, 0.4142308831214905, 42.611873626708984, -6.675601005554199, 172.64569091796875, -0.8994140625, 0.454833984375, -0.15185546875, 0, 
351, 1034029465, 0.122920922935009, -0.5209283232688904, 0.46224191784858704, -0.7070160508155823, 11.206194877624512, -11.869810104370117, -0.9436522126197815, 27.973703384399414, -6.449997425079346, 182.23268127441406, -0.885986328125, 0.47705078125, -0.156982421875, 0, 
352, 1034037798, 0.13350705802440643, -0.5147436857223511, 0.4685452878475189, -0.7054753303527832, 10.628960609436035, -10.369073867797852, -0.9887068867683411, 16.00231170654297, -8.397600173950195, 189.6957244873047, -0.872802734375, 0.498779296875, -0.1591796875, 0, 
353, 1034046131, 0.14384904503822327, -0.5082536339759827, 0.4756937325000763, -0.7033608555793762, 11.285914421081543, -9.606973648071289, -0.7159002423286438, 2.968918800354004, -6.3615241050720215, 196.4144287109375, -0.857177734375, 0.5205078125, -0.16064453125, 0, 
354, 1034054464, 0.15396790206432343, -0.5013274550437927, 0.4836631715297699, -0.7007496356964111, 10.577251434326172, -9.11042308807373, -0.9337741732597351, -8.94201374053955, -2.5375797748565674, 203.75267028808594, -0.833251953125, 0.5458984375, -0.165283203125, 0, 
355, 1034062797, 0.16428551077842712, -0.4937485456466675, 0.4919802248477936, -0.6979925036430359, 10.697141647338867, -8.818082809448242, -1.2251657247543335, -10.485772132873535, 2.1655139923095703, 212.79525756835938, -0.81494140625, 0.572509765625, -0.166748046875, 0, 
356, 1034071130, 0.1749199479818344, -0.4857584238052368, 0.5008355975151062, -0.694709062576294, 9.058091163635254, -8.554740905761719, -1.029167652130127, -16.15895652770996, 1.612154483795166, 223.39141845703125, -0.791259765625, 0.591064453125, -0.168212890625, 0, 
357, 1034079463, 0.18629799783229828, -0.47758248448371887, 0.5102055668830872, -0.690589427947998, 7.800755977630615, -8.4115629196167, -1.5264561176300049, -21.394655227661133, -6.082801818847656, 237.29788208007812, -0.76953125, 0.61767578125, -0.169921875, 0, 
358, 1034087796, 0.19792966544628143, -0.46906229853630066, 0.519973635673523, -0.6858915686607361, 7.369701385498047, -7.882390975952148, -1.261916160583496, -26.704423904418945, -7.369729042053223, 246.15721130371094, -0.740478515625, 0.642333984375, -0.170166015625, 0, 
359, 1034096129, 0.2095946967601776, -0.4603572189807892, 0.5300499200820923, -0.680590808391571, 6.883800983428955, -7.157051086425781, -0.8477223515510559, -33.18659210205078, -8.917933464050293, 251.48741149902344, -0.714111328125, 0.667236328125, -0.16943359375, 0, 
360, 1034104462, 0.22096294164657593, -0.4515589773654938, 0.5405786037445068, -0.6745813488960266, 6.749864101409912, -6.825536251068115, -0.5028931498527527, -44.209049224853516, -9.05903148651123, 254.2403564453125, -0.683349609375, 0.693603515625, -0.16552734375, 0, 
361, 1034112795, 0.23223139345645905, -0.4430198073387146, 0.5511807799339294, -0.6678450107574463, 6.396700382232666, -6.168087005615234, -0.8373945355415344, -51.688995361328125, -15.014482498168945, 254.10826110839844, -0.655029296875, 0.719482421875, -0.16455078125, 0, 
362, 1034121128, 0.243075892329216, -0.43452730774879456, 0.5617538094520569, -0.6607177257537842, 6.406164646148682, -6.638901233673096, -0.8152729272842407, -57.12620544433594, -14.701087951660156, 250.88739013671875, -0.623046875, 0.744384765625, -0.156494140625, 0, 
363, 1034129461, 0.2540607452392578, -0.42652204632759094, 0.5718437433242798, -0.6531018018722534, 5.788938045501709, -6.3063883781433105, -1.1442068815231323, -57.29334259033203, -24.75092887878418, 247.1886444091797, -0.592041015625, 0.764404296875, -0.156005859375, 0, 
364, 1034137794, 0.26534971594810486, -0.4187527894973755, 0.5808925032615662, -0.6456118226051331, 5.277718544006348, -5.65777587890625, -0.9471584558486938, -45.99790954589844, -32.15804672241211, 241.48284912109375, -0.5595703125, 0.781494140625, -0.150390625, 0, 
365, 1034146127, 0.27712494134902954, -0.4112381637096405, 0.5887237191200256, -0.6383607387542725, 5.195746421813965, -4.912509918212891, -0.41792386770248413, -31.40365982055664, -41.37489318847656, 235.9159698486328, -0.528564453125, 0.80322265625, -0.14501953125, 0, 
366, 1034154460, 0.28871461749076843, -0.4035451412200928, 0.5954074859619141, -0.631902277469635, 5.778921127319336, -4.258586406707764, -0.3626549541950226, -15.28315258026123, -38.19169616699219, 226.1961669921875, -0.497802734375, 0.817626953125, -0.145263671875, 0, 
367, 1034162793, 0.30023109912872314, -0.3959425091743469, 0.6008101105690002, -0.626205563545227, 5.68167781829834, -4.39207649230957, -0.5693579912185669, 1.3251824378967285, -39.24066925048828, 214.7075653076172, -0.466064453125, 0.829833984375, -0.140869140625, 0, 
368, 1034171126, 0.3112916350364685, -0.38809001445770264, 0.6053126454353333, -0.6213659644126892, 5.056573390960693, -3.0971899032592773, -0.6570563912391663, 14.702320098876953, -32.37815856933594, 204.3964385986328, -0.439697265625, 0.843505859375, -0.142822265625, 0, 
369, 1034179459, 0.3221389055252075, -0.38060781359672546, 0.608893871307373, -0.6169504523277283, 3.6272525787353516, -3.0006797313690186, -0.21692965924739838, 23.386640548706055, -35.439842224121094, 192.7686309814453, -0.4130859375, 0.8544921875, -0.14306640625, 0, 
370, 1034187792, 0.3324786424636841, -0.37372541427612305, 0.6115539073944092, -0.6130290031433105, 2.9920856952667236, -2.6159918308258057, 0.3844241201877594, 30.01985740661621, -37.779754638671875, 176.42861938476562, -0.387451171875, 0.860595703125, -0.152587890625, 0, 
371, 1034196125, 0.34206292033195496, -0.36735373735427856, 0.613369345664978, -0.6097848415374756, 2.4683868885040283, -1.8311593532562256, 0.33810704946517944, 36.622398376464844, -36.10722351074219, 158.32778930664062, -0.367919921875, 0.868896484375, -0.157470703125, 0, 
372, 1034204458, 0.3505813181400299, -0.36156678199768066, 0.6145912408828735, -0.6071697473526001, 1.4709420204162598, -0.9209900498390198, 0.34828969836235046, 38.76897048950195, -31.63500213623047, 138.50701904296875, -0.348876953125, 0.87548828125, -0.166748046875, 0, 
373, 1034212791, 0.3578634560108185, -0.35642701387405396, 0.6154659390449524, -0.6050707101821899, 0.9889336228370667, -0.5046829581260681, 0.18278072774410248, 36.765079498291016, -25.698049545288086, 118.4923324584961, -0.32958984375, 0.878662109375, -0.16650390625, 0, 
374, 1034221124, 0.3639853894710541, -0.35209399461746216, 0.615978479385376, -0.6034318208694458, 0.5773720145225525, -0.21445941925048828, -0.24575112760066986, 34.008934020996094, -22.12825584411621, 97.98565673828125, -0.315673828125, 0.879150390625, -0.17431640625, 0, 
375, 1034229457, 0.3690795302391052, -0.34850677847862244, 0.6161547899246216, -0.6022388935089111, -0.08779562264680862, 0.7984491586685181, -0.6088957786560059, 31.873611450195312, -19.122154235839844, 79.26394653320312, -0.302734375, 0.882568359375, -0.179443359375, 0, 
376, 1034237790, 0.37342143058776855, -0.34546247124671936, 0.6161944270133972, -0.6012751460075378, -1.1211862564086914, 1.600350260734558, -0.8555698990821838, 28.58323097229004, -16.842670440673828, 66.63239288330078, -0.291748046875, 0.88232421875, -0.18359375, 0, 
377, 1034246123, 0.37713363766670227, -0.3429871201515198, 0.6162440776824951, -0.6003237962722778, -2.0542092323303223, 1.6967391967773438, -0.5099577307701111, 22.697172164916992, -16.09891128540039, 56.57152557373047, -0.28515625, 0.884765625, -0.183349609375, 0, 
378, 1034254456, 0.3801707625389099, -0.34132304787635803, 0.6163122653961182, -0.5992855429649353, -2.2502336502075195, 1.3682135343551636, -0.09863961488008499, 14.410537719726562, -17.390975952148438, 44.678993225097656, -0.28076171875, 0.888916015625, -0.187744140625, 0, 
379, 1034262789, 0.3825206756591797, -0.34072068333625793, 0.6161206960678101, -0.5983292460441589, -2.31339168548584, 0.804325520992279, 0.5757067203521729, 8.474414825439453, -21.288145065307617, 28.35246467590332, -0.277587890625, 0.89208984375, -0.188232421875, 0, 
380, 1034271122, 0.3841269910335541, -0.3409056067466736, 0.6155571341514587, -0.5977746844291687, -2.314605951309204, -0.1404259353876114, 1.3538825511932373, 7.311394691467285, -21.538558959960938, 11.717838287353516, -0.27197265625, 0.88623046875, -0.189697265625, 0, 
381, 1034279455, 0.384796679019928, -0.3421722650527954, 0.6148990392684937, -0.5972974896430969, -1.7463405132293701, -1.4245779514312744, 1.982762336730957, -1.358784556388855, -22.641151428222656, -5.998421669006348, -0.27392578125, 0.888916015625, -0.1943359375, 0, 
382, 1034287788, 0.3843259811401367, -0.34481731057167053, 0.6147435307502747, -0.5962382555007935, -1.1537487506866455, -2.1781809329986572, 1.5336681604385376, -23.074254989624023, -24.402585983276367, -21.57420539855957, -0.279296875, 0.888916015625, -0.186279296875, 0, 
383, 1034296121, 0.3826684355735779, -0.3484341502189636, 0.6150805950164795, -0.5948524475097656, -0.6958941221237183, -2.2266006469726562, 0.915510892868042, -40.63079833984375, -21.27829360961914, -35.4621696472168, -0.28076171875, 0.891357421875, -0.17822265625, 0, 
384, 1034304454, 0.38019755482673645, -0.35228949785232544, 0.6151289343833923, -0.5941157341003418, -0.06635857373476028, -2.029731512069702, 0.9552729725837708, -37.94181442260742, -14.760154724121094, -48.93076705932617, -0.287353515625, 0.889892578125, -0.1708984375, 0, 
385, 1034312787, 0.37717097997665405, -0.3557356894016266, 0.6145346164703369, -0.594606339931488, 0.5474551916122437, -1.9057413339614868, 1.8790407180786133, -22.852306365966797, -4.1296186447143555, -59.5402946472168, -0.291259765625, 0.88818359375, -0.167724609375, 0, 
386, 1034321120, 0.3735586702823639, -0.3588440418243408, 0.6136304140090942, -0.5959510803222656, 0.9457699060440063, -2.0061652660369873, 2.5524673461914062, -14.224874496459961, 6.15488338470459, -67.42279052734375, -0.3037109375, 0.885009765625, -0.16552734375, 0, 
387, 1034329453, 0.36931726336479187, -0.3622173070907593, 0.6128371357917786, -0.5973684787750244, 1.3297978639602661, -2.3756158351898193, 2.3851912021636963, -18.97522735595703, 10.220120429992676, -74.63709259033203, -0.311279296875, 0.884033203125, -0.15966796875, 0, 
388, 1034337786, 0.36435943841934204, -0.365980327129364, 0.612337589263916, -0.5986307859420776, 1.8129669427871704, -2.6098995208740234, 1.4961678981781006, -28.2603759765625, 13.771626472473145, -81.55633544921875, -0.32177734375, 0.884765625, -0.155517578125, 0, 
389, 1034346119, 0.35861143469810486, -0.37023255228996277, 0.6121017336845398, -0.599727213382721, 2.217437267303467, -2.650498151779175, 0.8203539252281189, -38.2398681640625, 16.88626480102539, -90.02226257324219, -0.33642578125, 0.88134765625, -0.15576171875, 0, 
390, 1034354452, 0.35196173191070557, -0.37500423192977905, 0.6120762228965759, -0.6007269620895386, 2.133504867553711, -2.592233657836914, 0.1737092137336731, -47.9621467590332, 20.74183464050293, -100.27845764160156, -0.35009765625, 0.876953125, -0.144775390625, 0, 
391, 1034362785, 0.3445104956626892, -0.3802281320095062, 0.6121792197227478, -0.6016570329666138, 2.0952036380767822, -3.0766830444335938, -0.29129451513290405, -55.90919876098633, 24.011747360229492, -109.71332550048828, -0.36083984375, 0.874755859375, -0.138671875, 0, 
392, 1034371118, 0.3361644446849823, -0.3854094445705414, 0.6122528910636902, -0.6030046343803406, 2.11502742767334, -3.746530294418335, -0.5561460852622986, -56.654510498046875, 33.93427658081055, -118.87689971923828, -0.37744140625, 0.870849609375, -0.12890625, 0, 
393, 1034379451, 0.3272281289100647, -0.39085784554481506, 0.6120613813400269, -0.6046055555343628, 2.1510634422302246, -4.474972724914551, -0.8180552124977112, -56.66268539428711, 36.81157302856445, -128.6085205078125, -0.393310546875, 0.864990234375, -0.1220703125, 0, 
394, 1034387784, 0.3176121413707733, -0.39674142003059387, 0.6118253469467163, -0.606138288974762, 2.2570786476135254, -5.058549404144287, -1.2935377359390259, -62.50022888183594, 38.34457778930664, -137.83778381347656, -0.40966796875, 0.8623046875, -0.113525390625, 0, 
395, 1034396117, 0.30735987424850464, -0.40313467383384705, 0.6116526126861572, -0.607378363609314, 2.8835203647613525, -5.130455493927002, -2.226329803466797, -71.16470336914062, 38.133602142333984, -145.82415771484375, -0.427734375, 0.856201171875, -0.105224609375, 0, 
396, 1034404450, 0.29657459259033203, -0.40917104482650757, 0.6111943125724792, -0.6091626286506653, 3.720623254776001, -4.805491924285889, -2.811707019805908, -65.67056274414062, 47.40412521362305, -151.1384735107422, -0.44970703125, 0.847900390625, -0.093505859375, 0, 
397, 1034412783, 0.28521421551704407, -0.4145241975784302, 0.6102966070175171, -0.6118624210357666, 4.114363193511963, -4.895648956298828, -2.384277820587158, -54.72138595581055, 61.3245964050293, -156.44024658203125, -0.47216796875, 0.840087890625, -0.0888671875, 0, 
398, 1034421116, 0.2733681797981262, -0.4197554588317871, 0.6091592311859131, -0.6148295402526855, 4.1665520668029785, -5.5095038414001465, -1.484256386756897, -52.76730728149414, 67.00065612792969, -161.88702392578125, -0.49267578125, 0.83251953125, -0.0849609375, 0, 
399, 1034429449, 0.26122039556503296, -0.42523691058158875, 0.6078112721443176, -0.6176717281341553, 4.610153675079346, -6.314923286437988, -1.4901819229125977, -54.701454162597656, 65.90878295898438, -167.31224060058594, -0.509765625, 0.8232421875, -0.075927734375, 0, 
400, 1034437782, 0.24925225973129272, -0.43108877539634705, 0.6056809425354004, -0.6206461787223816, 5.332046985626221, -7.115889549255371, -0.9221221208572388, -47.23887634277344, 59.21333694458008, -173.8933563232422, -0.536865234375, 0.81201171875, -0.0712890625, 0, 
401, 1034446115, 0.237748920917511, -0.43749675154685974, 0.6024831533432007, -0.6237798929214478, 6.780419826507568, -8.073556900024414, -0.21403971314430237, -35.94329833984375, 47.89109420776367, -181.4700927734375, -0.55712890625, 0.7978515625, -0.06884765625, 0, 
402, 1034454448, 0.22696654498577118, -0.44440799951553345, 0.59798264503479, -0.627231776714325, 8.919744491577148, -9.475597381591797, -0.553449809551239, -19.44869041442871, 35.23624801635742, -188.28787231445312, -0.580322265625, 0.783203125, -0.069580078125, 0, 
403, 1034462781, 0.21688546240329742, -0.4527132213115692, 0.5928009152412415, -0.6297727823257446, 13.654356002807617, -13.107783317565918, -0.21853294968605042, -21.11968994140625, 9.771444320678711, -195.0684356689453, -0.60595703125, 0.768310546875, -0.0634765625, 0, 
404, 1034471114, 0.20551761984825134, -0.4608101546764374, 0.5889102220535278, -0.631360650062561, 13.608543395996094, -15.407646179199219, -1.8058009147644043, -47.46963119506836, 19.96221160888672, -193.57131958007812, -0.630126953125, 0.751953125, -0.058349609375, 0, 
405, 1034479447, 0.19374224543571472, -0.4671988785266876, 0.5831226110458374, -0.6357454061508179, 6.496148109436035, -13.602803230285645, -3.46220326423645, -6.094925403594971, 50.477874755859375, -203.26593017578125, -0.6494140625, 0.73583984375, -0.055908203125, 0, 
406, 1034487780, 0.18356001377105713, -0.47419294714927673, 0.5747413635253906, -0.641197681427002, 4.202532768249512, -12.267935752868652, -2.9794139862060547, 33.75408935546875, 32.329673767089844, -213.61180114746094, -0.68212890625, 0.715087890625, -0.058837890625, 0, 
407, 1034496113, 0.17400141060352325, -0.4820416569709778, 0.5651893019676208, -0.646479606628418, 4.448639392852783, -10.397698402404785, -1.528603196144104, 44.6510009765625, 15.826168060302734, -222.1614990234375, -0.703125, 0.696533203125, -0.0595703125, 0, 
408, 1034504446, 0.164780855178833, -0.48981061577796936, 0.5553481578826904, -0.6515647172927856, 6.522497653961182, -9.999616622924805, 0.18404826521873474, 48.11756896972656, 11.883718490600586, -219.89138793945312, -0.732177734375, 0.673828125, -0.064697265625, 0, 
409, 1034512779, 0.1552741825580597, -0.49700525403022766, 0.5457859635353088, -0.6565124988555908, 7.303495407104492, -9.450799942016602, 0.8413994312286377, 43.94956588745117, 18.949893951416016, -215.96792602539062, -0.75390625, 0.651611328125, -0.0673828125, 0, 
410, 1034521112, 0.14534607529640198, -0.5039937496185303, 0.5359233021736145, -0.6615633368492126, 8.024259567260742, -9.84371280670166, 1.5480581521987915, 44.98966979980469, 24.013044357299805, -220.4081268310547, -0.77880859375, 0.62646484375, -0.07373046875, 0, 
411, 1034529445, 0.13486574590206146, -0.5104507207870483, 0.5261056423187256, -0.6666927933692932, 9.048266410827637, -10.651394844055176, 1.6825754642486572, 42.39965057373047, 33.57814025878906, -221.452880859375, -0.80126953125, 0.6005859375, -0.0751953125, 0, 
412, 1034537778, 0.12346222251653671, -0.5164087414741516, 0.5169052481651306, -0.6714932918548584, 8.288777351379395, -10.647512435913086, 1.1674773693084717, 28.799753189086914, 43.6351432800293, -221.26541137695312, -0.822509765625, 0.57568359375, -0.077880859375, 0, 
413, 1034546111, 0.11188393086194992, -0.5227174162864685, 0.5078700184822083, -0.6755232810974121, 8.695926666259766, -11.44680118560791, 0.5175130367279053, 19.966045379638672, 36.47898483276367, -222.98870849609375, -0.844970703125, 0.550537109375, -0.08251953125, 0, 
414, 1034554444, 0.1001214012503624, -0.5291005373001099, 0.49980565905570984, -0.6784083247184753, 9.5942964553833, -11.918303489685059, -0.22120799124240875, 1.4991360902786255, 30.30434799194336, -216.3777618408203, -0.864013671875, 0.52099609375, -0.082763671875, 0, 
415, 1034562777, 0.08849669247865677, -0.5357932448387146, 0.49183622002601624, -0.6805925965309143, 7.781981468200684, -11.452604293823242, -1.9134560823440552, -3.6139073371887207, 21.533891677856445, -215.66432189941406, -0.887939453125, 0.497314453125, -0.087158203125, 0, 
416, 1034571110, 0.07784769684076309, -0.5432392358779907, 0.482648104429245, -0.6825664639472961, 6.712767124176025, -11.44666862487793, -2.527365207672119, 12.630255699157715, 4.810354709625244, -220.24903869628906, -0.903564453125, 0.467529296875, -0.085205078125, 0, 
417, 1034579443, 0.06785548478364944, -0.5509297251701355, 0.47312161326408386, -0.6841369271278381, 7.830691337585449, -11.871552467346191, -1.965670108795166, 17.786224365234375, -5.178276538848877, -217.90457153320312, -0.920654296875, 0.441162109375, -0.08056640625, 0, 
418, 1034587776, 0.05799097195267677, -0.558111310005188, 0.4643722474575043, -0.6852170825004578, 9.126435279846191, -11.510751724243164, -1.7720606327056885, 8.71769905090332, -4.249293327331543, -206.9482421875, -0.93603515625, 0.4150390625, -0.075927734375, 0, 
419, 1034596109, 0.047926709055900574, -0.5643409490585327, 0.4568499028682709, -0.6859488487243652, 10.828214645385742, -12.445672988891602, -1.052774429321289, -5.834871768951416, 4.340449333190918, -193.15353393554688, -0.949951171875, 0.387939453125, -0.07666015625, 0, 
420, 1034604442, 0.03794380649924278, -0.569387674331665, 0.45081856846809387, -0.6863933205604553, 11.225934982299805, -12.953588485717773, -0.763279914855957, -20.300891876220703, 13.705778121948242, -173.101318359375, -0.962158203125, 0.361328125, -0.07373046875, 0, 
421, 1034612775, 0.028266912326216698, -0.5736321806907654, 0.4459386467933655, -0.6865138411521912, 9.67187786102295, -13.051193237304688, -0.759235143661499, -30.354713439941406, 17.47980308532715, -156.1453857421875, -0.97412109375, 0.34326171875, -0.068603515625, 0, 
422, 1034621108, 0.018460074439644814, -0.5767486095428467, 0.442573606967926, -0.6864140033721924, 8.71912956237793, -13.440045356750488, -0.5428284406661987, -46.60014343261719, 27.742233276367188, -138.3314208984375, -0.980224609375, 0.321533203125, -0.072021484375, 0, 
423, 1034629441, 0.008676119148731232, -0.5791783928871155, 0.44092056155204773, -0.6856250762939453, 8.243913650512695, -13.366065979003906, -0.7504647970199585, -66.5916976928711, 29.087406158447266, -120.27008056640625, -0.989013671875, 0.306396484375, -0.068603515625, 0, 
424, 1034637774, -0.0004897760227322578, -0.5811842679977417, 0.4402444362640381, -0.6844155788421631, 8.373828887939453, -13.21507740020752, -0.8812068700790405, -73.38642883300781, 26.06819725036621, -103.96694946289062, -0.9912109375, 0.291259765625, -0.067138671875, 0, 
425, 1034646107, -0.008367001079022884, -0.5826507210731506, 0.44031113386154175, -0.6830736994743347, 8.854825019836426, -12.880733489990234, -1.465415358543396, -70.87598419189453, 22.317079544067383, -82.70951080322266, -1, 0.28125, -0.06884765625, 0, 
426, 1034654440, -0.014877766370773315, -0.5837625861167908, 0.4407494366168976, -0.6817294359207153, 7.506044864654541, -12.321453094482422, -2.029101610183716, -63.48204040527344, 17.273088455200195, -64.69544219970703, -1.004150390625, 0.268798828125, -0.0634765625, 0, 
427, 1034662773, -0.020125363022089005, -0.5844520330429077, 0.44123971462249756, -0.6806861162185669, 6.921607494354248, -12.077898979187012, -2.6886653900146484, -52.083091735839844, 16.021574020385742, -49.86854553222656, -1.005615234375, 0.262451171875, -0.0634765625, 0, 
428, 1034671106, -0.02437179535627365, -0.584588885307312, 0.4413105547428131, -0.6803837418556213, 6.072332859039307, -12.204941749572754, -3.293738603591919, -35.77439880371094, 21.156354904174805, -40.273067474365234, -1.008056640625, 0.2607421875, -0.063232421875, 0, 
429, 1034679439, -0.027309680357575417, -0.584609866142273, 0.44038277864456177, -0.6808550953865051, 4.920388698577881, -12.641820907592773, -4.1105217933654785, -11.24776554107666, 20.886301040649414, -35.13307571411133, -1.010986328125, 0.2548828125, -0.063720703125, 0, 
430, 1034687772, -0.028554558753967285, -0.585067868232727, 0.4385518431663513, -0.6815921068191528, 4.955593109130859, -12.78302001953125, -4.3974409103393555, 12.58409309387207, 8.992026329040527, -29.07061767578125, -1.0068359375, 0.25244140625, -0.064697265625, 0, 
431, 1034696105, -0.028621505945920944, -0.5860974192619324, 0.4360451102256775, -0.6823126077651978, 4.055188179016113, -12.721331596374512, -4.334653377532959, 28.528278350830078, -3.3119635581970215, -26.939233779907227, -1.01171875, 0.24609375, -0.06591796875, 0, 
432, 1034704438, -0.027261443436145782, -0.5878044962882996, 0.4326377213001251, -0.6830685138702393, 4.628143310546875, -12.7097749710083, -3.8252575397491455, 48.9509162902832, -17.595430374145508, -24.86138916015625, -1.01220703125, 0.240478515625, -0.066162109375, 0, 
433, 1034712771, -0.024761073291301727, -0.5895087122917175, 0.42873919010162354, -0.684152364730835, 5.733389854431152, -11.668859481811523, -2.379373073577881, 64.738525390625, -21.508134841918945, -17.976097106933594, -1.0146484375, 0.238525390625, -0.066162109375, 0, 
434, 1034721104, -0.021194621920585632, -0.5908854603767395, 0.42453014850616455, -0.6857075095176697, 7.028616905212402, -9.90871524810791, -0.9365592002868652, 78.96005249023438, -20.78322982788086, -8.401748657226562, -1.0166015625, 0.23095703125, -0.065673828125, 0, 
435, 1034729437, -0.017357684671878815, -0.5915427803993225, 0.4204177260398865, -0.6877791881561279, 8.280341148376465, -8.416131973266602, 0.8001401424407959, 83.06234741210938, -11.413453102111816, -0.6872214078903198, -1.021484375, 0.22900390625, -0.067626953125, 0, 
436, 1034737770, -0.01384515780955553, -0.5916487574577332, 0.4167536497116089, -0.6899939775466919, 8.858613014221191, -7.838622570037842, 0.9343093633651733, 76.8689956665039, -3.260594129562378, 3.068627119064331, -1.01806640625, 0.23095703125, -0.07177734375, 0, 
437, 1034746103, -0.010472625494003296, -0.5916891694068909, 0.41337427496910095, -0.6920486688613892, 8.571012496948242, -7.725188732147217, 0.2673107981681824, 72.10802459716797, -3.197888135910034, 4.446754455566406, -1.018798828125, 0.230224609375, -0.075439453125, 0, 
438, 1034754436, -0.007068909704685211, -0.5917303562164307, 0.4098736643791199, -0.6941354274749756, 9.026416778564453, -7.753345966339111, -0.5366260409355164, 73.68404388427734, -3.1044728755950928, 3.7042715549468994, -1.019775390625, 0.226806640625, -0.078125, 0, 
439, 1034762769, -0.0035872673615813255, -0.5920076370239258, 0.40627914667129517, -0.6960363388061523, 8.690256118774414, -7.470453262329102, -0.6835421323776245, 74.20378875732422, -7.298799991607666, 2.3886163234710693, -1.01904296875, 0.2275390625, -0.0810546875, 0, 
440, 1034771102, 0.00009339582175016403, -0.5923635959625244, 0.40235039591789246, -0.6980218291282654, 8.834613800048828, -7.3750152587890625, 0.7147486209869385, 79.48977661132812, -8.465154647827148, 1.0808241367340088, -1.016357421875, 0.225341796875, -0.08642578125, 0, 
441, 1034779435, 0.0038062604144215584, -0.5926031470298767, 0.3985636234283447, -0.6999778151512146, 9.248123168945312, -7.420944690704346, 1.5948362350463867, 78.23606872558594, -7.75874662399292, 3.2457122802734375, -1.020263671875, 0.22119140625, -0.089111328125, 0, 
