PacketCounter,SampleTimeFine,Quat_W,Quat_X,Quat_Y,Quat_Z,Acc_X,Acc_Y,Acc_Z,Gyr_X,Gyr_Y,Gyr_Z,Mag_X,Mag_Y,Mag_Z,Status,
0, 1039420916, 0.04317674785852432, -0.6924412250518799, -0.11633696407079697, -0.7107348442077637, 0, 0, 0, 0, 0, 0, -0.544189453125, -0.809814453125, 0.302978515625, 0, 
1, 1039429249, 0.04289413243532181, -0.6925560832023621, -0.11609393358230591, -0.7106797695159912, 9.654991149902344, 1.3220235109329224, 0.07683923095464706, -4.365536212921143, -2.689443588256836, -0.2533504068851471, -0.5458984375, -0.807861328125, 0.307861328125, 0, 
2, 1039437582, 0.042612530291080475, -0.6926896572113037, -0.11584024876356125, -0.7106080055236816, 9.764410018920898, 1.1733174324035645, 0.0760592371225357, -4.4495768547058105, -3.0087249279022217, -0.1911846399307251, -0.544189453125, -0.807373046875, 0.30517578125, 0, 
3, 1039445915, 0.0423702746629715, -0.6927952766418457, -0.11561258137226105, -0.7105566263198853, 9.837263107299805, 1.0642497539520264, 0.12427287548780441, -3.8310959339141846, -2.5076849460601807, -0.020568231120705605, -0.544921875, -0.81005859375, 0.303955078125, 0, 
4, 1039454248, 0.04221627116203308, -0.6928792595863342, -0.11544874310493469, -0.7105106711387634, 9.800993919372559, 1.008311152458191, 0.09972721338272095, -2.3667938709259033, -2.127377510070801, 0.10709312558174133, -0.543701171875, -0.8046875, 0.303955078125, 0, 
5, 1039462581, 0.04202793538570404, -0.6930023431777954, -0.11521639674901962, -0.7104395031929016, 9.788870811462402, 0.9331128001213074, 0.030276518315076828, -3.3418381214141846, -2.7806813716888428, 0.5906515121459961, -0.546142578125, -0.8076171875, 0.30126953125, 0, 
6, 1039470914, 0.04182123392820358, -0.6931042075157166, -0.11493386328220367, -0.7103980183601379, 9.764252662658691, 0.8845357298851013, 0.0037578113842755556, -4.052684783935547, -2.2751588821411133, 0.749485433101654, -0.544921875, -0.81005859375, 0.303955078125, 0, 
7, 1039479247, 0.04156921058893204, -0.6931933164596558, -0.11462705582380295, -0.7103754281997681, 9.752079963684082, 0.8583452701568604, 0.0702945813536644, -4.7341766357421875, -2.041198492050171, 0.5966707468032837, -0.544677734375, -0.806640625, 0.302001953125, 0, 
8, 1039487580, 0.04131248593330383, -0.6932883858680725, -0.1143171489238739, -0.7103474140167236, 9.733962059020996, 0.8449473977088928, 0.12913833558559418, -4.8100972175598145, -2.1420671939849854, 0.5027690529823303, -0.544677734375, -0.80810546875, 0.30517578125, 0, 
9, 1039495913, 0.04107866436243057, -0.6933884620666504, -0.11406289041042328, -0.7103041410446167, 9.727937698364258, 0.8541483283042908, 0.17168091237545013, -4.021076679229736, -2.347365617752075, 0.3013130724430084, -0.546630859375, -0.808349609375, 0.301513671875, 0, 
10, 1039504246, 0.04089551419019699, -0.6934708952903748, -0.1138840988278389, -0.7102630734443665, 9.708239555358887, 0.8973754048347473, 0.17448312044143677, -2.7975356578826904, -2.1022372245788574, -0.041059620678424835, -0.543701171875, -0.8115234375, 0.3046875, 0, 
11, 1039512579, 0.040667470544576645, -0.6935966610908508, -0.11370518803596497, -0.710182249546051, 9.73865795135498, 0.7893462777137756, 0.06628262996673584, -3.18646240234375, -2.99082088470459, -0.2997121810913086, -0.545166015625, -0.809326171875, 0.302001953125, 0, 
12, 1039520912, 0.04048849642276764, -0.693713903427124, -0.11355835199356079, -0.710101306438446, 9.766034126281738, 0.6989141702651978, 0.10051285475492477, -2.4046900272369385, -2.8330624103546143, -0.22806914150714874, -0.544677734375, -0.804443359375, 0.3037109375, 0, 
13, 1039529245, 0.04039161652326584, -0.6938420534133911, -0.11350566893815994, -0.7099899649620056, 9.739771842956543, 0.6057355403900146, 0.1373632699251175, -0.6554554104804993, -3.170056104660034, -0.20326176285743713, -0.545654296875, -0.80712890625, 0.3037109375, 0, 
14, 1039537578, 0.04029504209756851, -0.6939937472343445, -0.1134486123919487, -0.7098562121391296, 9.769736289978027, 0.5663611888885498, 0.12024793773889542, -0.6940816640853882, -3.597583293914795, -0.19916348159313202, -0.545654296875, -0.806640625, 0.30126953125, 0, 
15, 1039545911, 0.04017028212547302, -0.6941320896148682, -0.11337587982416153, -0.7097397446632385, 9.772618293762207, 0.7015020847320557, 0.039118003100156784, -1.1146548986434937, -3.3502910137176514, -0.2639290988445282, -0.546875, -0.8095703125, 0.303466796875, 0, 
16, 1039554244, 0.04003651812672615, -0.6942911148071289, -0.11329231411218643, -0.7096050977706909, 9.71164608001709, 0.7488252520561218, -0.1078723818063736, -1.347039818763733, -3.725398302078247, -0.2993151545524597, -0.544921875, -0.8125, 0.302978515625, 0, 
17, 1039562577, 0.03986898437142372, -0.6944867968559265, -0.11319154500961304, -0.7094390392303467, 9.771824836730957, 0.6230373978614807, -0.012712066993117332, -1.7511301040649414, -4.4350409507751465, -0.2979576289653778, -0.5439453125, -0.809814453125, 0.30517578125, 0, 
18, 1039570910, 0.03976412117481232, -0.6946496367454529, -0.11313241720199585, -0.7092949151992798, 9.801151275634766, 0.6252321600914001, 0.049549344927072525, -0.7629839181900024, -3.8131775856018066, -0.24091464281082153, -0.544189453125, -0.805419921875, 0.303466796875, 0, 
19, 1039579243, 0.03957120329141617, -0.6948586702346802, -0.11296534538269043, -0.7091275453567505, 9.749079704284668, 0.7011107802391052, -0.13194869458675385, -2.6455788612365723, -4.580606460571289, 0.11129384487867355, -0.546630859375, -0.81005859375, 0.302001953125, 0, 
20, 1039587576, 0.0393330380320549, -0.6951038837432861, -0.11275419592857361, -0.7089340090751648, 9.774065017700195, 0.7566097378730774, -0.16886276006698608, -3.464095115661621, -5.212240695953369, 0.06389471143484116, -0.545166015625, -0.80859375, 0.302490234375, 0, 
21, 1039595909, 0.039154089987277985, -0.6953385472297668, -0.11264504492282867, -0.7087311148643494, 9.774835586547852, 0.8330206871032715, 0.0904884859919548, -1.9063905477523804, -5.1792497634887695, -0.24766401946544647, -0.546142578125, -0.805908203125, 0.30322265625, 0, 
22, 1039604242, 0.03899984061717987, -0.6955424547195435, -0.11255566775798798, -0.708553671836853, 9.713521003723145, 0.8313035368919373, 0.3189224600791931, -1.5183736085891724, -4.594258785247803, -0.3565629720687866, -0.548095703125, -0.80908203125, 0.3037109375, 0, 
23, 1039612575, 0.038862183690071106, -0.6957868933677673, -0.11251383274793625, -0.7083277702331543, 9.712052345275879, 0.7971567511558533, 0.08642054349184036, -0.8246247172355652, -5.467127799987793, -0.46282365918159485, -0.546630859375, -0.807373046875, 0.303955078125, 0, 
24, 1039620908, 0.03869052976369858, -0.6960172653198242, -0.11243028938770294, -0.7081242203712463, 9.871332168579102, 0.7831266522407532, 0.2583400011062622, -1.6339064836502075, -5.134322643280029, -0.526756763458252, -0.54833984375, -0.80615234375, 0.306640625, 0, 
25, 1039629241, 0.03847799450159073, -0.696239173412323, -0.11232747882604599, -0.7079339027404785, 9.851395606994629, 0.9149927496910095, 0.47780996561050415, -2.1789519786834717, -4.991779327392578, -0.6623072624206543, -0.54541015625, -0.803466796875, 0.306640625, 0, 
26, 1039637574, 0.03822916001081467, -0.6964876055717468, -0.11219659447669983, -0.7077237963676453, 9.706795692443848, 0.8254027962684631, 0.4339611828327179, -2.729299545288086, -5.457753658294678, -0.7946304678916931, -0.54931640625, -0.805419921875, 0.30859375, 0, 
27, 1039645907, 0.03799813613295555, -0.6967443823814392, -0.11213398724794388, -0.7074935436248779, 9.547650337219238, 0.5959229469299316, 0.2833999991416931, -1.9209909439086914, -5.7608466148376465, -1.1525638103485107, -0.546142578125, -0.806884765625, 0.30859375, 0, 
28, 1039654240, 0.037823766469955444, -0.6969719529151917, -0.11214763671159744, -0.7072763442993164, 9.494215965270996, 0.376985102891922, 0.48105478286743164, -0.6914178729057312, -5.295960903167725, -1.4839222431182861, -0.546875, -0.810546875, 0.30615234375, 0, 
29, 1039662573, 0.03767669200897217, -0.6972137093544006, -0.1122639924287796, -0.7070275545120239, 9.412193298339844, 0.2760368883609772, 0.4666854739189148, 0.6614364981651306, -5.756786823272705, -2.064161777496338, -0.546875, -0.8076171875, 0.312744140625, 0, 
30, 1039670906, 0.037570446729660034, -0.6974799633026123, -0.11250857263803482, -0.7067315578460693, 9.497900009155273, 0.20129485428333282, 0.45816612243652344, 2.318690061569214, -6.443465709686279, -2.937875986099243, -0.546142578125, -0.8076171875, 0.309326171875, 0, 
31, 1039679239, 0.03746750205755234, -0.6978031992912292, -0.11288198083639145, -0.7063583135604858, 9.595298767089844, 0.2971092462539673, 0.4391718804836273, 3.732980489730835, -7.806912422180176, -3.910038709640503, -0.5478515625, -0.80615234375, 0.31201171875, 0, 
32, 1039687572, 0.037198759615421295, -0.6981930136680603, -0.11318780481815338, -0.7059381604194641, 9.72657585144043, 0.36437737941741943, 0.4123220145702362, 1.5029538869857788, -9.121102333068848, -4.8520283699035645, -0.549560546875, -0.810302734375, 0.312255859375, 0, 
33, 1039695905, 0.03679729253053665, -0.6985514760017395, -0.11343339085578918, -0.7055650949478149, 9.799484252929688, 0.4659254252910614, 0.46653831005096436, -0.39269188046455383, -8.547138214111328, -5.526092529296875, -0.54638671875, -0.807373046875, 0.313232421875, 0, 
34, 1039704238, 0.03646204248070717, -0.6989323496818542, -0.11378464102745056, -0.7051485776901245, 9.672735214233398, 0.49446794390678406, 0.49517709016799927, 1.322014570236206, -9.124993324279785, -5.954874515533447, -0.54638671875, -0.80908203125, 0.313720703125, 0, 
35, 1039712571, 0.03607972711324692, -0.699360728263855, -0.11418765783309937, -0.7046782970428467, 9.522692680358887, 0.27013319730758667, 0.48274511098861694, 1.435741901397705, -10.209603309631348, -6.696252822875977, -0.5458984375, -0.8095703125, 0.31396484375, 0, 
36, 1039720904, 0.03562043234705925, -0.6998415589332581, -0.11466096341609955, -0.704147219657898, 9.479005813598633, 0.05035526677966118, 0.41703420877456665, 1.4386367797851562, -11.454459190368652, -8.119099617004395, -0.545654296875, -0.8095703125, 0.31640625, 0, 
37, 1039729237, 0.03506159782409668, -0.7003625631332397, -0.11521269381046295, -0.7035669684410095, 9.494668006896973, -0.06064808368682861, 0.45492231845855713, 1.305647373199463, -12.516475677490234, -9.635743141174316, -0.5439453125, -0.81201171875, 0.319091796875, 0, 
38, 1039737570, 0.03443541377782822, -0.7009124159812927, -0.11581892520189285, -0.7029505372047424, 9.450837135314941, -0.1105237752199173, 0.45179513096809387, 1.21989107131958, -13.272710800170898, -10.869583129882812, -0.547119140625, -0.812255859375, 0.322509765625, 0, 
39, 1039745903, 0.033699002116918564, -0.7015331983566284, -0.11649653315544128, -0.7022546529769897, 9.462504386901855, -0.10561683773994446, 0.3871935307979584, 0.9463949799537659, -14.936548233032227, -12.353120803833008, -0.546142578125, -0.8095703125, 0.32373046875, 0, 
40, 1039754236, 0.03290422260761261, -0.7021399736404419, -0.11722688376903534, -0.7015642523765564, 9.550294876098633, -0.18538780510425568, 0.6099485158920288, 0.8829102516174316, -14.872552871704102, -13.575932502746582, -0.544677734375, -0.810791015625, 0.33056640625, 0, 
41, 1039762569, 0.0319412425160408, -0.7027943134307861, -0.11792060732841492, -0.7008370161056519, 9.537456512451172, -0.10691164433956146, 0.5004529356956482, -1.047622561454773, -15.933853149414062, -14.625527381896973, -0.5458984375, -0.811279296875, 0.3310546875, 0, 
42, 1039770902, 0.030752774327993393, -0.7034476399421692, -0.11852551251649857, -0.7001320123672485, 9.580714225769043, 0.3167039752006531, 0.5009195804595947, -4.126723766326904, -16.045928955078125, -16.085426330566406, -0.544921875, -0.81201171875, 0.334228515625, 0, 
43, 1039779235, 0.02951509691774845, -0.7041484713554382, -0.11926495283842087, -0.6993549466133118, 9.6127347946167, 0.5400936007499695, 0.532855749130249, -3.202139377593994, -17.327346801757812, -17.619476318359375, -0.54296875, -0.817138671875, 0.3349609375, 0, 
44, 1039787568, 0.028304224833846092, -0.7048710584640503, -0.12011079490184784, -0.6985318064689636, 9.605600357055664, 0.7002366185188293, 0.27510207891464233, -1.8624507188796997, -17.996173858642578, -18.476238250732422, -0.544189453125, -0.81787109375, 0.3388671875, 0, 
45, 1039795901, 0.026827698573470116, -0.7054277062416077, -0.12082371115684509, -0.6979048252105713, 9.692843437194824, 0.8808009028434753, -0.09291968494653702, -5.964687347412109, -14.874987602233887, -19.951732635498047, -0.54150390625, -0.8203125, 0.339111328125, 0, 
46, 1039804234, 0.025733396410942078, -0.7059375047683716, -0.12190990149974823, -0.6972411274909973, 9.676058769226074, 1.0986404418945312, -0.1791016161441803, 1.3962968587875366, -14.300026893615723, -20.11028480529785, -0.54052734375, -0.8193359375, 0.34521484375, 0, 
47, 1039812567, 0.025081582367420197, -0.7064642310142517, -0.12329129129648209, -0.6964882612228394, 9.603621482849121, 1.1541674137115479, -0.38021767139434814, 8.67458438873291, -14.674348831176758, -18.53180503845215, -0.538330078125, -0.8193359375, 0.346923828125, 0, 
48, 1039820900, 0.024484742432832718, -0.7069296836853027, -0.12465428560972214, -0.6957943439483643, 9.61786937713623, 1.6568167209625244, -0.11497670412063599, 8.944737434387207, -13.432879447937012, -18.094106674194336, -0.5400390625, -0.822021484375, 0.348876953125, 0, 
49, 1039829233, 0.02402462065219879, -0.7073837518692017, -0.1260804831981659, -0.695091724395752, 9.548089981079102, 2.2298800945281982, -0.35112547874450684, 10.905303955078125, -13.176736831665039, -17.272302627563477, -0.539306640625, -0.82421875, 0.350830078125, 0, 
50, 1039837566, 0.023794876411557198, -0.707904040813446, -0.12749455869197845, -0.6943113803863525, 9.558459281921387, 2.7988150119781494, -0.8082529902458191, 13.136423110961914, -14.179959297180176, -14.956070899963379, -0.537353515625, -0.826171875, 0.355712890625, 0, 
51, 1039845899, 0.023537177592515945, -0.7084094882011414, -0.1286749690771103, -0.693586528301239, 9.561470031738281, 3.3092191219329834, -0.6910736560821533, 10.54698657989502, -13.455114364624023, -12.849464416503906, -0.5390625, -0.8251953125, 0.3564453125, 0, 
52, 1039854232, 0.023372214287519455, -0.7088841795921326, -0.1297282874584198, -0.6929106116294861, 9.397564888000488, 3.543861150741577, -0.3448593020439148, 10.152372360229492, -12.494656562805176, -10.930444717407227, -0.537353515625, -0.826171875, 0.36376953125, 0, 
53, 1039862565, 0.0232861191034317, -0.7093954682350159, -0.1307165026664734, -0.692204475402832, 9.375371932983398, 3.485724449157715, -0.3686845004558563, 10.354171752929688, -12.959999084472656, -9.335737228393555, -0.53857421875, -0.82861328125, 0.36474609375, 0, 
54, 1039870898, 0.023243121802806854, -0.7099062204360962, -0.1314982920885086, -0.6915335655212402, 9.335100173950195, 3.4189701080322266, -0.3131463825702667, 8.73614501953125, -12.482983589172363, -7.0454912185668945, -0.532470703125, -0.828857421875, 0.36669921875, 0, 
55, 1039879231, 0.023400913923978806, -0.7104096412658691, -0.13233131170272827, -0.6908519864082336, 9.349200248718262, 3.308830738067627, -0.3674266040325165, 11.214069366455078, -12.157480239868164, -5.524543762207031, -0.537353515625, -0.827392578125, 0.369384765625, 0, 
56, 1039887564, 0.02386293187737465, -0.7109007835388184, -0.13332930207252502, -0.6901387572288513, 9.523662567138672, 2.8961873054504395, -0.42418354749679565, 15.807292938232422, -11.863506317138672, -4.364321231842041, -0.535400390625, -0.8291015625, 0.3701171875, 0, 
57, 1039895897, 0.02471926063299179, -0.711357831954956, -0.13451901078224182, -0.6894063949584961, 9.638251304626465, 2.3535003662109375, -0.4630661904811859, 21.53542137145996, -11.052778244018555, -2.4469289779663086, -0.53662109375, -0.828857421875, 0.37451171875, 0, 
58, 1039904230, 0.025880906730890274, -0.7118105292320251, -0.13572272658348083, -0.6886601448059082, 9.645078659057617, 2.257603168487549, -0.6775550842285156, 24.675500869750977, -10.601122856140137, 0.2117658257484436, -0.53466796875, -0.826171875, 0.379150390625, 0, 
59, 1039912563, 0.026994850486516953, -0.7122951745986938, -0.13666202127933502, -0.6879300475120544, 9.665362358093262, 2.6294190883636475, -1.0754609107971191, 21.668577194213867, -10.725133895874023, 2.497594118118286, -0.54150390625, -0.822509765625, 0.382568359375, 0, 
60, 1039920896, 0.02801717072725296, -0.7128076553344727, -0.1373799443244934, -0.6872150301933289, 9.771129608154297, 2.952631711959839, -0.9376667141914368, 18.634029388427734, -10.948437690734863, 3.7559449672698975, -0.53955078125, -0.821044921875, 0.385498046875, 0, 
61, 1039929229, 0.028872819617390633, -0.7133232355117798, -0.13789984583854675, -0.6865402460098267, 9.82835865020752, 2.936744213104248, -0.9120932221412659, 15.056177139282227, -10.805098533630371, 4.2037835121154785, -0.5390625, -0.81982421875, 0.387451171875, 0, 
62, 1039937562, 0.02964329719543457, -0.713840126991272, -0.13821440935134888, -0.685906708240509, 9.79329776763916, 2.766347646713257, -1.0849103927612305, 12.197897911071777, -10.50590991973877, 5.3165812492370605, -0.539306640625, -0.818603515625, 0.390625, 0, 
63, 1039945895, 0.0303075909614563, -0.7143521904945374, -0.13822010159492493, -0.685343325138092, 9.666777610778809, 2.4451780319213867, -0.436661034822464, 8.116678237915039, -9.834074020385742, 7.392665386199951, -0.544189453125, -0.81982421875, 0.392822265625, 0, 
64, 1039954228, 0.030812226235866547, -0.7149165868759155, -0.13795121014118195, -0.6847860217094421, 9.485196113586426, 2.3783154487609863, -0.48873502016067505, 3.922757387161255, -10.467362403869629, 8.60737133026123, -0.543701171875, -0.818359375, 0.392578125, 0, 
65, 1039962561, 0.03131818771362305, -0.7155864238739014, -0.13776683807373047, -0.6841002106666565, 9.631282806396484, 2.162428379058838, -0.5635615587234497, 4.935607433319092, -12.745274543762207, 8.118176460266113, -0.544189453125, -0.81787109375, 0.392333984375, 0, 
66, 1039970894, 0.03169427067041397, -0.7162505984306335, -0.1374461054801941, -0.6834519505500793, 9.701908111572266, 1.8910157680511475, -0.21284756064414978, 2.2991600036621094, -12.52332592010498, 8.144661903381348, -0.546630859375, -0.814453125, 0.394287109375, 0, 
67, 1039979227, 0.03208496421575546, -0.716843843460083, -0.13704527914524078, -0.6828921437263489, 9.43137264251709, 1.844096064567566, -0.4486767649650574, 1.5606757402420044, -10.911422729492188, 8.963805198669434, -0.54931640625, -0.8134765625, 0.39697265625, 0, 
68, 1039987560, 0.032718855887651443, -0.7174938321113586, -0.13679325580596924, -0.6822296977043152, 9.336698532104492, 1.4603447914123535, -0.477789968252182, 5.520765781402588, -12.07310676574707, 9.871625900268555, -0.548828125, -0.810302734375, 0.3984375, 0, 
69, 1039995893, 0.03310100734233856, -0.7180939316749573, -0.1362707018852234, -0.6816841959953308, 9.439093589782715, 1.345779538154602, -0.1752103567123413, 0.3052704930305481, -10.794236183166504, 10.093316078186035, -0.548583984375, -0.8076171875, 0.401123046875, 0, 
70, 1040004226, 0.033714935183525085, -0.7187212109565735, -0.1359797716140747, -0.681050717830658, 9.392608642578125, 1.6539733409881592, -0.84177565574646, 4.910365104675293, -11.599946022033691, 10.011209487915039, -0.552978515625, -0.810791015625, 0.398193359375, 0, 
71, 1040012559, 0.03437725454568863, -0.7194129824638367, -0.13578547537326813, -0.6803258061408997, 9.707976341247559, 1.5009188652038574, -1.0815006494522095, 6.442249298095703, -13.048379898071289, 9.732604026794434, -0.550537109375, -0.80419921875, 0.402099609375, 0, 
72, 1040020892, 0.03485143184661865, -0.7200204730033875, -0.13540375232696533, -0.6797346472740173, 9.804335594177246, 1.6485555171966553, -1.0313576459884644, 2.6121275424957275, -11.2130708694458, 9.547183990478516, -0.552734375, -0.80224609375, 0.401611328125, 0, 
73, 1040029225, 0.035522762686014175, -0.7206071019172668, -0.13507801294326782, -0.6791427731513977, 9.63818073272705, 1.9496084451675415, -1.448113203048706, 5.103188514709473, -10.672685623168945, 10.854072570800781, -0.55517578125, -0.802734375, 0.4013671875, 0, 
74, 1040037558, 0.03598964214324951, -0.7211491465568542, -0.13435842096805573, -0.6786853075027466, 9.658987998962402, 1.8520015478134155, -1.4769104719161987, -0.8332825303077698, -9.122818946838379, 12.643766403198242, -0.55810546875, -0.8017578125, 0.40283203125, 0, 
75, 1040045891, 0.03655732795596123, -0.7216465473175049, -0.13371723890304565, -0.6782527565956116, 9.614370346069336, 2.005432367324829, -1.0503971576690674, 0.8797594904899597, -8.300345420837402, 12.769402503967285, -0.557861328125, -0.80029296875, 0.4052734375, 0, 
76, 1040054224, 0.03752630203962326, -0.7221324443817139, -0.1333979368209839, -0.677745521068573, 9.49533748626709, 1.7693246603012085, -0.6079171299934387, 7.999288082122803, -8.364482879638672, 13.281891822814941, -0.55712890625, -0.79638671875, 0.405517578125, 0, 
77, 1040062557, 0.03848402574658394, -0.7226393818855286, -0.1330491304397583, -0.6772198677062988, 9.429153442382812, 1.4264990091323853, -0.7707832455635071, 7.6436614990234375, -8.74101448059082, 13.569336891174316, -0.559814453125, -0.793701171875, 0.406982421875, 0, 
78, 1040070890, 0.039266545325517654, -0.7232351303100586, -0.13270249962806702, -0.6766065955162048, 9.85819149017334, 0.7987123727798462, -0.7991114258766174, 6.030066967010498, -10.767126083374023, 12.077896118164062, -0.56005859375, -0.789794921875, 0.406982421875, 0, 
79, 1040079223, 0.0398375540971756, -0.7238235473632812, -0.13228484988212585, -0.6760254502296448, 10.099352836608887, 0.5446469187736511, -0.9890909790992737, 3.2160725593566895, -10.722644805908203, 10.832952499389648, -0.56201171875, -0.7919921875, 0.4072265625, 0, 
80, 1040087556, 0.040314771234989166, -0.7243689894676208, -0.1317996382713318, -0.6755076050758362, 10.154520988464355, 0.452282577753067, -1.0707238912582397, 1.5588823556900024, -9.831217765808105, 10.472329139709473, -0.563232421875, -0.786376953125, 0.408447265625, 0, 
81, 1040095889, 0.040412697941064835, -0.7248969078063965, -0.1310235559940338, -0.6750862002372742, 10.057830810546875, 0.1437409371137619, -1.2919167280197144, -5.082761287689209, -9.230167388916016, 9.810059547424316, -0.56494140625, -0.787841796875, 0.408935546875, 0, 
82, 1040104222, 0.039118338376283646, -0.7254049777984619, -0.12903286516666412, -0.6750002503395081, 10.095671653747559, 0.47785091400146484, -1.7224159240722656, -30.834157943725586, -7.538455009460449, 8.717287063598633, -0.5634765625, -0.783447265625, 0.410888671875, 0, 
83, 1040112555, 0.03923618048429489, -0.725795567035675, -0.1283702403306961, -0.6746999025344849, 9.806744575500488, 0.990781307220459, -2.1517622470855713, -3.971179723739624, -6.790153980255127, 8.53762149810791, -0.564697265625, -0.786376953125, 0.407470703125, 0, 
84, 1040120888, 0.03976329416036606, -0.7262025475502014, -0.1281736046075821, -0.6742681860923767, 9.801121711730957, -0.2746266722679138, -1.615837574005127, 4.652276039123535, -7.7831926345825195, 7.725010871887207, -0.5654296875, -0.783447265625, 0.4072265625, 0, 
85, 1040129221, 0.0399034358561039, -0.7265413403511047, -0.12767192721366882, -0.67399001121521, 9.866924285888672, -0.14015734195709229, -1.5228919982910156, -2.267218828201294, -6.132765293121338, 7.038011074066162, -0.5703125, -0.783935546875, 0.411376953125, 0, 
86, 1040137554, 0.03999676927924156, -0.726842999458313, -0.1272721290588379, -0.6737349629402161, 9.987266540527344, -0.15198653936386108, -1.1542689800262451, -1.8186366558074951, -5.6884870529174805, 5.443961143493652, -0.56787109375, -0.783447265625, 0.408935546875, 0, 
87, 1040145887, 0.040052980184555054, -0.7271466255187988, -0.12695713341236115, -0.6734634637832642, 10.062219619750977, -0.3579295873641968, -0.8505885004997253, -1.3674160242080688, -5.989377021789551, 4.330688953399658, -0.569580078125, -0.782958984375, 0.412353515625, 0, 
88, 1040154220, 0.0400799959897995, -0.7274700403213501, -0.12664289772510529, -0.6731716990470886, 9.94636058807373, 0.07355138659477234, -0.6794007420539856, -1.6395930051803589, -6.419645309448242, 4.02508544921875, -0.568603515625, -0.779296875, 0.413330078125, 0, 
89, 1040162553, 0.040208373218774796, -0.7278082966804504, -0.12651166319847107, -0.6728231310844421, 9.836215019226074, 0.42902958393096924, -0.5553175806999207, 1.1701992750167847, -7.0572099685668945, 3.261653423309326, -0.57080078125, -0.779541015625, 0.4111328125, 0, 
90, 1040170886, 0.040201395750045776, -0.7281596660614014, -0.12635928392410278, -0.6724717617034912, 9.670955657958984, 0.6431536674499512, -0.542908787727356, -0.394766628742218, -7.421418190002441, 2.167464256286621, -0.56689453125, -0.77734375, 0.412109375, 0, 
91, 1040179219, 0.03995278477668762, -0.7285115122795105, -0.12598176300525665, -0.6721764206886292, 9.429600715637207, 1.3711533546447754, -0.30039989948272705, -4.981098175048828, -7.169245719909668, 2.2353672981262207, -0.569580078125, -0.77734375, 0.412109375, 0, 
92, 1040187552, 0.03961874172091484, -0.7289053201675415, -0.12550155818462372, -0.6718589663505554, 9.212251663208008, 2.1446805000305176, -0.5957230925559998, -6.785006046295166, -7.864390850067139, 2.47770357131958, -0.571044921875, -0.779052734375, 0.412353515625, 0, 
93, 1040195885, 0.03892691433429718, -0.729335606098175, -0.12480469048023224, -0.6715621948242188, 9.470492362976074, 2.494901180267334, -0.6315100789070129, -12.414196968078613, -8.498754501342773, 1.4761868715286255, -0.565673828125, -0.77880859375, 0.4091796875, 0, 
94, 1040204218, 0.03812813386321068, -0.7297577857971191, -0.12413709610700607, -0.671272873878479, 9.527301788330078, 2.3394455909729004, -1.0664137601852417, -13.236491203308105, -8.545755386352539, 0.10246975719928741, -0.56982421875, -0.779541015625, 0.414794921875, 0, 
95, 1040212551, 0.037533532828092575, -0.7301391959190369, -0.12357882410287857, -0.6709946990013123, 9.583473205566406, 1.7894121408462524, -1.4434112310409546, -10.165177345275879, -7.768965244293213, 0.8884299397468567, -0.56982421875, -0.775634765625, 0.41259765625, 0, 
96, 1040220884, 0.03669416159391403, -0.730471670627594, -0.12279293686151505, -0.6708233952522278, 9.890257835388184, 1.6473886966705322, -1.7328426837921143, -14.887751579284668, -6.538712978363037, 0.7116916179656982, -0.568603515625, -0.7783203125, 0.41015625, 0, 
97, 1040229217, 0.035871464759111404, -0.7306630611419678, -0.12192495167255402, -0.6708178520202637, 10.202119827270508, 2.0964248180389404, -1.45426344871521, -15.678643226623535, -3.507934093475342, 1.4343206882476807, -0.570068359375, -0.777587890625, 0.414794921875, 0, 
98, 1040237550, 0.03525837883353233, -0.7306957244873047, -0.12101075053215027, -0.6709802150726318, 10.180313110351562, 2.888847827911377, -1.654371976852417, -14.209305763244629, 0.02712547592818737, 3.419603109359741, -0.569580078125, -0.777099609375, 0.41259765625, 0, 
99, 1040245883, 0.03472777456045151, -0.73065584897995, -0.12004101276397705, -0.6712254881858826, 9.792498588562012, 2.7669944763183594, -1.940576434135437, -13.988232612609863, 1.6841365098953247, 4.642222881317139, -0.570556640625, -0.779296875, 0.41015625, 0, 
100, 1040254216, 0.034396447241306305, -0.7305586338043213, -0.11920559406280518, -0.6714973449707031, 9.731400489807129, 2.4159889221191406, -1.115728735923767, -10.77003002166748, 2.7570393085479736, 4.970314025878906, -0.569580078125, -0.7763671875, 0.409423828125, 0, 
101, 1040262549, 0.034717436879873276, -0.7304561138153076, -0.11896556615829468, -0.6716348528862, 9.615846633911133, 1.727549433708191, -0.22277924418449402, 1.5121492147445679, 2.2332923412323, 5.122117519378662, -0.572509765625, -0.77978515625, 0.409912109375, 0, 
102, 1040270882, 0.03440528362989426, -0.7305301427841187, -0.11825788021087646, -0.6716952323913574, 9.641890525817871, 1.261425256729126, -2.6501717567443848, -9.13288402557373, -0.9704722166061401, 4.251156330108643, -0.57080078125, -0.7763671875, 0.407470703125, 0, 
103, 1040279215, 0.033793285489082336, -0.7305794954299927, -0.11713577806949615, -0.6718692779541016, 9.927179336547852, 0.2859262228012085, -1.4089105129241943, -16.13715171813965, 0.09391461312770844, 5.597236633300781, -0.570068359375, -0.77490234375, 0.40380859375, 0, 
104, 1040287548, 0.03351259231567383, -0.7307115793228149, -0.11615356057882309, -0.6719100475311279, 9.674459457397461, -0.49288949370384216, -2.2469332218170166, -11.350335121154785, -1.5238934755325317, 7.405216693878174, -0.572021484375, -0.77685546875, 0.40380859375, 0, 
105, 1040295881, 0.03317312151193619, -0.7308326959609985, -0.11495506018400192, -0.672001302242279, 9.420475959777832, -0.6778759360313416, -2.0665793418884277, -14.006662368774414, -0.9269026517868042, 9.037026405334473, -0.572265625, -0.776123046875, 0.4013671875, 0, 
106, 1040304214, 0.03308615833520889, -0.7310027480125427, -0.11401016265153885, -0.6719818115234375, 9.41124439239502, -0.3922557532787323, -1.7902486324310303, -8.981351852416992, -2.186328887939453, 8.89998722076416, -0.572021484375, -0.7744140625, 0.402099609375, 0, 
107, 1040312547, 0.032822541892528534, -0.73106849193573, -0.11286981403827667, -0.6721156239509583, 9.5664644241333, 0.508861780166626, -1.290170669555664, -12.746976852416992, 0.10833542793989182, 9.04826831817627, -0.5712890625, -0.775634765625, 0.398681640625, 0, 
108, 1040320880, 0.03247329592704773, -0.731113612651825, -0.11171814054250717, -0.6722759008407593, 9.853341102600098, 1.2006608247756958, -0.8644194006919861, -13.75622844696045, 0.4663200080394745, 8.269261360168457, -0.5712890625, -0.771728515625, 0.400390625, 0, 
109, 1040329213, 0.032138269394636154, -0.7311394214630127, -0.11064060777425766, -0.6724420189857483, 10.018145561218262, 0.9798632264137268, -0.5478144884109497, -12.914315223693848, 0.6642924547195435, 7.679904937744141, -0.572509765625, -0.773681640625, 0.39892578125, 0, 
110, 1040337546, 0.03165361285209656, -0.7312058806419373, -0.1095018982887268, -0.672579288482666, 9.967914581298828, 0.71815425157547, -0.4087512791156769, -14.97356128692627, -0.17303702235221863, 6.928678512573242, -0.571533203125, -0.77392578125, 0.3974609375, 0, 
111, 1040345879, 0.031005581840872765, -0.7312911748886108, -0.10828094184398651, -0.6727144122123718, 9.832850456237793, 0.7599652409553528, -0.36943507194519043, -17.367876052856445, -0.607505738735199, 6.331456184387207, -0.57470703125, -0.771728515625, 0.39404296875, 0, 
112, 1040354212, 0.030414072796702385, -0.7314016222953796, -0.10711328685283661, -0.6728082895278931, 9.510960578918457, 0.7026565074920654, -0.6388228535652161, -16.268741607666016, -1.168073296546936, 6.316342353820801, -0.57275390625, -0.771484375, 0.393798828125, 0, 
113, 1040362545, 0.02973785251379013, -0.7314927577972412, -0.10601199418306351, -0.6729140281677246, 9.549607276916504, 0.542807936668396, -0.6272662281990051, -16.50292205810547, -1.050491213798523, 4.887722492218018, -0.5751953125, -0.77001953125, 0.392333984375, 0, 
114, 1040370878, 0.029063507914543152, -0.7315720319747925, -0.10500966012477875, -0.6730141639709473, 9.567721366882324, 0.34467947483062744, -0.3436826467514038, -15.568257331848145, -1.0074846744537354, 3.8367183208465576, -0.573486328125, -0.77099609375, 0.389892578125, 0, 
115, 1040379211, 0.028402283787727356, -0.7316678166389465, -0.104078009724617, -0.6730829477310181, 9.547016143798828, 0.5637368559837341, -0.3817276954650879, -14.729826927185059, -1.5114706754684448, 3.34226131439209, -0.574951171875, -0.7734375, 0.389892578125, 0, 
116, 1040387544, 0.027492620050907135, -0.7318055629730225, -0.1030217856168747, -0.6731335520744324, 9.6883544921875, 0.571150541305542, -0.4833923876285553, -18.38871955871582, -2.3677291870117188, 2.3013243675231934, -0.572265625, -0.76953125, 0.38818359375, 0, 
117, 1040395877, 0.026377473026514053, -0.7319103479385376, -0.10189836472272873, -0.673235297203064, 9.792935371398926, 0.6221457123756409, -0.5843589305877686, -21.123672485351562, -1.8341463804244995, 1.0712133646011353, -0.57421875, -0.77392578125, 0.3837890625, 0, 
118, 1040404210, 0.02548356167972088, -0.731955885887146, -0.10100636631250381, -0.6733546257019043, 9.515752792358398, 0.5736697316169739, -0.3594505488872528, -16.769054412841797, -0.8640707731246948, 0.6372438669204712, -0.572021484375, -0.771484375, 0.38525390625, 0, 
119, 1040412543, 0.02462342381477356, -0.7320507764816284, -0.1002291589975357, -0.6733996272087097, 9.301409721374512, 0.3754030764102936, -0.1150113195180893, -15.26900577545166, -2.08133602142334, -0.04623369872570038, -0.572021484375, -0.770263671875, 0.38427734375, 0, 
120, 1040420876, 0.02334192395210266, -0.7322351932525635, -0.09919098764657974, -0.6733984351158142, 9.499241828918457, 0.407510906457901, -0.5822004675865173, -21.90658187866211, -3.8514862060546875, -1.2496933937072754, -0.574951171875, -0.771240234375, 0.383544921875, 0, 
121, 1040429209, 0.02205817401409149, -0.732384979724884, -0.09817706048488617, -0.6734273433685303, 9.595552444458008, 0.1566963642835617, -0.2921094298362732, -21.723054885864258, -3.2562360763549805, -1.5036330223083496, -0.572998046875, -0.772216796875, 0.38525390625, 0, 
122, 1040437542, 0.02087259106338024, -0.7326289415359497, -0.0972696989774704, -0.6733317375183105, 9.592072486877441, -0.2498215287923813, -0.1452614963054657, -19.618730545043945, -5.2667622566223145, -1.5739054679870605, -0.574462890625, -0.774169921875, 0.385009765625, 0, 
123, 1040445875, 0.01977718248963356, -0.7328700423240662, -0.0964234322309494, -0.6732240319252014, 9.410782814025879, -0.13431018590927124, -0.22094886004924774, -18.115251541137695, -5.274036884307861, -1.2829021215438843, -0.57080078125, -0.773681640625, 0.38037109375, 0, 
124, 1040454208, 0.01901806890964508, -0.7331714034080505, -0.09593847393989563, -0.6729868054389954, 9.427040100097656, -0.18959182500839233, -0.47674986720085144, -11.238938331604004, -6.779038429260254, -1.7735042572021484, -0.573486328125, -0.77685546875, 0.379638671875, 0, 
125, 1040462541, 0.018118053674697876, -0.7334502935409546, -0.09552522748708725, -0.6727664470672607, 9.687044143676758, -0.04624224454164505, -0.4942089319229126, -12.000655174255371, -6.616261005401611, -3.758044481277466, -0.570068359375, -0.775390625, 0.37939453125, 0, 
126, 1040470874, 0.01709899492561817, -0.7337084412574768, -0.09510776400566101, -0.6725707650184631, 9.727246284484863, 0.4025745689868927, -0.5067089200019836, -13.280074119567871, -6.322528839111328, -4.9326491355896, -0.570556640625, -0.775146484375, 0.38134765625, 0, 
127, 1040479207, 0.016135385259985924, -0.7339808940887451, -0.0946962982416153, -0.6723552942276001, 9.627176284790039, 1.0331698656082153, -0.6010066866874695, -12.62960147857666, -6.590582847595215, -4.3743367195129395, -0.56982421875, -0.7763671875, 0.380859375, 0, 
128, 1040487540, 0.015049933455884457, -0.7341921925544739, -0.09416953474283218, -0.6722238063812256, 9.665084838867188, 1.9186617136001587, -0.4953269064426422, -15.0352783203125, -5.3084492683410645, -4.521733283996582, -0.5673828125, -0.778076171875, 0.380126953125, 0, 
129, 1040495873, 0.013803021982312202, -0.7343950271606445, -0.0935351550579071, -0.6721175312995911, 9.730916023254395, 2.9704110622406006, -0.7499321699142456, -17.67572021484375, -5.165393352508545, -4.857971668243408, -0.57275390625, -0.78076171875, 0.380126953125, 0, 
130, 1040504206, 0.01283152773976326, -0.7345969676971436, -0.09304981678724289, -0.6719835996627808, 9.810982704162598, 3.2406363487243652, -1.0220762491226196, -13.495248794555664, -5.108171463012695, -3.89628529548645, -0.568115234375, -0.77783203125, 0.378662109375, 0, 
131, 1040512539, 0.012168853543698788, -0.7347735166549683, -0.09276720881462097, -0.6718418002128601, 9.829119682312012, 2.603828191757202, -1.0949671268463135, -8.475443840026855, -4.595808506011963, -3.0397183895111084, -0.57275390625, -0.778076171875, 0.3818359375, 0, 
132, 1040520872, 0.011843119747936726, -0.7348716259002686, -0.09273022413253784, -0.6717455983161926, 9.892930030822754, 2.0888936519622803, -1.0328664779663086, -2.85874080657959, -3.018087148666382, -2.5851807594299316, -0.568359375, -0.78125, 0.3818359375, 0, 
133, 1040529205, 0.011938725598156452, -0.7348546981811523, -0.092971071600914, -0.6717292070388794, 9.79639720916748, 2.249316692352295, -1.0014647245407104, 3.8961687088012695, -0.6615645289421082, -1.590925931930542, -0.568115234375, -0.777099609375, 0.380615234375, 0, 
134, 1040537538, 0.012065946124494076, -0.7346888184547424, -0.09321770071983337, -0.6718739867210388, 9.942639350891113, 2.7554996013641357, -0.7134119272232056, 4.076441287994385, 2.388155937194824, -1.6352384090423584, -0.569091796875, -0.77783203125, 0.383056640625, 0, 
135, 1040545871, 0.012109054252505302, -0.7344501614570618, -0.09351685643196106, -0.6720925569534302, 10.207586288452148, 2.972752094268799, -0.6013771891593933, 3.6388728618621826, 3.6836726665496826, -2.9877209663391113, -0.57080078125, -0.778076171875, 0.385009765625, 0, 
136, 1040554204, 0.012131715193390846, -0.7341192960739136, -0.09365007281303406, -0.6724350452423096, 10.195093154907227, 2.522207021713257, -0.6246709823608398, 1.7485432624816895, 5.794159412384033, -1.6915388107299805, -0.568603515625, -0.77783203125, 0.378662109375, 0, 
137, 1040562537, 0.010960932821035385, -0.7341287136077881, -0.09253451973199844, -0.6725993156433105, 9.743148803710938, 1.0743967294692993, -1.1977678537368774, -21.666038513183594, -0.48446783423423767, 0.3987240791320801, -0.568603515625, -0.78125, 0.377685546875, 0, 
138, 1040570870, 0.009232006967067719, -0.7341569066047668, -0.09081168472766876, -0.6728292107582092, 9.626952171325684, 0.32615017890930176, -2.203352212905884, -33.00982666015625, -0.6147806644439697, 1.3393185138702393, -0.56787109375, -0.77880859375, 0.377197265625, 0, 
139, 1040579203, 0.009067969396710396, -0.7341903448104858, -0.09027312695980072, -0.6728675961494446, 9.398283958435059, -0.6709093451499939, -2.577049970626831, -6.010469913482666, -0.7935931086540222, 3.93462872505188, -0.56494140625, -0.7802734375, 0.374267578125, 0, 
140, 1040587536, 0.009138491936028004, -0.7342882752418518, -0.08967798203229904, -0.6728391051292419, 9.297523498535156, -0.6993507742881775, -3.0256237983703613, -4.097804546356201, -1.7589937448501587, 6.721662998199463, -0.56689453125, -0.779541015625, 0.37646484375, 0, 
141, 1040595869, 0.009112892672419548, -0.7343592047691345, -0.08902037143707275, -0.6728494763374329, 9.49281120300293, 0.5429794192314148, -2.3483355045318604, -5.684041976928711, -1.2354387044906616, 6.468055725097656, -0.56884765625, -0.778076171875, 0.3740234375, 0, 
142, 1040604202, 0.009413511492311954, -0.734272301197052, -0.08861462026834488, -0.672993540763855, 9.579421997070312, 1.4669350385665894, -0.5502523183822632, -0.21320007741451263, 1.9633311033248901, 6.679603099822998, -0.56689453125, -0.780517578125, 0.376220703125, 0, 
143, 1040612535, 0.009384837001562119, -0.7340892553329468, -0.08790820091962814, -0.6732863187789917, 9.19722843170166, 2.209007740020752, -0.3613501787185669, -6.479427814483643, 3.9698610305786133, 6.584690093994141, -0.56884765625, -0.77734375, 0.3720703125, 0, 
144, 1040620868, 0.009259246289730072, -0.7339956164360046, -0.08722186088562012, -0.6734792590141296, 9.080723762512207, 1.7993791103363037, 0.09281294792890549, -7.174497604370117, 2.040135622024536, 5.5523858070373535, -0.568115234375, -0.77978515625, 0.369384765625, 0, 
145, 1040629201, 0.008795004338026047, -0.7339877486228943, -0.08648078888654709, -0.673589825630188, 9.629962921142578, 0.5638916492462158, 0.19127985835075378, -11.000226020812988, -0.00890094693750143, 3.1366169452667236, -0.569580078125, -0.77392578125, 0.3681640625, 0, 
146, 1040637534, 0.008245263248682022, -0.734033465385437, -0.08578670024871826, -0.6736358404159546, 9.93002700805664, -0.07693153619766235, -0.6724638938903809, -11.3652925491333, -1.245569109916687, 1.8938783407211304, -0.570068359375, -0.7763671875, 0.366943359375, 0, 
147, 1040645867, 0.007839002646505833, -0.7341719269752502, -0.08508994430303574, -0.6735780835151672, 9.864225387573242, 0.0897890254855156, -1.1234103441238403, -9.821907997131348, -3.0013997554779053, 3.4179000854492188, -0.571533203125, -0.774658203125, 0.368408203125, 0, 
148, 1040654200, 0.00761973625048995, -0.7343155741691589, -0.08433818072080612, -0.6735184788703918, 9.636960983276367, 0.9992245435714722, -1.2074081897735596, -8.453108787536621, -2.8286828994750977, 5.661169528961182, -0.57080078125, -0.77734375, 0.36767578125, 0, 
149, 1040662533, 0.007315247785300016, -0.7344930768013, -0.0834529921412468, -0.6734384894371033, 9.457135200500488, 1.735774278640747, -0.8190967440605164, -10.517206192016602, -3.445729970932007, 6.311310291290283, -0.56982421875, -0.776611328125, 0.365966796875, 0, 
150, 1040670866, 0.006667948327958584, -0.7345996499061584, -0.08232804387807846, -0.6734675168991089, 9.315540313720703, 2.1414034366607666, -0.6532576084136963, -16.3286190032959, -2.042659044265747, 5.411457538604736, -0.56640625, -0.7724609375, 0.3671875, 0, 
151, 1040679199, 0.005918646231293678, -0.7347059845924377, -0.08122313022613525, -0.6734926104545593, 9.097126007080078, 1.5286979675292969, -0.19844231009483337, -17.158647537231445, -2.2125837802886963, 4.319060325622559, -0.568359375, -0.77490234375, 0.367431640625, 0, 
152, 1040687532, 0.005089977756142616, -0.734836220741272, -0.08019557595252991, -0.6734804511070251, 9.174613952636719, 0.5841072797775269, -0.13544540107250214, -17.21621322631836, -2.8912456035614014, 2.783524990081787, -0.5703125, -0.775146484375, 0.362060546875, 0, 
153, 1040695865, 0.004313808865845203, -0.7349786758422852, -0.07937180250883102, -0.6734279990196228, 9.532960891723633, 0.2953983247280121, -0.5667870044708252, -14.743979454040527, -3.3839614391326904, 1.2754099369049072, -0.571044921875, -0.772705078125, 0.365234375, 0, 
154, 1040704198, 0.0038356417790055275, -0.7350785732269287, -0.07893973588943481, -0.673372745513916, 9.942434310913086, 0.2433175891637802, -0.7058418989181519, -8.106968879699707, -2.7018020153045654, -0.01607293076813221, -0.5693359375, -0.77880859375, 0.361572265625, 0, 
155, 1040712531, 0.0036392463371157646, -0.7350794076919556, -0.0788799375295639, -0.6733798980712891, 9.970398902893066, 0.42706534266471863, -0.30331045389175415, -1.8650877475738525, -0.8802716732025146, -1.2351568937301636, -0.57275390625, -0.7763671875, 0.36181640625, 0, 
156, 1040720864, 0.003662942908704281, -0.7349769473075867, -0.07905551791191101, -0.6734710335731506, 9.571680068969727, 0.9303042888641357, -0.26577192544937134, 2.439896821975708, 1.1592105627059937, -1.7424851655960083, -0.56787109375, -0.77490234375, 0.363037109375, 0, 
157, 1040729197, 0.0034565525129437447, -0.7348549962043762, -0.07922165840864182, -0.6735856533050537, 9.489006996154785, 0.959287703037262, -0.3749725818634033, 0.015727141872048378, 1.3213871717453003, -3.7507050037384033, -0.566162109375, -0.774658203125, 0.361572265625, 0, 
158, 1040737530, 0.0029950449243187904, -0.7346832156181335, -0.07937877625226974, -0.6737567186355591, 9.693595886230469, 0.6118952035903931, -0.45011988282203674, -2.7138924598693848, 2.0788514614105225, -6.131292819976807, -0.569580078125, -0.777587890625, 0.364501953125, 0, 
159, 1040745863, 0.002129536122083664, -0.7346746325492859, -0.07929131388664246, -0.6737797260284424, 9.573896408081055, -0.07938802242279053, -1.0772634744644165, -8.899089813232422, -1.363791584968567, -7.167107105255127, -0.5693359375, -0.775634765625, 0.36279296875, 0, 
160, 1040754196, -0.00006595160812139511, -0.7351178526878357, -0.0780516266822815, -0.6734441518783569, 9.791492462158203, -0.6932604312896729, -2.497485399246216, -32.637786865234375, -10.587437629699707, -7.399333477020264, -0.565673828125, -0.7822265625, 0.3603515625, 0, 
161, 1040762529, -0.001493413932621479, -0.7354050874710083, -0.0773376002907753, -0.6732114553451538, 9.903352737426758, -0.8533740043640137, -2.0326714515686035, -20.111881256103516, -7.279298782348633, -5.714166641235352, -0.569580078125, -0.779052734375, 0.35986328125, 0, 
162, 1040770862, -0.00210421159863472, -0.7356736063957214, -0.07725074142217636, -0.6729261875152588, 9.427667617797852, -1.2589751482009888, -2.559475898742676, -5.99946928024292, -6.749658584594727, -4.579671859741211, -0.5712890625, -0.781982421875, 0.359130859375, 0, 
163, 1040779195, -0.002740788273513317, -0.7359752058982849, -0.07715900987386703, -0.6726046204566956, 9.610936164855957, -1.0770848989486694, -2.456338882446289, -6.25778865814209, -7.458994388580322, -4.672600746154785, -0.564208984375, -0.779541015625, 0.36279296875, 0, 
164, 1040787528, -0.0026947027072310448, -0.7361671328544617, -0.07773808389902115, -0.6723281741142273, 9.476634979248047, -0.8210821151733398, -1.8354287147521973, 6.792216777801514, -5.2202582359313965, -5.337315082550049, -0.563720703125, -0.779541015625, 0.364990234375, 0, 
165, 1040795861, -0.0020909709855914116, -0.736390233039856, -0.07886779308319092, -0.6719545125961304, 9.393643379211426, -1.5127761363983154, -1.502395510673523, 17.645511627197266, -5.891327857971191, -5.649989604949951, -0.568359375, -0.778564453125, 0.364501953125, 0, 
166, 1040804194, -0.0006904713809490204, -0.7366358637809753, -0.0807589516043663, -0.6714630722999573, 9.607134819030762, -1.9111354351043701, -1.3183770179748535, 32.86072540283203, -6.386275291442871, -6.064815998077393, -0.56640625, -0.779541015625, 0.365234375, 0, 
167, 1040812527, 0.0014676284044981003, -0.7368590235710144, -0.0832756906747818, -0.6709092259407043, 9.737601280212402, -1.7339707612991333, -1.2012977600097656, 46.39762496948242, -5.985085487365723, -5.344574451446533, -0.5693359375, -0.77978515625, 0.37255859375, 0, 
168, 1040820860, 0.004000244662165642, -0.7371220588684082, -0.08610329777002335, -0.6702526807785034, 9.57296085357666, -0.6584985852241516, -1.3279330730438232, 53.15816879272461, -6.946957111358643, -5.09535026550293, -0.568603515625, -0.776611328125, 0.375244140625, 0, 
169, 1040829193, 0.006014339625835419, -0.7374799847602844, -0.08837255835533142, -0.6695480346679688, 9.38736343383789, 0.9601706862449646, -0.7577336430549622, 42.82536697387695, -8.91671371459961, -3.997722625732422, -0.56982421875, -0.777587890625, 0.37890625, 0, 
170, 1040837526, 0.007682229392230511, -0.7377880215644836, -0.090171217918396, -0.6689518690109253, 9.126651763916016, 2.728140115737915, -0.9103754162788391, 34.83505630493164, -7.714786052703857, -2.595954179763794, -0.564453125, -0.77978515625, 0.387939453125, 0, 
171, 1040845859, 0.009428711608052254, -0.7381339073181152, -0.09220987558364868, -0.6682698726654053, 9.320068359375, 3.556238889694214, -0.64508056640625, 37.96204376220703, -8.885357856750488, -4.138010501861572, -0.570556640625, -0.77587890625, 0.387939453125, 0, 
172, 1040854192, 0.010645199567079544, -0.7383916974067688, -0.09397774934768677, -0.6677200794219971, 9.87350845336914, 3.200322151184082, 0.014181459322571754, 29.91705894470215, -7.350088596343994, -6.498927116394043, -0.5693359375, -0.77587890625, 0.389892578125, 0, 
173, 1040862525, 0.011675970628857613, -0.7385860681533813, -0.09563983976840973, -0.6672516465187073, 9.656580924987793, 2.392706871032715, -0.4075491428375244, 26.984752655029297, -6.185969829559326, -7.1130523681640625, -0.569091796875, -0.778564453125, 0.394775390625, 0, 
174, 1040870858, 0.012479299679398537, -0.7389878630638123, -0.09708670526742935, -0.6665830016136169, 9.432991981506348, 1.0391901731491089, -0.36154279112815857, 22.914379119873047, -10.371453285217285, -6.8051042556762695, -0.571044921875, -0.7763671875, 0.39892578125, 0, 
175, 1040879191, 0.013049258850514889, -0.7395538091659546, -0.09829454123973846, -0.6657668948173523, 9.552308082580566, 0.20879462361335754, -0.6534178853034973, 18.53640365600586, -13.66248607635498, -6.174955368041992, -0.568359375, -0.7734375, 0.40673828125, 0, 
176, 1040887524, 0.014065009541809559, -0.7400590181350708, -0.09988311678171158, -0.6649478077888489, 9.600348472595215, 0.2780687212944031, -1.1476835012435913, 26.551773071289062, -12.590763092041016, -6.139044761657715, -0.570068359375, -0.775634765625, 0.40625, 0, 
177, 1040895857, 0.015292744152247906, -0.740768551826477, -0.1018528938293457, -0.6638308167457581, 9.86210823059082, 0.19700407981872559, -1.6303884983062744, 32.58354187011719, -17.284202575683594, -7.649726390838623, -0.570068359375, -0.774169921875, 0.40869140625, 0, 
178, 1040904190, 0.016391664743423462, -0.7414571642875671, -0.10368508100509644, -0.6627514362335205, 10.261494636535645, 0.4737555682659149, -1.8804235458374023, 29.950639724731445, -16.84967613220215, -7.558691024780273, -0.5693359375, -0.7763671875, 0.41357421875, 0, 
179, 1040912523, 0.01790953241288662, -0.7420111894607544, -0.10561016201972961, -0.6617875099182129, 10.111411094665527, 0.6189561486244202, -1.599389672279358, 34.95064163208008, -13.881536483764648, -4.808451175689697, -0.575439453125, -0.77587890625, 0.420654296875, 0, 
180, 1040920856, 0.01971105858683586, -0.7427394986152649, -0.10764649510383606, -0.6605899930000305, 9.716704368591309, 0.28192394971847534, -2.116525173187256, 39.1376953125, -17.4537353515625, -3.1529769897460938, -0.572021484375, -0.77099609375, 0.4248046875, 0, 
181, 1040929189, 0.02171672135591507, -0.743267297744751, -0.10979902744293213, -0.6595785021781921, 9.98465633392334, -0.10226485878229141, -2.6561312675476074, 42.07383346557617, -13.472968101501465, -2.7309558391571045, -0.574951171875, -0.77099609375, 0.426513671875, 0, 
182, 1040937522, 0.024435725063085556, -0.7435647249221802, -0.11223575472831726, -0.6587374806404114, 9.652132034301758, -0.7063877582550049, -2.470365285873413, 51.734039306640625, -8.63720417022705, 0.3316795229911804, -0.575927734375, -0.76904296875, 0.430908203125, 0, 
183, 1040945855, 0.026387033984065056, -0.7437008619308472, -0.11378052085638046, -0.6582432985305786, 9.45179271697998, -1.0477545261383057, -2.5379114151000977, 35.34315872192383, -4.528345584869385, 2.2360098361968994, -0.57177734375, -0.76708984375, 0.43798828125, 0, 
184, 1040954188, 0.027798250317573547, -0.7435626983642578, -0.1148742139339447, -0.6581512689590454, 9.299317359924316, 1.1091272830963135, -3.0514018535614014, 25.182636260986328, 1.4058506488800049, 1.2715296745300293, -0.57568359375, -0.768310546875, 0.43701171875, 0, 
185, 1040962521, 0.03127308934926987, -0.7433143258094788, -0.11763109266757965, -0.6577888131141663, 8.770560264587402, 1.9450597763061523, -2.629920721054077, 61.82965850830078, 2.2410099506378174, 2.985234022140503, -0.57470703125, -0.766357421875, 0.43896484375, 0, 
186, 1040970854, 0.03593280538916588, -0.7429946064949036, -0.1214638352394104, -0.6572151780128479, 8.777061462402344, 0.8611264228820801, -1.6644238233566284, 84.0189208984375, 2.2128148078918457, 2.561734437942505, -0.575927734375, -0.76123046875, 0.447509765625, 0, 
187, 1040979187, 0.03934535011649132, -0.742624819278717, -0.1242508813738823, -0.656916618347168, 8.894500732421875, 1.3544484376907349, -0.5776260495185852, 61.416568756103516, 3.880031108856201, 1.8738664388656616, -0.581787109375, -0.75927734375, 0.450439453125, 0, 
188, 1040987520, 0.04133109003305435, -0.7424654960632324, -0.12572047114372253, -0.6566951274871826, 8.794768333435059, 3.2766387462615967, -0.6836706399917603, 34.672576904296875, 1.070765733718872, 2.642225980758667, -0.577880859375, -0.75634765625, 0.450927734375, 0, 
189, 1040995853, 0.041752636432647705, -0.7425149083137512, -0.12614776194095612, -0.6565306782722473, 9.982791900634766, 4.897970676422119, 0.035097263753414154, 9.09949779510498, -2.3717761039733887, -0.39743053913116455, -0.579833984375, -0.760498046875, 0.4541015625, 0, 
190, 1041004186, 0.04265115037560463, -0.7420269250869751, -0.1269310861825943, -0.6568735837936401, 10.491649627685547, 5.40186882019043, 1.044960856437683, 16.58917808532715, 8.306071281433105, -1.0590720176696777, -0.578369140625, -0.75732421875, 0.45361328125, 0, 
191, 1041012519, 0.045384086668491364, -0.7420968413352966, -0.12937860190868378, -0.656133770942688, 9.68446159362793, 2.67855167388916, 0.7333544492721558, 51.92628860473633, -5.580868721008301, 0.24752376973628998, -0.5810546875, -0.756103515625, 0.453125, 0, 
192, 1041020852, 0.047689344733953476, -0.7424982190132141, -0.13177214562892914, -0.6550387740135193, 9.942361831665039, 0.2684042751789093, -0.6480344533920288, 47.479610443115234, -12.908935546875, -2.33184814453125, -0.580078125, -0.754638671875, 0.46337890625, 0, 
193, 1041029185, 0.04883561283349991, -0.742769718170166, -0.13336409628391266, -0.654323935508728, 10.266369819641113, 0.22494010627269745, -1.955680251121521, 27.842079162597656, -9.445064544677734, -4.989670276641846, -0.58154296875, -0.75244140625, 0.467041015625, 0, 
194, 1041037518, 0.049732647836208344, -0.7428611516952515, -0.1344144493341446, -0.6539373993873596, 10.122530937194824, 1.1960461139678955, -2.459763288497925, 19.922576904296875, -4.560756683349609, -2.331216335296631, -0.5810546875, -0.75439453125, 0.46826171875, 0, 
195, 1041045851, 0.050352878868579865, -0.7429095506668091, -0.13493609428405762, -0.6537274718284607, 9.792564392089844, 1.7753241062164307, -2.191948890686035, 12.06326675415039, -2.524590253829956, 0.46135082840919495, -0.58251953125, -0.75390625, 0.46533203125, 0, 
196, 1041054184, 0.050773363560438156, -0.7428013682365417, -0.13513174653053284, -0.6537776589393616, 9.49111557006836, 2.138382911682129, -1.7297050952911377, 6.700132846832275, 1.404261827468872, 1.442683219909668, -0.584228515625, -0.752197265625, 0.468017578125, 0, 
197, 1041062517, 0.05157595872879028, -0.7428117990493774, -0.135776549577713, -0.6535693407058716, 9.441017150878906, 1.2125910520553589, -1.4641354084014893, 15.054910659790039, -1.9140751361846924, 0.7735372185707092, -0.582275390625, -0.75, 0.47021484375, 0, 
198, 1041070850, 0.052064090967178345, -0.7428970336914062, -0.13632813096046448, -0.6533188819885254, 9.822748184204102, 0.17752313613891602, -1.58885657787323, 11.014455795288086, -3.525761127471924, -1.0069596767425537, -0.583251953125, -0.74853515625, 0.471435546875, 0, 
199, 1041079183, 0.052112333476543427, -0.7430436611175537, -0.13664768636226654, -0.653081476688385, 10.032665252685547, 0.28957799077033997, -2.2982070446014404, 4.38423490524292, -4.61610746383667, -2.40705943107605, -0.584716796875, -0.74951171875, 0.47119140625, 0, 
200, 1041087516, 0.05213972181081772, -0.7431568503379822, -0.1368621438741684, -0.6529054641723633, 10.240212440490723, 0.7043378949165344, -2.2221148014068604, 3.119621515274048, -3.637579917907715, -1.7048578262329102, -0.580322265625, -0.74853515625, 0.47021484375, 0, 
201, 1041095849, 0.0522807277739048, -0.7431288957595825, -0.13700635731220245, -0.6528958678245544, 9.832365989685059, 1.4092313051223755, -2.5383052825927734, 3.4543232917785645, -0.4204064607620239, -0.27494320273399353, -0.58349609375, -0.748779296875, 0.475341796875, 0, 
202, 1041104182, 0.052604325115680695, -0.7430238723754883, -0.13718006014823914, -0.6529529094696045, 9.536703109741211, 1.470365285873413, -2.417222738265991, 5.496853351593018, 1.296938419342041, 0.7912365794181824, -0.584228515625, -0.751220703125, 0.47021484375, 0, 
203, 1041112515, 0.05297480523586273, -0.7428287267684937, -0.13723692297935486, -0.6531330943107605, 9.42047119140625, 1.5152512788772583, -1.8543992042541504, 4.778079986572266, 3.51668119430542, 2.225877046585083, -0.585693359375, -0.750244140625, 0.47119140625, 0, 
204, 1041120848, 0.053500428795814514, -0.742522120475769, -0.13733679056167603, -0.6534177660942078, 9.321135520935059, 1.740981936454773, -1.8573294878005981, 6.612482070922852, 5.868670463562012, 2.8172719478607178, -0.581298828125, -0.75048828125, 0.46826171875, 0, 
205, 1041129181, 0.05421135947108269, -0.7422001957893372, -0.13768398761749268, -0.6536519527435303, 9.5419282913208, 1.43180513381958, -1.7025226354599, 10.854377746582031, 5.636732578277588, 2.0417234897613525, -0.582275390625, -0.752197265625, 0.468505859375, 0, 
206, 1041137514, 0.05505995452404022, -0.7419156432151794, -0.1381765753030777, -0.6537997722625732, 9.67612075805664, 0.8967589139938354, -1.76313316822052, 13.682549476623535, 4.598511219024658, 1.85873544216156, -0.583251953125, -0.74853515625, 0.471435546875, 0, 
207, 1041145847, 0.05596205219626427, -0.7415194511413574, -0.1386241912841797, -0.6540780663490295, 9.73633098602295, 0.699974000453949, -1.4564547538757324, 13.680374145507812, 7.041879653930664, 2.559157133102417, -0.583740234375, -0.747314453125, 0.470947265625, 0, 
208, 1041154180, 0.05682254582643509, -0.7411143779754639, -0.13897964358329773, -0.654387354850769, 9.695659637451172, 0.9641994833946228, -1.189650535583496, 12.358011245727539, 7.45903205871582, 3.011427402496338, -0.58642578125, -0.749267578125, 0.466796875, 0, 
209, 1041162513, 0.05750595033168793, -0.7408185005187988, -0.13912400603294373, -0.654632031917572, 9.640993118286133, 1.3579437732696533, -0.7633017301559448, 8.707316398620605, 5.6147308349609375, 3.900599956512451, -0.586669921875, -0.746826171875, 0.469482421875, 0, 
210, 1041170846, 0.05779803544282913, -0.7405417561531067, -0.13891910016536713, -0.6549627780914307, 9.602370262145996, 1.877811312675476, -0.08798208087682724, 1.3815933465957642, 5.876763343811035, 3.834463119506836, -0.587890625, -0.74853515625, 0.468505859375, 0, 
211, 1041179179, 0.057744044810533524, -0.7404276132583618, -0.13860511779785156, -0.655163049697876, 9.532683372497559, 2.0166046619415283, -0.32251715660095215, -2.990013837814331, 2.4787917137145996, 2.313093423843384, -0.584716796875, -0.746826171875, 0.46484375, 0, 
212, 1041187512, 0.057385824620723724, -0.7406854629516602, -0.13820961117744446, -0.6549866795539856, 9.897801399230957, 1.7494837045669556, -0.2464330494403839, -6.412510871887207, -5.198805809020996, 1.3423395156860352, -0.585205078125, -0.749267578125, 0.466552734375, 0, 
213, 1041195845, 0.056453291326761246, -0.7409714460372925, -0.13723374903202057, -0.654949426651001, 9.87356185913086, 2.433441638946533, -0.9053983688354492, -17.760698318481445, -4.692721366882324, 2.0919666290283203, -0.581787109375, -0.747802734375, 0.46630859375, 0, 
214, 1041204178, 0.05584317073225975, -0.7412569522857666, -0.13639818131923676, -0.6548532247543335, 9.415078163146973, 2.2107131481170654, -1.4066336154937744, -13.115640640258789, -4.77190637588501, 3.5509912967681885, -0.587158203125, -0.7490234375, 0.4677734375, 0, 
215, 1041212511, 0.05531374737620354, -0.7415879964828491, -0.13564883172512054, -0.6546790599822998, 9.634469985961914, 1.5057222843170166, -1.781626582145691, -11.390907287597656, -5.909255027770996, 3.604448080062866, -0.5859375, -0.748291015625, 0.466552734375, 0, 
216, 1041220844, 0.0550151988863945, -0.7417927980422974, -0.13492248952388763, -0.6546222567558289, 9.675765037536621, 1.1480906009674072, -1.9167089462280273, -8.965919494628906, -3.143981456756592, 5.069903373718262, -0.58740234375, -0.75048828125, 0.4697265625, 0, 
217, 1041229177, 0.05496824532747269, -0.7419173717498779, -0.13421644270420074, -0.654630184173584, 9.56513500213623, 0.6897704005241394, -1.9123585224151611, -6.262693881988525, -1.327880620956421, 6.983388900756836, -0.58935546875, -0.7470703125, 0.46728515625, 0, 
218, 1041237510, 0.0548282153904438, -0.7419796586036682, -0.13338060677051544, -0.6547421216964722, 9.71522045135498, 0.6474544405937195, -1.9310091733932495, -8.538134574890137, 0.23795627057552338, 7.227543354034424, -0.5849609375, -0.748046875, 0.461669921875, 0, 
219, 1041245843, 0.05471671000123024, -0.7419207096099854, -0.13247773051261902, -0.6550016403198242, 9.84025764465332, 0.6929683089256287, -1.3668900728225708, -9.016851425170898, 2.921956777572632, 7.882486820220947, -0.5869140625, -0.745849609375, 0.462890625, 0, 
220, 1041254176, 0.05471574515104294, -0.741838276386261, -0.1316327005624771, -0.6552652716636658, 9.713669776916504, 0.5918695330619812, -1.2233214378356934, -7.371611595153809, 3.3545432090759277, 8.192612648010254, -0.586181640625, -0.744384765625, 0.4609375, 0, 
221, 1041262509, 0.05458815395832062, -0.741817831993103, -0.13077698647975922, -0.6554703116416931, 9.697012901306152, 0.24134519696235657, -1.1348708868026733, -8.688029289245605, 1.9538798332214355, 7.367731094360352, -0.589111328125, -0.74560546875, 0.462890625, 0, 
222, 1041270842, 0.05439482256770134, -0.7418063282966614, -0.1299196481704712, -0.6556699872016907, 9.47366714477539, 0.014225807972252369, -0.9628812670707703, -9.382943153381348, 1.7234796285629272, 6.758572578430176, -0.587646484375, -0.7431640625, 0.459228515625, 0, 
223, 1041279175, 0.05422047898173332, -0.7419259548187256, -0.1292954832315445, -0.6556726098060608, 9.550301551818848, -0.2662416696548462, -0.9820271730422974, -6.819521903991699, -1.6309224367141724, 4.985785484313965, -0.592041015625, -0.746826171875, 0.46044921875, 0, 
224, 1041287508, 0.0537382997572422, -0.7420485615730286, -0.128503680229187, -0.655728816986084, 9.706541061401367, -0.2596459686756134, -0.9364848136901855, -11.583551406860352, -1.5117008686065674, 3.8308780193328857, -0.588623046875, -0.741455078125, 0.46142578125, 0, 
225, 1041295841, 0.05332757905125618, -0.7421649098396301, -0.12788569927215576, -0.6557514667510986, 9.742563247680664, -0.22646479308605194, -1.1823686361312866, -9.207843780517578, -1.8200322389602661, 2.7696926593780518, -0.591552734375, -0.7421875, 0.4580078125, 0, 
226, 1041304174, 0.05298541113734245, -0.7422813177108765, -0.12747988104820251, -0.6557265520095825, 10.007765769958496, -0.5679053664207458, -1.016264796257019, -6.526263236999512, -2.3254523277282715, 1.1956723928451538, -0.592041015625, -0.743896484375, 0.45849609375, 0, 
227, 1041312507, 0.052501413971185684, -0.7423668503761292, -0.12700802087783813, -0.6557603478431702, 9.737984657287598, -0.7454814314842224, -0.8219042420387268, -8.636518478393555, -1.665117621421814, 0.5559826493263245, -0.5908203125, -0.74169921875, 0.456298828125, 0, 
228, 1041320840, 0.052082404494285583, -0.7424805164337158, -0.12664474546909332, -0.6557351350784302, 9.342055320739746, -0.561269223690033, -1.1405037641525269, -6.927229404449463, -2.4697630405426025, 0.056274477392435074, -0.59033203125, -0.744384765625, 0.454833984375, 0, 
229, 1041329173, 0.051594387739896774, -0.7425904870033264, -0.12646342813968658, -0.6556841731071472, 9.441513061523438, -0.43731990456581116, -1.1170700788497925, -5.927095413208008, -2.9662435054779053, -2.342050313949585, -0.590576171875, -0.7431640625, 0.453857421875, 0, 
230, 1041337506, 0.05085822567343712, -0.7426896095275879, -0.12619778513908386, -0.6556807160377502, 9.514251708984375, 0.05917074903845787, -1.02912175655365, -9.31132698059082, -2.7387640476226807, -3.8501148223876953, -0.588134765625, -0.74609375, 0.455810546875, 0, 
231, 1041345839, 0.050181180238723755, -0.7427530884742737, -0.12595722079277039, -0.6557071805000305, 9.374140739440918, 0.6192127466201782, -1.086045742034912, -8.493438720703125, -2.0426971912384033, -3.5763237476348877, -0.588623046875, -0.74365234375, 0.456787109375, 0, 
232, 1041354172, 0.049348220229148865, -0.7428205609321594, -0.12558916211128235, -0.6557647585868835, 9.332387924194336, 1.0025607347488403, -0.8705174326896667, -11.309698104858398, -1.9294050931930542, -3.7792396545410156, -0.5869140625, -0.744873046875, 0.45703125, 0, 
233, 1041362505, 0.048143014311790466, -0.7430621981620789, -0.12510265409946442, -0.6556734442710876, 9.296992301940918, 1.6104336977005005, -1.1144951581954956, -16.023334503173828, -5.597390651702881, -5.439120292663574, -0.586669921875, -0.748046875, 0.453857421875, 0, 
234, 1041370838, 0.04657486081123352, -0.7434402704238892, -0.12428925931453705, -0.6555129289627075, 9.718491554260254, 2.247633934020996, -0.7673584818840027, -22.668325424194336, -7.930810928344727, -5.176408767700195, -0.585205078125, -0.749755859375, 0.455810546875, 0, 
235, 1041379171, 0.04486652836203575, -0.7435956597328186, -0.12331259995698929, -0.6556403636932373, 9.935009956359863, 2.8009390830993652, -0.930586040019989, -25.904970169067383, -3.1266543865203857, -5.252406597137451, -0.58837890625, -0.748779296875, 0.455322265625, 0, 
236, 1041387504, 0.0433584600687027, -0.7436133623123169, -0.12242557108402252, -0.6558877229690552, 10.14546012878418, 2.7959046363830566, -0.9192461371421814, -23.18453025817871, -0.3636454939842224, -4.746807098388672, -0.5830078125, -0.75146484375, 0.453857421875, 0, 
237, 1041395837, 0.041537411510944366, -0.7435601949691772, -0.12107609212398529, -0.6563160419464111, 9.889954566955566, 2.943676471710205, -1.1660053730010986, -30.801424026489258, 1.8640644550323486, -2.991053342819214, -0.583984375, -0.75146484375, 0.44775390625, 0, 
238, 1041404170, 0.03984749689698219, -0.7434852719306946, -0.11971308290958405, -0.6567558646202087, 9.584236145019531, 2.690701961517334, -1.1533359289169312, -29.604366302490234, 2.4114153385162354, -1.776450753211975, -0.584716796875, -0.75439453125, 0.447265625, 0, 
239, 1041412503, 0.038268979638814926, -0.7432732582092285, -0.11838265508413315, -0.6573305726051331, 9.564449310302734, 2.112260103225708, -1.0617766380310059, -28.302751541137695, 5.186643123626709, -1.3395485877990723, -0.58447265625, -0.75537109375, 0.4443359375, 0, 
240, 1041420836, 0.0367569699883461, -0.7428265810012817, -0.1171727329492569, -0.65813809633255, 9.68134880065918, 1.584545373916626, -1.2983366250991821, -26.801422119140625, 9.74183177947998, -2.528280258178711, -0.580322265625, -0.75732421875, 0.442626953125, 0, 
241, 1041429169, 0.035104066133499146, -0.742037296295166, -0.11584150046110153, -0.6593533754348755, 9.971732139587402, 1.4109464883804321, -0.3599317669868469, -29.810440063476562, 16.832550048828125, -3.2677905559539795, -0.577880859375, -0.75927734375, 0.438720703125, 0, 
242, 1041437502, 0.03320896252989769, -0.7413166165351868, -0.11435551941394806, -0.6605205535888672, 9.631659507751465, 1.7170637845993042, -1.1705361604690552, -33.64902877807617, 15.41746997833252, -3.803462505340576, -0.579833984375, -0.7626953125, 0.429443359375, 0, 
243, 1041445835, 0.0311688631772995, -0.7404812574386597, -0.11271966248750687, -0.6618368625640869, 9.901147842407227, 1.6886099576950073, -0.8919444680213928, -36.66270446777344, 17.810691833496094, -3.7898876667022705, -0.577392578125, -0.7607421875, 0.429443359375, 0, 
244, 1041454168, 0.029408860951662064, -0.7401860952377319, -0.11151966452598572, -0.6624504923820496, 9.274660110473633, 1.3192856311798096, -1.4244321584701538, -28.996618270874023, 5.992032527923584, -4.585669040679932, -0.57421875, -0.76513671875, 0.425048828125, 0, 
245, 1041462501, 0.026886820793151855, -0.7403899431228638, -0.10987519472837448, -0.6626046299934387, 10.119243621826172, -0.6138302087783813, -1.6681259870529175, -40.288997650146484, -4.225305080413818, -6.007443428039551, -0.574462890625, -0.76806640625, 0.419921875, 0, 
246, 1041470834, 0.024541469290852547, -0.7404513359069824, -0.10831598937511444, -0.6628835797309875, 9.918231964111328, -1.4607328176498413, -0.9750548005104065, -37.85760498046875, -1.4143686294555664, -5.568695545196533, -0.57177734375, -0.770263671875, 0.421142578125, 0, 
247, 1041479167, 0.022639276459813118, -0.7407972812652588, -0.10697077959775925, -0.6627832055091858, 9.572892189025879, -1.0004597902297974, -2.2276804447174072, -30.91684913635254, -7.289870262145996, -3.114975929260254, -0.5732421875, -0.771728515625, 0.417724609375, 0, 
248, 1041487500, 0.02073674462735653, -0.7407426238059998, -0.10534214228391647, -0.6631672382354736, 9.525266647338867, 0.09229705482721329, -1.8048869371414185, -34.103363037109375, 1.3909951448440552, -1.0238019227981567, -0.573974609375, -0.7734375, 0.4140625, 0, 
249, 1041495833, 0.019817348569631577, -0.7405768036842346, -0.10464329272508621, -0.6634910702705383, 9.216272354125977, 0.742107629776001, -1.0578222274780273, -15.479682922363281, 2.9445743560791016, -1.6202542781829834, -0.572509765625, -0.77001953125, 0.4140625, 0, 
250, 1041504166, 0.01925390586256981, -0.7405721545219421, -0.10439881682395935, -0.6635515689849854, 9.181431770324707, 0.3134898841381073, -1.0428144931793213, -7.386493682861328, -0.8069381713867188, -2.7578210830688477, -0.57177734375, -0.7734375, 0.41455078125, 0, 
251, 1041512499, 0.018345357850193977, -0.7406880259513855, -0.1040143370628357, -0.6635082960128784, 9.545832633972168, 0.19960272312164307, -1.0553532838821411, -12.047770500183105, -3.435163736343384, -4.218140125274658, -0.570556640625, -0.772216796875, 0.41796875, 0, 
252, 1041520832, 0.01766846515238285, -0.7407589554786682, -0.10378055274486542, -0.6634839773178101, 9.669323921203613, 0.5898626446723938, -1.0479167699813843, -8.342276573181152, -2.52720308303833, -3.773540496826172, -0.571533203125, -0.775146484375, 0.4111328125, 0, 
253, 1041529165, 0.016996413469314575, -0.7409390211105347, -0.1035623699426651, -0.6633344292640686, 9.556902885437012, 1.040820837020874, -1.6484500169754028, -7.986595153808594, -4.8068695068359375, -3.636350393295288, -0.57373046875, -0.774658203125, 0.413330078125, 0, 
254, 1041537498, 0.01638045161962509, -0.7410822510719299, -0.10326607525348663, -0.6632363200187683, 9.54920768737793, 1.2969675064086914, -1.2821599245071411, -8.204880714416504, -3.8383188247680664, -2.462270975112915, -0.569091796875, -0.774169921875, 0.41357421875, 0, 
255, 1041545831, 0.01601390913128853, -0.7411737442016602, -0.10297130048274994, -0.6631887555122375, 9.259753227233887, 1.7359930276870728, -1.1337467432022095, -5.695363521575928, -2.507749080657959, -0.21942433714866638, -0.5703125, -0.777099609375, 0.415771484375, 0, 
256, 1041554164, 0.015747951343655586, -0.7412643432617188, -0.10261580348014832, -0.6631489992141724, 9.068215370178223, 2.1026992797851562, -1.2221864461898804, -5.249958038330078, -2.250556468963623, 1.2452105283737183, -0.569580078125, -0.774169921875, 0.416748046875, 0, 
257, 1041562497, 0.015471125952899456, -0.7413560152053833, -0.10230882465839386, -0.6631004810333252, 9.393287658691406, 2.3954851627349854, -0.9326791763305664, -4.891845226287842, -2.3883097171783447, 0.7243193984031677, -0.5703125, -0.774658203125, 0.412841796875, 0, 
258, 1041570830, 0.015249615535140038, -0.7414227724075317, -0.10202296078205109, -0.6630750298500061, 9.649827003479004, 2.448349952697754, -0.6673658490180969, -4.1757097244262695, -1.840587854385376, 0.9107269644737244, -0.569091796875, -0.77392578125, 0.4111328125, 0, 
259, 1041579163, 0.015199447050690651, -0.7415285706520081, -0.10170663893222809, -0.6630065441131592, 9.412470817565918, 2.330461025238037, -0.8103213906288147, -2.640956163406372, -2.399592876434326, 2.908048152923584, -0.5732421875, -0.773193359375, 0.41015625, 0, 
260, 1041587496, 0.015058442018926144, -0.741708517074585, -0.10117079317569733, -0.6628902554512024, 9.386923789978027, 2.1043639183044434, -0.8692350387573242, -5.529576301574707, -3.636094808578491, 4.379586696624756, -0.56982421875, -0.7734375, 0.41162109375, 0, 
261, 1041595829, 0.015025005675852299, -0.7419008612632751, -0.10074137151241302, -0.6627413034439087, 9.460152626037598, 1.8784347772598267, -1.056382179260254, -3.407512664794922, -3.9649550914764404, 4.352255344390869, -0.57177734375, -0.77392578125, 0.411865234375, 0, 
262, 1041604162, 0.015090775676071644, -0.7421375513076782, -0.10033874213695526, -0.6625359058380127, 9.468664169311523, 1.3853421211242676, -1.298975944519043, -2.0942840576171875, -4.802195072174072, 5.0094780921936035, -0.572021484375, -0.7734375, 0.412841796875, 0, 
263, 1041612495, 0.01503000408411026, -0.7423458099365234, -0.09972366690635681, -0.6623967885971069, 9.52364730834961, 1.3027012348175049, -1.326458215713501, -5.3943328857421875, -4.008602142333984, 6.0182318687438965, -0.574951171875, -0.77294921875, 0.4091796875, 0, 
264, 1041620828, 0.015114894136786461, -0.7425339221954346, -0.09916335344314575, -0.6622682213783264, 9.41177749633789, 1.322419285774231, -1.4103177785873413, -3.4287211894989014, -3.5182175636291504, 6.712684154510498, -0.570068359375, -0.771240234375, 0.412109375, 0, 
265, 1041629161, 0.015362468548119068, -0.7427372336387634, -0.09876292943954468, -0.6620943546295166, 9.509767532348633, 0.9581077694892883, -1.124367117881775, -0.24366825819015503, -3.940622091293335, 6.635842323303223, -0.571533203125, -0.769287109375, 0.4111328125, 0, 
266, 1041637494, 0.015509916469454765, -0.7428678274154663, -0.09830623865127563, -0.6620121002197266, 9.54411506652832, 0.7888829112052917, -0.9352318644523621, -1.8933786153793335, -2.45648193359375, 6.138796806335449, -0.573974609375, -0.769775390625, 0.415283203125, 0, 
267, 1041645827, 0.015780847519636154, -0.7430146336555481, -0.09798407554626465, -0.6618887186050415, 9.266925811767578, 0.5565999746322632, -0.7137193083763123, 0.6508705019950867, -2.896047830581665, 5.960675239562988, -0.5712890625, -0.767578125, 0.411865234375, 0, 
268, 1041654160, 0.01604473404586315, -0.7431924939155579, -0.09771166741847992, -0.661723256111145, 9.267484664916992, 0.43643566966056824, -0.5902259945869446, 1.0731083154678345, -3.617511034011841, 5.397765159606934, -0.577880859375, -0.76904296875, 0.413818359375, 0, 
269, 1041662493, 0.01621515117585659, -0.7434346079826355, -0.0975944846868515, -0.661464512348175, 9.60262393951416, 0.28788328170776367, -0.9277591705322266, 1.6504660844802856, -5.3284525871276855, 3.108376979827881, -0.57763671875, -0.76611328125, 0.41357421875, 0, 
270, 1041670826, 0.01646731048822403, -0.7436021566390991, -0.09771411120891571, -0.6612518429756165, 10.029786109924316, -0.1588975042104721, -0.7520620226860046, 4.5860114097595215, -4.112903594970703, 1.2765752077102661, -0.5732421875, -0.7666015625, 0.415283203125, 0, 
271, 1041679159, 0.016773192211985588, -0.7436099052429199, -0.09796051681041718, -0.6611990928649902, 10.084853172302246, -0.055808037519454956, -0.8252406120300293, 6.118075847625732, -0.9886838793754578, 0.26263558864593506, -0.57666015625, -0.765869140625, 0.413818359375, 0, 
272, 1041687492, 0.017139561474323273, -0.7434828877449036, -0.0983315110206604, -0.6612775325775146, 10.039095878601074, 0.6240072846412659, -0.9019051194190979, 7.713996887207031, 1.6346111297607422, -0.7235767245292664, -0.57568359375, -0.768798828125, 0.41064453125, 0, 
273, 1041695825, 0.017290502786636353, -0.7434155344963074, -0.09862489253282547, -0.6613056063652039, 10.013490676879883, 1.4772799015045166, -1.2513933181762695, 4.869457721710205, 0.30215832591056824, -1.7450209856033325, -0.576171875, -0.768310546875, 0.412353515625, 0, 
274, 1041704158, 0.01694883406162262, -0.7434041500091553, -0.09850325435400009, -0.6613453030586243, 9.954172134399414, 1.9737002849578857, -1.2483159303665161, -3.9785571098327637, -0.658695638179779, -1.964381456375122, -0.5751953125, -0.76708984375, 0.41259765625, 0, 
275, 1041712491, 0.015855593606829643, -0.7437116503715515, -0.09776812791824341, -0.661135733127594, 9.431068420410156, 1.0205130577087402, -1.6704413890838623, -16.96920394897461, -6.982928276062012, -1.9827983379364014, -0.575439453125, -0.768310546875, 0.411865234375, 0, 
276, 1041720824, 0.015553269535303116, -0.7438929080963135, -0.09768781065940857, -0.660950779914856, 8.885965347290039, 0.2957247197628021, -1.8626033067703247, -2.942000150680542, -4.661125183105469, -1.714591383934021, -0.576416015625, -0.768310546875, 0.416748046875, 0, 
277, 1041729157, 0.01575811393558979, -0.7443642020225525, -0.09808820486068726, -0.6603556275367737, 8.880877494812012, -0.5222139358520508, -3.0552077293395996, 7.113266468048096, -10.916584968566895, -1.4953337907791138, -0.57666015625, -0.766845703125, 0.4150390625, 0, 
278, 1041737490, 0.015759054571390152, -0.7445026636123657, -0.09820672869682312, -0.6601818203926086, 9.74755573272705, -0.04821031540632248, -2.7204835414886475, 1.959886074066162, -3.788857936859131, -1.0531549453735352, -0.577392578125, -0.768798828125, 0.414306640625, 0, 
279, 1041745823, 0.016404174268245697, -0.7444258332252502, -0.0987444669008255, -0.6601725816726685, 9.915799140930176, 0.7477198243141174, -1.7805395126342773, 12.196857452392578, 0.6227332949638367, 0.2278129905462265, -0.576171875, -0.7646484375, 0.41650390625, 0, 
280, 1041754156, 0.017552409321069717, -0.7442802786827087, -0.09954176098108292, -0.6601876020431519, 9.748385429382324, 1.1732215881347656, -1.4311163425445557, 19.672698974609375, 2.1339609622955322, 1.9807108640670776, -0.576904296875, -0.765625, 0.418212890625, 0, 
281, 1041762489, 0.018723752349615097, -0.744235098361969, -0.10046461224555969, -0.660066545009613, 9.889043807983398, 1.4966787099838257, -1.6625349521636963, 21.224102020263672, -0.1812720149755478, 1.134903073310852, -0.577880859375, -0.766357421875, 0.418212890625, 0, 
282, 1041770822, 0.020186714828014374, -0.7441861033439636, -0.10158130526542664, -0.659907877445221, 10.207698822021484, 1.2762116193771362, -0.7039765119552612, 26.009578704833984, -0.1632780283689499, 1.7427420616149902, -0.57666015625, -0.764892578125, 0.418701171875, 0, 
283, 1041779155, 0.021569490432739258, -0.7440999150276184, -0.10244284570217133, -0.659828245639801, 9.85847282409668, 1.9460904598236084, -0.48338305950164795, 22.78455352783203, 0.925455629825592, 3.612441301345825, -0.5791015625, -0.762451171875, 0.422607421875, 0, 
284, 1041787488, 0.022494710981845856, -0.7441774010658264, -0.10281094908714294, -0.659652590751648, 9.490982055664062, 2.6581287384033203, -0.8471647500991821, 13.700658798217773, -2.02498459815979, 4.710982799530029, -0.578369140625, -0.7626953125, 0.424072265625, 0, 
285, 1041795821, 0.023173131048679352, -0.7443076372146606, -0.10309277474880219, -0.6594380736351013, 9.820815086364746, 2.407017946243286, -0.8191702365875244, 10.442168235778809, -3.2402775287628174, 3.4998650550842285, -0.577880859375, -0.75927734375, 0.4248046875, 0, 
286, 1041804154, 0.023629561066627502, -0.7444708347320557, -0.10337063670158386, -0.6591941118240356, 9.939970016479492, 1.5779794454574585, -0.9997233748435974, 8.157148361206055, -4.140182971954346, 1.5326919555664062, -0.575927734375, -0.760986328125, 0.424560546875, 0, 
287, 1041812487, 0.023833170533180237, -0.7446947693824768, -0.10345231741666794, -0.6589210629463196, 9.546338081359863, 0.16660113632678986, -0.8065344095230103, 3.821272373199463, -5.2975358963012695, 1.395245909690857, -0.57861328125, -0.761962890625, 0.4248046875, 0, 
288, 1041820820, 0.023875288665294647, -0.7448943257331848, -0.10335976630449295, -0.658708393573761, 8.970964431762695, -0.6859681010246277, -0.8870677351951599, 0.5004765391349792, -4.62053918838501, 1.6163607835769653, -0.5791015625, -0.760498046875, 0.423828125, 0, 
289, 1041829153, 0.02403216063976288, -0.7451024651527405, -0.10347677022218704, -0.6584488153457642, 8.96238899230957, -0.9364456534385681, -0.9870263934135437, 3.648735761642456, -5.093672752380371, 0.5831722021102905, -0.578125, -0.759521484375, 0.42724609375, 0, 
290, 1041837486, 0.024419212713837624, -0.7453312873840332, -0.1040651947259903, -0.6580828428268433, 9.310311317443848, -1.3920118808746338, -0.9630969166755676, 10.407601356506348, -6.191793441772461, -2.149892568588257, -0.5810546875, -0.757080078125, 0.429931640625, 0, 
291, 1041845819, 0.024921735748648643, -0.7454774975776672, -0.10501258820295334, -0.6577479243278503, 9.679316520690918, -1.5442614555358887, -1.0504850149154663, 14.834770202636719, -5.089357852935791, -4.86159610748291, -0.579345703125, -0.7587890625, 0.42724609375, 0, 
292, 1041854152, 0.025832604616880417, -0.745617687702179, -0.10647852718830109, -0.6573177576065063, 9.834827423095703, -1.2462457418441772, -1.6727776527404785, 23.839771270751953, -5.592243671417236, -6.522732734680176, -0.581787109375, -0.7607421875, 0.43017578125, 0, 
293, 1041862485, 0.027036938816308975, -0.745671808719635, -0.10825574398040771, -0.6569175124168396, 10.306593894958496, -0.636692225933075, -1.7718029022216797, 29.659427642822266, -4.196511268615723, -7.1362080574035645, -0.577880859375, -0.755615234375, 0.43359375, 0, 
294, 1041870818, 0.02843596786260605, -0.7455953359603882, -0.11011407524347305, -0.6566364169120789, 10.386467933654785, 0.42526745796203613, -1.8968985080718994, 32.24589920043945, -1.52899169921875, -6.523643493652344, -0.58154296875, -0.759765625, 0.436279296875, 0, 
295, 1041879151, 0.029964908957481384, -0.7454036474227905, -0.1119910404086113, -0.6564687490463257, 10.088400840759277, 1.4773123264312744, -2.0426669120788574, 33.633201599121094, 0.8586284518241882, -5.683522701263428, -0.581787109375, -0.75537109375, 0.4384765625, 0, 
296, 1041887484, 0.031364984810352325, -0.745130717754364, -0.11364632844924927, -0.6564285159111023, 9.632600784301758, 1.883948802947998, -1.727446436882019, 30.132753372192383, 2.7979347705841064, -4.8345112800598145, -0.5791015625, -0.75830078125, 0.439208984375, 0, 
297, 1041895817, 0.03263772279024124, -0.7448636293411255, -0.11512550711631775, -0.6564117074012756, 9.484846115112305, 2.3526198863983154, -1.6074235439300537, 27.215681076049805, 2.854759454727173, -4.0994720458984375, -0.582763671875, -0.755859375, 0.443603515625, 0, 
298, 1041904150, 0.03376765549182892, -0.7445929050445557, -0.11640989035367966, -0.6564352512359619, 9.534311294555664, 2.8853466510772705, -1.6237900257110596, 23.91666603088379, 3.174245834350586, -3.4940783977508545, -0.57958984375, -0.758056640625, 0.44140625, 0, 
299, 1041912483, 0.03474405035376549, -0.744328498840332, -0.11751192808151245, -0.656487762928009, 9.666378021240234, 3.2245736122131348, -1.7873902320861816, 20.665225982666016, 3.2408807277679443, -2.940361499786377, -0.57861328125, -0.759033203125, 0.4423828125, 0, 
300, 1041920816, 0.03582137078046799, -0.7439967393875122, -0.11865754425525665, -0.6565999984741211, 9.632033348083496, 3.2660937309265137, -1.7465685606002808, 22.012130737304688, 4.6134724617004395, -2.6778416633605957, -0.579833984375, -0.759033203125, 0.44287109375, 0, 
301, 1041929149, 0.036930229514837265, -0.7436111569404602, -0.1197565346956253, -0.6567758321762085, 9.722956657409668, 2.743464469909668, -1.604953408241272, 21.851781845092773, 5.814036846160889, -1.9687111377716064, -0.58203125, -0.757568359375, 0.4453125, 0, 
302, 1041937482, 0.03805837035179138, -0.7431448101997375, -0.12077775597572327, -0.6570523381233215, 9.868902206420898, 2.205983877182007, -1.5890635251998901, 21.208431243896484, 7.65608549118042, -1.238858699798584, -0.579833984375, -0.7578125, 0.4453125, 0, 
303, 1041945815, 0.03903840109705925, -0.7426201105117798, -0.12154064327478409, -0.6574473977088928, 9.853792190551758, 1.894119143486023, -1.6535367965698242, 17.207839965820312, 9.272420883178711, -0.04136700928211212, -0.580810546875, -0.759033203125, 0.44482421875, 0, 
304, 1041954148, 0.04002224653959274, -0.7421130537986755, -0.122073695063591, -0.6578617095947266, 9.752950668334961, 1.906531572341919, -1.3728039264678955, 15.117565155029297, 9.451539993286133, 2.3142082691192627, -0.580078125, -0.7578125, 0.443603515625, 0, 
305, 1041962481, 0.041218407452106476, -0.7413966059684753, -0.12265782058238983, -0.6584867835044861, 9.512651443481445, 1.897397756576538, -1.248930811882019, 17.516929626464844, 13.810983657836914, 3.29116153717041, -0.580322265625, -0.758056640625, 0.444580078125, 0, 
306, 1041970814, 0.04278385639190674, -0.7405768632888794, -0.12359938770532608, -0.6591327786445618, 9.489008903503418, 1.3143788576126099, -1.085365653038025, 24.5344181060791, 15.397046089172363, 2.7637903690338135, -0.57861328125, -0.756591796875, 0.443603515625, 0, 
307, 1041979147, 0.04461006447672844, -0.7395762205123901, -0.12487087398767471, -0.6598953008651733, 9.8003511428833, 1.056675672531128, -0.8333979249000549, 30.095670700073242, 18.45708656311035, 1.434385895729065, -0.57861328125, -0.75634765625, 0.44580078125, 0, 
308, 1041987480, 0.04674388840794563, -0.7385337948799133, -0.1265811175107956, -0.6605889201164246, 9.790432929992676, 0.8253117799758911, -0.7955359816551208, 37.34049987792969, 18.406505584716797, -0.30611616373062134, -0.579833984375, -0.7578125, 0.4423828125, 0, 
309, 1041995813, 0.04874033108353615, -0.7375389933586121, -0.12831173837184906, -0.6612219214439392, 9.752824783325195, 0.36986565589904785, -1.0130276679992676, 36.21516036987305, 17.094593048095703, -1.599713683128357, -0.578857421875, -0.755859375, 0.442626953125, 0, 
310, 1042004146, 0.0505627766251564, -0.736571192741394, -0.13001325726509094, -0.6618311405181885, 9.55929183959961, 0.006825102958828211, -1.033718466758728, 34.20005798339844, 16.329904556274414, -2.8611655235290527, -0.58056640625, -0.75537109375, 0.442138671875, 0, 
311, 1042012479, 0.05171896517276764, -0.7358868718147278, -0.13136494159698486, -0.6622360944747925, 9.239029884338379, -0.7427588701248169, -1.5949584245681763, 24.44572639465332, 10.723457336425781, -4.6942338943481445, -0.58056640625, -0.75439453125, 0.4423828125, 0, 
312, 1042020812, 0.05064104124903679, -0.7357163429260254, -0.13095439970493317, -0.6625897288322449, 9.6817045211792, -1.382349967956543, -1.9477331638336182, -14.492344856262207, 2.751558303833008, -6.286157131195068, -0.580810546875, -0.756103515625, 0.441650390625, 0, 
313, 1042029145, 0.05042571201920509, -0.7353932857513428, -0.13120463490486145, -0.6629152894020081, 9.652045249938965, -1.0032246112823486, -1.9199397563934326, 0.4213285744190216, 4.9409098625183105, -5.323522090911865, -0.5791015625, -0.75732421875, 0.43896484375, 0, 
314, 1042037478, 0.05055921524763107, -0.7351198196411133, -0.1316356658935547, -0.6631229519844055, 9.291263580322266, -1.008196473121643, -2.442922830581665, 5.763075351715088, 3.812782049179077, -3.8525993824005127, -0.577392578125, -0.7587890625, 0.44091796875, 0, 
315, 1042045811, 0.050186607986688614, -0.7350766658782959, -0.13156816363334656, -0.6632125377655029, 9.310609817504883, 0.062742218375206, -2.677140235900879, -3.832517385482788, -0.06220417469739914, -2.876619577407837, -0.5810546875, -0.76171875, 0.4404296875, 0, 
316, 1042054144, 0.049858301877975464, -0.7349749803543091, -0.13144312798976898, -0.6633747816085815, 9.252219200134277, 1.3799643516540527, -1.9037517309188843, -4.015965938568115, 1.3432615995407104, -2.112060308456421, -0.576904296875, -0.76171875, 0.437255859375, 0, 
317, 1042062477, 0.049517206847667694, -0.7349076271057129, -0.13128550350666046, -0.6635061502456665, 9.34824275970459, 1.4442965984344482, -1.5952479839324951, -4.395313262939453, 0.6990125775337219, -1.7506691217422485, -0.581787109375, -0.76025390625, 0.43798828125, 0, 
318, 1042070810, 0.048762544989585876, -0.7347976565361023, -0.13073265552520752, -0.6637930870056152, 9.722970008850098, 1.961604356765747, -1.5494513511657715, -12.44756031036377, 2.2091002464294434, -1.7785887718200684, -0.575927734375, -0.76318359375, 0.43798828125, 0, 
319, 1042079143, 0.0483708493411541, -0.7346020340919495, -0.13040374219417572, -0.664103090763092, 9.721407890319824, 2.1118760108947754, -1.316421627998352, -6.705897331237793, 3.699669361114502, -0.832757294178009, -0.578125, -0.76220703125, 0.435302734375, 0, 
320, 1042087476, 0.04812692850828171, -0.7344631552696228, -0.1300971955060959, -0.6643341183662415, 9.547420501708984, 1.3219923973083496, -1.3135474920272827, -4.918893814086914, 2.6618568897247314, 0.38523808121681213, -0.579833984375, -0.76171875, 0.434326171875, 0, 
321, 1042095809, 0.047792948782444, -0.7344108819961548, -0.12965790927410126, -0.664501965045929, 9.565325736999512, 1.0059672594070435, -1.3455251455307007, -6.97163200378418, 1.1305996179580688, 1.1600817441940308, -0.578125, -0.76123046875, 0.43505859375, 0, 
322, 1042104142, 0.04785585775971413, -0.7343171238899231, -0.1294546127319336, -0.6646407246589661, 9.47381591796875, 1.0020791292190552, -1.7663757801055908, -0.738791286945343, 1.7997456789016724, 2.291461944580078, -0.575439453125, -0.76318359375, 0.432861328125, 0, 
323, 1042112475, 0.04751412570476532, -0.7343960404396057, -0.1288042515516281, -0.6647043228149414, 9.298383712768555, 1.1833866834640503, -2.2357664108276367, -8.879240036010742, -0.9938453435897827, 3.5215225219726562, -0.580078125, -0.76318359375, 0.432373046875, 0, 
324, 1042120808, 0.0465044304728508, -0.7345501780509949, -0.12732945382595062, -0.6648895144462585, 9.373498916625977, 1.884669303894043, -2.165666341781616, -23.440658569335938, -1.067102313041687, 5.740433692932129, -0.57763671875, -0.763916015625, 0.431396484375, 0, 
325, 1042129141, 0.046030208468437195, -0.7345954179763794, -0.1261569708585739, -0.6650961637496948, 9.226011276245117, 2.059023857116699, -2.006929397583008, -15.218750953674316, 0.85847407579422, 7.433188438415527, -0.577880859375, -0.76171875, 0.431884765625, 0, 
326, 1042137474, 0.046024952083826065, -0.7347416281700134, -0.12534265220165253, -0.6650890111923218, 9.449045181274414, 0.9128435850143433, -1.7625014781951904, -6.915920257568359, -1.598994255065918, 8.36311149597168, -0.578125, -0.76220703125, 0.427978515625, 0, 
327, 1042145807, 0.046361133456230164, -0.7347427606582642, -0.1246531754732132, -0.6651939749717712, 9.702799797058105, 0.2851041555404663, -1.8453551530838013, -2.4098641872406006, 1.3322093486785889, 9.955857276916504, -0.580322265625, -0.7587890625, 0.432861328125, 0, 
328, 1042154140, 0.04662827402353287, -0.7349271178245544, -0.12377454340457916, -0.6651357412338257, 9.84961986541748, 0.5407551527023315, -1.8770017623901367, -4.6880717277526855, -1.9489874839782715, 11.604005813598633, -0.58056640625, -0.757568359375, 0.427978515625, 0, 
329, 1042162473, 0.04643702507019043, -0.7349816560745239, -0.12232745438814163, -0.6653565168380737, 10.369097709655762, 2.067587375640869, -0.7372145056724548, -14.899113655090332, 1.59931480884552, 12.806391716003418, -0.580078125, -0.761474609375, 0.42724609375, 0, 
330, 1042170806, 0.046030618250370026, -0.7348702549934387, -0.1206047385931015, -0.66582190990448, 10.117279052734375, 3.34774112701416, 0.18989945948123932, -19.915691375732422, 5.453490734100342, 13.135920524597168, -0.58056640625, -0.757568359375, 0.422607421875, 0, 
331, 1042179139, 0.0460846982896328, -0.7351676821708679, -0.11933235079050064, -0.6657191514968872, 9.94003677368164, 2.0062716007232666, 0.43790003657341003, -10.441211700439453, -3.602207660675049, 13.890181541442871, -0.584716796875, -0.756591796875, 0.42724609375, 0, 
332, 1042187472, 0.04608258605003357, -0.735677182674408, -0.11815101653337479, -0.6653669476509094, 9.67918586730957, 0.6837490797042847, 0.19536755979061127, -9.910304069519043, -8.169841766357422, 12.92065715789795, -0.58544921875, -0.7568359375, 0.422607421875, 0, 
333, 1042195805, 0.045805253088474274, -0.7366088628768921, -0.11701081693172455, -0.6645565032958984, 9.676776885986328, 0.15627309679985046, -0.7301414608955383, -11.83079719543457, -17.18788719177246, 11.002931594848633, -0.585693359375, -0.756103515625, 0.421142578125, 0, 
334, 1042204138, 0.0455031618475914, -0.7372976541519165, -0.11587546765804291, -0.6640118956565857, 9.934024810791016, 0.1805020421743393, -0.9910382628440857, -12.321270942687988, -12.280928611755371, 10.132162094116211, -0.584716796875, -0.7529296875, 0.42236328125, 0, 
335, 1042212471, 0.04508229345083237, -0.7379186153411865, -0.11455348134040833, -0.6635799407958984, 9.82119369506836, 0.6106352806091309, -1.133432388305664, -15.35904312133789, -10.629347801208496, 10.798824310302734, -0.584716796875, -0.751953125, 0.42724609375, 0, 
336, 1042220804, 0.044630445539951324, -0.7381888628005981, -0.11293160915374756, -0.6635881066322327, 9.548750877380371, 1.2071532011032104, -0.8946749567985535, -18.897245407104492, -2.788597345352173, 12.692231178283691, -0.587890625, -0.749755859375, 0.424072265625, 0, 
337, 1042229137, 0.044462986290454865, -0.7384279370307922, -0.11168500036001205, -0.6635445356369019, 9.21468448638916, 1.2060774564743042, -1.0974518060684204, -12.47334098815918, -2.852607011795044, 11.503522872924805, -0.58642578125, -0.74951171875, 0.422119140625, 0, 
338, 1042237470, 0.044379156082868576, -0.7387785315513611, -0.11078932881355286, -0.6633097529411316, 9.743847846984863, 0.6602082252502441, -0.7383822202682495, -8.210643768310547, -5.866991996765137, 8.95026683807373, -0.588134765625, -0.749755859375, 0.419677734375, 0, 
339, 1042245803, 0.04372577741742134, -0.7390710115432739, -0.10939652472734451, -0.66325843334198, 9.867948532104492, 0.20947499573230743, -0.7153287529945374, -18.761381149291992, -4.06974458694458, 8.64551067352295, -0.587646484375, -0.747314453125, 0.4189453125, 0, 
340, 1042254136, 0.04324016720056534, -0.739351749420166, -0.10813508182764053, -0.6631843447685242, 9.502912521362305, 0.0639573484659195, -0.9296507239341736, -15.828410148620605, -3.9879708290100098, 8.796648979187012, -0.587646484375, -0.747314453125, 0.419677734375, 0, 
341, 1042262469, 0.04275607317686081, -0.7398525476455688, -0.10698595643043518, -0.6628434658050537, 9.773628234863281, -0.5449579954147339, -0.8679631352424622, -14.511454582214355, -8.80434513092041, 8.195687294006348, -0.5888671875, -0.746337890625, 0.417236328125, 0, 
342, 1042270802, 0.041778236627578735, -0.7401667237281799, -0.10544975101947784, -0.6628013849258423, 9.974576950073242, -0.7650755643844604, -0.8539541959762573, -23.40485382080078, -4.531685829162598, 7.13892126083374, -0.5888671875, -0.74609375, 0.4189453125, 0, 
343, 1042279135, 0.040720708668231964, -0.7403408885002136, -0.10389672964811325, -0.6629180312156677, 9.71209716796875, -0.3774588108062744, -1.4109656810760498, -24.507831573486328, -1.7750035524368286, 6.332662582397461, -0.592529296875, -0.747802734375, 0.418212890625, 0, 
344, 1042287468, 0.04048492759466171, -0.7404807806015015, -0.10317181050777435, -0.6628893613815308, 9.441248893737793, -0.5316964983940125, -1.3373934030532837, -8.3762788772583, -2.204963207244873, 5.375070571899414, -0.58984375, -0.742431640625, 0.414306640625, 0, 
345, 1042295801, 0.040505874902009964, -0.740631639957428, -0.10273577272891998, -0.6627873182296753, 9.322981834411621, -0.7847034931182861, -1.4171568155288696, -3.0211989879608154, -2.8767600059509277, 4.880420684814453, -0.591796875, -0.744384765625, 0.41552734375, 0, 
346, 1042304134, 0.03990916907787323, -0.7408348321914673, -0.1018424853682518, -0.6627342104911804, 9.414650917053223, -0.6617817878723145, -1.6219621896743774, -13.5880708694458, -3.4417338371276855, 3.8985507488250732, -0.587646484375, -0.745361328125, 0.4150390625, 0, 
347, 1042312467, 0.03872545808553696, -0.7409399747848511, -0.10051236301660538, -0.6628899574279785, 9.555903434753418, 0.08006352186203003, -1.1939963102340698, -23.776233673095703, -1.0330866575241089, 2.8028390407562256, -0.594482421875, -0.74609375, 0.416259765625, 0, 
348, 1042320800, 0.038089506328105927, -0.7409142255783081, -0.09969663619995117, -0.6630787253379822, 9.354887962341309, 0.45429229736328125, -0.9400327205657959, -13.499920845031738, 1.0081254243850708, 2.2941908836364746, -0.589111328125, -0.744873046875, 0.412841796875, 0, 
349, 1042329133, 0.03819137066602707, -0.7410074472427368, -0.09975634515285492, -0.6629597544670105, 9.249687194824219, 0.16320930421352386, -1.208584189414978, 2.3784356117248535, -2.6874840259552, 0.4896416962146759, -0.592041015625, -0.744140625, 0.413330078125, 0, 
350, 1042337466, 0.038353320211172104, -0.7410156726837158, -0.10001270473003387, -0.6629024744033813, 9.45078182220459, -0.4382830262184143, -1.4266036748886108, 4.7266974449157715, -1.2748076915740967, -1.1820073127746582, -0.58935546875, -0.74755859375, 0.4140625, 0, 
351, 1042345799, 0.03853270411491394, -0.7409559488296509, -0.10035595297813416, -0.6629071235656738, 9.552224159240723, -0.5539698004722595, -1.3344494104385376, 5.663845062255859, -0.07772639393806458, -1.9686204195022583, -0.587890625, -0.743896484375, 0.41064453125, 0, 
352, 1042354132, 0.03899670019745827, -0.740766167640686, -0.10094320774078369, -0.6630028486251831, 9.378259658813477, -0.3159902095794678, -1.4609320163726807, 10.715524673461914, 2.3340845108032227, -2.158050537109375, -0.5869140625, -0.743408203125, 0.4140625, 0, 
353, 1042362465, 0.039504386484622955, -0.7405916452407837, -0.10162962973117828, -0.6630629301071167, 9.480513572692871, 0.1237005889415741, -1.4243143796920776, 12.11959457397461, 1.805073857307434, -2.6579384803771973, -0.591552734375, -0.744873046875, 0.411376953125, 0, 
354, 1042370798, 0.039690226316452026, -0.7402181029319763, -0.10194133222103119, -0.6634208559989929, 9.750567436218262, 0.6228647232055664, -0.6996793746948242, 5.098141670227051, 6.441095352172852, -2.293396234512329, -0.58984375, -0.7451171875, 0.4111328125, 0, 
355, 1042379131, 0.039489757269620895, -0.7396528720855713, -0.10186605155467987, -0.6640745997428894, 9.799991607666016, 1.3011811971664429, -0.1117052435874939, -2.6545956134796143, 10.836230278015137, -2.2342915534973145, -0.590576171875, -0.746826171875, 0.41259765625, 0, 
356, 1042387464, 0.039036765694618225, -0.7391852736473083, -0.10165856778621674, -0.664653480052948, 9.700421333312988, 1.823893666267395, 0.17207089066505432, -6.398871898651123, 8.932848930358887, -3.0924577713012695, -0.590087890625, -0.747802734375, 0.408203125, 0, 
357, 1042395797, 0.038316600024700165, -0.7389800548553467, -0.10133662819862366, -0.6649726629257202, 10.074792861938477, 1.7969582080841064, 0.6042574644088745, -9.918370246887207, 3.552502393722534, -3.7904462814331055, -0.586181640625, -0.7490234375, 0.409912109375, 0, 
358, 1042404130, 0.03733989968895912, -0.738862931728363, -0.10082783550024033, -0.6652356386184692, 10.2304048538208, 1.7588261365890503, 0.7605385780334473, -14.217377662658691, 1.9432756900787354, -4.155513763427734, -0.5888671875, -0.75341796875, 0.40380859375, 0, 
359, 1042412463, 0.03619705140590668, -0.7389196157455444, -0.10034749656915665, -0.66530841588974, 10.15295696258545, 1.3574680089950562, 0.29373523592948914, -15.454928398132324, -1.8515639305114746, -5.555127143859863, -0.58642578125, -0.751708984375, 0.40380859375, 0, 
360, 1042420796, 0.03490767627954483, -0.7390497326850891, -0.09966429322957993, -0.6653355956077576, 9.835182189941406, 0.8945014476776123, 0.17261125147342682, -18.785064697265625, -3.0725440979003906, -4.777274131774902, -0.590087890625, -0.751708984375, 0.40478515625, 0, 
361, 1042429129, 0.03346344456076622, -0.739330530166626, -0.0988994613289833, -0.6652119755744934, 9.31299114227295, 1.0001153945922852, -0.5407412648200989, -20.960046768188477, -6.171304225921631, -5.016485691070557, -0.5859375, -0.75146484375, 0.404541015625, 0, 
362, 1042437462, 0.03161367401480675, -0.7396392226219177, -0.09787613153457642, -0.6651105880737305, 9.428445816040039, 1.0812588930130005, -0.6846097707748413, -27.502614974975586, -6.625613689422607, -6.136919021606445, -0.58203125, -0.751220703125, 0.403564453125, 0, 
363, 1042445795, 0.029364120215177536, -0.739922285079956, -0.09647832065820694, -0.665103018283844, 9.499558448791504, 1.4459844827651978, -1.0230621099472046, -35.09661102294922, -5.8194580078125, -5.99542760848999, -0.585205078125, -0.7548828125, 0.404541015625, 0, 
364, 1042454128, 0.027215130627155304, -0.7401630878448486, -0.0950743779540062, -0.6651287078857422, 9.714937210083008, 1.9537391662597656, -1.1286205053329468, -34.169193267822266, -4.953592777252197, -5.144444942474365, -0.58837890625, -0.7568359375, 0.40087890625, 0, 
365, 1042462461, 0.025404352694749832, -0.7403875589370728, -0.0938466340303421, -0.6651248931884766, 9.474356651306152, 1.7489745616912842, -1.075626015663147, -29.05750274658203, -4.7334370613098145, -3.791755199432373, -0.58544921875, -0.758056640625, 0.396484375, 0, 
366, 1042470794, 0.023902934044599533, -0.7407872080802917, -0.09287898987531662, -0.6648712754249573, 9.587677955627441, 1.4576548337936401, -1.4330700635910034, -23.280046463012695, -8.562767028808594, -3.356337070465088, -0.583984375, -0.75732421875, 0.400146484375, 0, 
367, 1042479127, 0.022651372477412224, -0.7410640716552734, -0.09199483692646027, -0.664729654788971, 9.855264663696289, 1.1696852445602417, -1.2614725828170776, -20.06281852722168, -6.016478538513184, -2.0557477474212646, -0.58544921875, -0.761474609375, 0.40087890625, 0, 
368, 1042487460, 0.021939529106020927, -0.7412858605384827, -0.09141571819782257, -0.6645860075950623, 9.742669105529785, 1.0769058465957642, -1.0517653226852417, -11.762724876403809, -4.936350345611572, -0.3552950918674469, -0.579833984375, -0.758056640625, 0.400634765625, 0, 
369, 1042495793, 0.021832535043358803, -0.7415005564689636, -0.09118946641683578, -0.6643810868263245, 9.490532875061035, 1.1270102262496948, -1.406207799911499, -2.2845849990844727, -4.853052616119385, 1.6380176544189453, -0.58154296875, -0.758544921875, 0.401611328125, 0, 
370, 1042504126, 0.022227993234992027, -0.7416449189186096, -0.09124089777469635, -0.6641998887062073, 9.272981643676758, 1.0143022537231445, -1.0821285247802734, 5.358356952667236, -3.410407304763794, 3.2509970664978027, -0.58056640625, -0.7587890625, 0.39892578125, 0, 
371, 1042512459, 0.022816073149442673, -0.741786539554596, -0.09144750982522964, -0.6639934182167053, 9.499711036682129, 1.3380314111709595, -1.1836143732070923, 8.780508995056152, -3.458190441131592, 3.484816551208496, -0.585693359375, -0.75439453125, 0.40185546875, 0, 
372, 1042520792, 0.02363329753279686, -0.741901695728302, -0.09185673296451569, -0.6637793183326721, 9.806427955627441, 1.4231984615325928, -1.372944712638855, 12.975624084472656, -3.0622336864471436, 3.4278385639190674, -0.584228515625, -0.75634765625, 0.400390625, 0, 
373, 1042529125, 0.02463984489440918, -0.7419785857200623, -0.09232357144355774, -0.6635920405387878, 9.87966251373291, 1.1735942363739014, -1.1566524505615234, 15.422295570373535, -2.228259325027466, 4.5606279373168945, -0.58349609375, -0.75439453125, 0.403564453125, 0, 
374, 1042537458, 0.025578565895557404, -0.7420021295547485, -0.0926109179854393, -0.6634902358055115, 9.568720817565918, 1.2604581117630005, -1.2204440832138062, 12.994206428527832, -0.8813475370407104, 5.629471778869629, -0.585205078125, -0.756591796875, 0.402587890625, 0, 
375, 1042545791, 0.026758935302495956, -0.7420769333839417, -0.09311900287866592, -0.6632890105247498, 9.665399551391602, 1.3124525547027588, -1.062006950378418, 17.590927124023438, -2.145141839981079, 5.730840682983398, -0.58642578125, -0.75341796875, 0.405029296875, 0, 
376, 1042554124, 0.02779216691851616, -0.7421801090240479, -0.09354327619075775, -0.6630712151527405, 9.920646667480469, 1.0703250169754028, -0.7936362028121948, 15.326087951660156, -2.72123122215271, 5.2404561042785645, -0.587890625, -0.755615234375, 0.40283203125, 0, 
377, 1042562457, 0.028506062924861908, -0.7422019839286804, -0.09359487891197205, -0.6630091667175293, 9.410390853881836, 1.1238957643508911, -0.7661165595054626, 8.507845878601074, -0.6684932708740234, 6.013275623321533, -0.584228515625, -0.75146484375, 0.403564453125, 0, 
378, 1042570790, 0.029222752898931503, -0.7423935532569885, -0.09372259676456451, -0.6627454161643982, 9.012495040893555, 1.288305401802063, -0.9891979098320007, 9.416280746459961, -4.292318820953369, 5.515795707702637, -0.585693359375, -0.74951171875, 0.404541015625, 0, 
379, 1042579123, 0.02992929518222809, -0.7425480484962463, -0.09400530159473419, -0.6625007390975952, 9.635398864746094, 1.336432695388794, -0.5902460813522339, 10.722696304321289, -3.843672275543213, 3.829418182373047, -0.585693359375, -0.74853515625, 0.4072265625, 0, 
380, 1042587456, 0.030623052269220352, -0.7426952719688416, -0.09434141963720322, -0.6622561812400818, 10.18271255493164, 1.0004608631134033, -0.8129329085350037, 11.074840545654297, -3.805250883102417, 3.1171629428863525, -0.590087890625, -0.749267578125, 0.408203125, 0, 
381, 1042595789, 0.031227335333824158, -0.7427732944488525, -0.09448711574077606, -0.6621198058128357, 10.20827579498291, 0.6330318450927734, -0.6234402656555176, 8.323244094848633, -2.1151082515716553, 4.15316915512085, -0.589111328125, -0.74951171875, 0.406005859375, 0, 
382, 1042604122, 0.03154900670051575, -0.7427210807800293, -0.09431138634681702, -0.6621879935264587, 9.508506774902344, 0.6866447925567627, -0.5301637649536133, 2.291795015335083, 0.9351372122764587, 4.5668768882751465, -0.5908203125, -0.746337890625, 0.408447265625, 0, 
383, 1042612455, 0.03199594095349312, -0.7427364587783813, -0.09437248855829239, -0.6621406674385071, 9.078041076660156, 0.5935345888137817, -0.7186983227729797, 5.8568620681762695, -0.8047481179237366, 3.4659011363983154, -0.59033203125, -0.748779296875, 0.40966796875, 0, 
384, 1042620788, 0.03226820006966591, -0.7428505420684814, -0.09452242404222488, -0.6619778871536255, 9.585267066955566, 0.47781968116760254, -0.8018290400505066, 4.980828762054443, -3.146631956100464, 1.1072138547897339, -0.5908203125, -0.74462890625, 0.41015625, 0, 
385, 1042629121, 0.03218825161457062, -0.742889404296875, -0.09453660994768143, -0.6619361639022827, 9.899856567382812, 0.32944202423095703, -0.9066283702850342, 0.03009672462940216, -1.6240065097808838, -0.8246886134147644, -0.59033203125, -0.7470703125, 0.4091796875, 0, 
386, 1042637454, 0.03214053437113762, -0.7429831027984619, -0.09463442116975784, -0.661819338798523, 9.963113784790039, 0.3122328519821167, -1.1510682106018066, 1.1869893074035645, -2.8874802589416504, -1.3210159540176392, -0.58837890625, -0.745361328125, 0.411376953125, 0, 
387, 1042645787, 0.032028794288635254, -0.7431809306144714, -0.09464947879314423, -0.6616003513336182, 9.839990615844727, 0.26920872926712036, -1.679999589920044, -0.1256762444972992, -4.924221515655518, -0.8376238942146301, -0.58984375, -0.74853515625, 0.412109375, 0, 
388, 1042654120, 0.0316602885723114, -0.7433218955993652, -0.09438366442918777, -0.6614977121353149, 9.69155502319336, 0.3453088104724884, -1.8097375631332397, -5.440898895263672, -3.430847406387329, -0.46981626749038696, -0.59033203125, -0.745361328125, 0.4111328125, 0, 
389, 1042662453, 0.03178601339459419, -0.743432343006134, -0.09453316032886505, -0.6613461375236511, 9.11605453491211, 0.028688769787549973, -1.5600711107254028, 3.474916696548462, -3.191047191619873, -0.19722960889339447, -0.58984375, -0.7470703125, 0.41162109375, 0, 
390, 1042670786, 0.03199297934770584, -0.7437441349029541, -0.09490466117858887, -0.6609326004981995, 9.788604736328125, -0.22808726131916046, -1.7367764711380005, 6.566991806030273, -7.688753604888916, -1.393619418144226, -0.59130859375, -0.74755859375, 0.410888671875, 0, 
391, 1042679119, 0.03180582821369171, -0.7438285946846008, -0.09488026052713394, -0.6608499884605408, 10.204036712646484, 0.15239235758781433, -1.4400506019592285, -1.384539008140564, -2.580698251724243, -1.3268301486968994, -0.590087890625, -0.745849609375, 0.412353515625, 0, 
392, 1042687452, 0.03200538828969002, -0.7439191341400146, -0.09507614374160767, -0.660710334777832, 9.725099563598633, 0.46372026205062866, -1.1150649785995483, 4.6363301277160645, -2.8068721294403076, -0.07934009283781052, -0.587158203125, -0.744384765625, 0.4130859375, 0, 
393, 1042695785, 0.032430753111839294, -0.7441524863243103, -0.09551044553518295, -0.6603641510009766, 9.498241424560547, 0.4152373671531677, -1.332973837852478, 9.327949523925781, -6.0318193435668945, -0.14228707551956177, -0.590087890625, -0.746826171875, 0.41259765625, 0, 
394, 1042704118, 0.03283847123384476, -0.7443691492080688, -0.09598593413829803, -0.6600306630134583, 8.955134391784668, 0.1788567453622818, -1.3815791606903076, 9.50448226928711, -5.786487102508545, -0.8016487956047058, -0.58837890625, -0.74365234375, 0.416015625, 0, 
395, 1042712451, 0.033668894320726395, -0.7446961998939514, -0.09702688455581665, -0.6594675183296204, 9.186910629272461, -0.06013147160410881, -1.3828731775283813, 19.224809646606445, -8.840987205505371, -2.4532299041748047, -0.59326171875, -0.74365234375, 0.41455078125, 0, 
396, 1042720784, 0.034252673387527466, -0.744969367980957, -0.0979657769203186, -0.6589899063110352, 10.242170333862305, 0.03278186172246933, -1.3032819032669067, 15.676491737365723, -7.754506587982178, -3.809068441390991, -0.59130859375, -0.743896484375, 0.420654296875, 0, 
397, 1042729117, 0.034354764968156815, -0.745022177696228, -0.09832151979207993, -0.6588720679283142, 10.660470008850098, 0.9271348118782043, -0.9730203747749329, 5.083568096160889, -2.449310302734375, -2.612959623336792, -0.593017578125, -0.742919921875, 0.420166015625, 0, 
398, 1042737450, 0.034526679664850235, -0.7448970079421997, -0.0985361859202385, -0.6589723825454712, 10.02281665802002, 1.6388145685195923, -0.6402835249900818, 4.300233364105225, 1.5616614818572998, -0.9369431734085083, -0.588623046875, -0.7431640625, 0.419921875, 0, 
399, 1042745783, 0.03496452048420906, -0.7448738217353821, -0.09908491373062134, -0.6588932275772095, 9.412074089050293, 1.564658284187317, -0.7277193069458008, 10.256158828735352, -1.0019521713256836, -1.6673332452774048, -0.592529296875, -0.74267578125, 0.420166015625, 0, 
400, 1042754116, 0.03542693704366684, -0.7449347376823425, -0.09983010590076447, -0.6586869359016418, 9.403718948364258, 0.704803466796875, -0.48459258675575256, 12.409534454345703, -3.1264610290527344, -3.33613920211792, -0.593017578125, -0.741455078125, 0.419677734375, 0, 
401, 1042762449, 0.035865288227796555, -0.7450278401374817, -0.10077828913927078, -0.6584135293960571, 9.460707664489746, 0.5383282899856567, -1.0869746208190918, 14.089099884033203, -4.239002704620361, -5.502399921417236, -0.592041015625, -0.741943359375, 0.42529296875, 0, 
402, 1042770782, 0.03605613857507706, -0.7452336549758911, -0.10152514278888702, -0.6580554842948914, 9.697670936584473, 0.2864992320537567, -0.9531736373901367, 9.782448768615723, -6.371593475341797, -5.533418655395508, -0.58935546875, -0.74072265625, 0.425537109375, 0, 
403, 1042779115, 0.03594699129462242, -0.7451922297477722, -0.10181208699941635, -0.6580641865730286, 9.402125358581543, 0.7628065943717957, -0.7955362796783447, 2.166618585586548, -0.5646914839744568, -4.011958122253418, -0.59130859375, -0.744140625, 0.425537109375, 0, 
404, 1042787448, 0.03635728359222412, -0.7449082136154175, -0.10253232717514038, -0.658251166343689, 8.872506141662598, 1.2281196117401123, -0.8100818395614624, 11.272674560546875, 3.9665441513061523, -4.2322282791137695, -0.589111328125, -0.7451171875, 0.426025390625, 0, 
405, 1042795781, 0.03712853789329529, -0.7445376515388489, -0.10379303991794586, -0.6584296822547913, 9.061863899230957, 0.7718364000320435, -1.183341145515442, 19.92559242248535, 4.904962062835693, -6.565418243408203, -0.59130859375, -0.744140625, 0.426025390625, 0, 
406, 1042804114, 0.03804701566696167, -0.7441094517707825, -0.10535824298858643, -0.6586126685142517, 9.283038139343262, -0.12952955067157745, -1.1875022649765015, 24.207094192504883, 5.521344184875488, -8.484976768493652, -0.589599609375, -0.743408203125, 0.427978515625, 0, 
407, 1042812447, 0.03916490823030472, -0.7437868714332581, -0.10724683851003647, -0.6586068272590637, 9.850882530212402, -0.6349132061004639, -1.1566082239151, 29.4010066986084, 2.7590012550354004, -9.686184883117676, -0.5888671875, -0.744384765625, 0.431640625, 0, 
408, 1042820780, 0.04027366638183594, -0.7435809969902039, -0.10926321893930435, -0.658440887928009, 10.408546447753906, 0.05999755859375, -2.2076077461242676, 30.62749481201172, -0.02482021600008011, -10.870587348937988, -0.587646484375, -0.744384765625, 0.431396484375, 0, 
409, 1042829113, 0.04120514541864395, -0.7432401180267334, -0.11096265912055969, -0.6584841012954712, 10.879055976867676, 0.6817806959152222, -1.7881553173065186, 25.716245651245117, 3.2511653900146484, -9.500645637512207, -0.588623046875, -0.74658203125, 0.43115234375, 0, 
410, 1042837446, 0.04208846762776375, -0.7423961758613586, -0.1121225655078888, -0.6591832637786865, 9.94041633605957, 1.343678593635559, -1.24537193775177, 19.613088607788086, 14.738412857055664, -5.6205735206604, -0.58984375, -0.748046875, 0.43359375, 0, 
411, 1042845779, 0.04362521693110466, -0.7417764663696289, -0.11384005844593048, -0.6594864130020142, 8.91525936126709, 1.6473345756530762, -1.6991008520126343, 31.828933715820312, 9.352880477905273, -4.755236625671387, -0.586181640625, -0.746826171875, 0.432373046875, 0, 
412, 1042854112, 0.04426676779985428, -0.7417178153991699, -0.11518324166536331, -0.6592763066291809, 9.559026718139648, 1.1792458295822144, -2.3853979110717773, 19.756587982177734, -2.1521859169006348, -7.92686653137207, -0.586181640625, -0.74755859375, 0.43603515625, 0, 
413, 1042862445, 0.04506157711148262, -0.7412972450256348, -0.11647797375917435, -0.6594680547714233, 10.138521194458008, 1.3381766080856323, -1.9637181758880615, 20.477397918701172, 5.506255149841309, -6.803424835205078, -0.587890625, -0.746337890625, 0.435791015625, 0, 
414, 1042870778, 0.04624273255467415, -0.7409558296203613, -0.11788219958543777, -0.6595206260681152, 10.097909927368164, 1.3312069177627563, -2.3164119720458984, 25.573726654052734, 3.919774293899536, -4.258023262023926, -0.587158203125, -0.748046875, 0.437744140625, 0, 
415, 1042879111, 0.047179821878671646, -0.74052894115448, -0.11884584277868271, -0.6597606539726257, 9.823915481567383, 1.9753687381744385, -2.6766035556793213, 18.850711822509766, 6.487434387207031, -2.1850998401641846, -0.587890625, -0.75244140625, 0.43310546875, 0, 
416, 1042887444, 0.04833392798900604, -0.7402083277702332, -0.11982230842113495, -0.659860372543335, 9.457220077514648, 1.6922805309295654, -1.9626544713974, 21.328203201293945, 4.446594715118408, -0.13567866384983063, -0.58544921875, -0.747802734375, 0.43798828125, 0, 
417, 1042895777, 0.04978737235069275, -0.7399478554725647, -0.12101177126169205, -0.6598272919654846, 9.309386253356934, 0.8181897401809692, -1.7375471591949463, 26.496543884277344, 2.89724063873291, 0.6532017588615417, -0.5849609375, -0.74658203125, 0.439453125, 0, 
418, 1042904110, 0.05088294669985771, -0.7397659420967102, -0.12186647206544876, -0.6597903966903687, 9.673028945922852, 0.6555249691009521, -2.057095766067505, 19.76073455810547, 1.7880918979644775, 0.8979712724685669, -0.58642578125, -0.74658203125, 0.4384765625, 0, 
419, 1042912443, 0.051929671317338943, -0.7394825220108032, -0.12256542593240738, -0.6598971486091614, 9.806727409362793, 1.2579810619354248, -1.8806252479553223, 17.69007682800293, 4.187274932861328, 1.8165490627288818, -0.590087890625, -0.750244140625, 0.437744140625, 0, 
420, 1042920776, 0.0530921034514904, -0.7392470240592957, -0.12333366274833679, -0.6599254012107849, 9.941361427307129, 1.4167333841323853, -1.5724084377288818, 19.58340835571289, 3.1124765872955322, 2.2519402503967285, -0.5908203125, -0.74560546875, 0.44189453125, 0, 
421, 1042929109, 0.05417121574282646, -0.73895663022995, -0.12391556799411774, -0.6600539088249207, 9.92451286315918, 1.4503635168075562, -1.3798948526382446, 16.923931121826172, 4.612445831298828, 3.2701058387756348, -0.587158203125, -0.743896484375, 0.439453125, 0, 
422, 1042937442, 0.055342547595500946, -0.7386499047279358, -0.12445947527885437, -0.6601976156234741, 9.473462104797363, 1.2372581958770752, -1.3097257614135742, 17.495054244995117, 5.117303371429443, 4.410759925842285, -0.587646484375, -0.746826171875, 0.440185546875, 0, 
423, 1042945775, 0.05617794767022133, -0.7384768128395081, -0.12471084296703339, -0.6602730751037598, 9.381624221801758, 1.0316851139068604, -1.0858443975448608, 11.45001220703125, 2.841169834136963, 4.655989646911621, -0.59033203125, -0.74072265625, 0.443603515625, 0, 
424, 1042954108, 0.05652162805199623, -0.7384648323059082, -0.1245952621102333, -0.6602790951728821, 9.407150268554688, 1.32954740524292, -1.270200252532959, 3.1108102798461914, 0.1274692267179489, 4.206817626953125, -0.5908203125, -0.7412109375, 0.440185546875, 0, 
425, 1042962441, 0.05688460171222687, -0.7384305596351624, -0.12446177750825882, -0.6603114008903503, 9.500354766845703, 1.1444441080093384, -0.9402244091033936, 3.1258974075317383, 0.6308914422988892, 4.546872615814209, -0.587890625, -0.740478515625, 0.440673828125, 0, 
426, 1042970774, 0.05708903819322586, -0.7385990023612976, -0.12428168207406998, -0.6601392030715942, 9.50965690612793, 0.8591809868812561, -1.1329141855239868, 1.2798024415969849, -3.504718780517578, 4.046677589416504, -0.5927734375, -0.742431640625, 0.443603515625, 0, 
427, 1042979107, 0.05720094218850136, -0.7387105226516724, -0.12407176196575165, -0.6600443124771118, 9.635014533996582, 0.5849079489707947, -1.2293856143951416, -0.014139057137072086, -2.3558948040008545, 3.391721487045288, -0.590087890625, -0.7431640625, 0.440185546875, 0, 
428, 1042987440, 0.05749667435884476, -0.7388066053390503, -0.12399889528751373, -0.6599248051643372, 9.558273315429688, 0.16633236408233643, -1.1888270378112793, 3.1431100368499756, -2.243192195892334, 3.6241965293884277, -0.590576171875, -0.740478515625, 0.43896484375, 0, 
429, 1042995773, 0.05772608518600464, -0.7389124631881714, -0.12391608953475952, -0.6598019003868103, 9.508410453796387, -0.019784782081842422, -1.399582862854004, 2.3855435848236084, -2.4864251613616943, 3.1789188385009766, -0.593017578125, -0.739501953125, 0.443359375, 0, 
430, 1043004106, 0.057803571224212646, -0.7388975024223328, -0.1237628161907196, -0.65984046459198, 9.646279335021973, 0.17924511432647705, -1.4586135149002075, 0.01433116476982832, 0.06025748327374458, 2.144948720932007, -0.5927734375, -0.739013671875, 0.44140625, 0, 
431, 1043012439, 0.057864949107170105, -0.7388300895690918, -0.12362635880708694, -0.6599361300468445, 9.566171646118164, 0.5612978339195251, -1.4215681552886963, -0.04251962900161743, 1.0623117685317993, 1.731919288635254, -0.593994140625, -0.739501953125, 0.439697265625, 0, 
432, 1043020772, 0.05791708827018738, -0.7387604713439941, -0.1234591007232666, -0.6600409150123596, 9.550951957702637, 0.6732710003852844, -1.347890853881836, -0.4396683871746063, 1.19896399974823, 1.9076074361801147, -0.5908203125, -0.743896484375, 0.438720703125, 0, 
433, 1043029105, 0.05792506784200668, -0.738671064376831, -0.12323746085166931, -0.6601817607879639, 9.573270797729492, 0.9687972068786621, -1.2440279722213745, -1.418452262878418, 1.6978907585144043, 2.0381758213043213, -0.59326171875, -0.73876953125, 0.4384765625, 0, 
434, 1043037438, 0.057904694229364395, -0.7385050654411316, -0.12299058586359024, -0.6604150533676147, 9.691244125366211, 1.2495741844177246, -1.0635831356048584, -2.0425174236297607, 3.320680618286133, 1.7932015657424927, -0.591064453125, -0.740478515625, 0.439453125, 0, 
435, 1043045771, 0.05782753974199295, -0.7382517457008362, -0.12282075732946396, -0.6607365608215332, 9.751358032226562, 1.3081706762313843, -1.2817132472991943, -1.9869219064712524, 4.834469318389893, 0.3181160092353821, -0.592041015625, -0.739501953125, 0.435546875, 0, 
436, 1043054104, 0.05778886750340462, -0.7380446791648865, -0.12280071526765823, -0.6609750986099243, 9.487655639648438, 0.8645933866500854, -1.5193358659744263, -0.14425937831401825, 3.535597085952759, -0.7480125427246094, -0.591552734375, -0.7421875, 0.436279296875, 0, 
437, 1043062437, 0.05784245580434799, -0.7379223704338074, -0.12288855761289597, -0.6610907316207886, 9.442429542541504, 0.20789308845996857, -1.4054162502288818, 1.9253966808319092, 1.5713566541671753, -0.7251262068748474, -0.589599609375, -0.736083984375, 0.436767578125, 0, 
438, 1043070770, 0.057911310344934464, -0.7378722429275513, -0.12299171090126038, -0.6611213684082031, 9.797918319702148, 0.12942183017730713, -1.5814770460128784, 2.296687364578247, 0.08364327996969223, -0.5888712406158447, -0.592529296875, -0.741455078125, 0.438720703125, 0, 
