PacketCounter,SampleTimeFine,Quat_W,Quat_X,Quat_Y,Quat_Z,Acc_X,Acc_Y,Acc_Z,Gyr_X,Gyr_Y,Gyr_Z,Mag_X,Mag_Y,Mag_Z,Status,
0, 1049953828, 0.00704480055719614, -0.6724987030029297, -0.09885725378990173, -0.733444333076477, 0, 0, 0, 0, 0, 0, -0.498291015625, -0.86181640625, 0.222900390625, 0, 
1, 1049962161, 0.0065340399742126465, -0.6722960472106934, -0.09847676753997803, -0.7336860299110413, 9.771299362182617, 1.0984011888504028, 0.7947431206703186, -8.189474105834961, 2.887134552001953, -1.9532520771026611, -0.494384765625, -0.8564453125, 0.224365234375, 0, 
2, 1049970494, 0.006014482118189335, -0.6720671653747559, -0.09815043956041336, -0.7339438199996948, 9.781976699829102, 0.7664925456047058, 0.7913157343864441, -7.742556571960449, 3.285691499710083, -2.5793919563293457, -0.498291015625, -0.858642578125, 0.221923828125, 0, 
3, 1049978827, 0.0055756885558366776, -0.6718184947967529, -0.09795894473791122, -0.7342004776000977, 9.786980628967285, 0.534147322177887, 0.6656574606895447, -5.632429599761963, 3.5710601806640625, -3.036555051803589, -0.49609375, -0.85986328125, 0.22119140625, 0, 
4, 1049987160, 0.005212033167481422, -0.6715338230133057, -0.09785972535610199, -0.7344767451286316, 9.7973051071167, 0.38709819316864014, 0.555030882358551, -4.0296950340271, 4.209904193878174, -3.183964729309082, -0.4951171875, -0.8603515625, 0.221923828125, 0, 
5, 1049995493, 0.004878079518675804, -0.6712445020675659, -0.09786030650138855, -0.7347434163093567, 9.797138214111328, 0.48444560170173645, 0.6842755675315857, -2.7357797622680664, 4.200260639190674, -3.808478593826294, -0.495361328125, -0.85986328125, 0.21826171875, 0, 
6, 1050003826, 0.004498287104070187, -0.6709380745887756, -0.09788021445274353, -0.7350232005119324, 9.786210060119629, 0.8052756190299988, 0.6597925424575806, -2.9795243740081787, 4.43401575088501, -4.4775471687316895, -0.497314453125, -0.86181640625, 0.218505859375, 0, 
7, 1050012159, 0.004013040103018284, -0.6706212759017944, -0.09783550351858139, -0.7353209853172302, 9.686959266662598, 1.153942346572876, 0.49661287665367126, -4.629158020019531, 4.564725399017334, -4.957327365875244, -0.490966796875, -0.86279296875, 0.2177734375, 0, 
8, 1050020492, 0.0034778164699673653, -0.6703084111213684, -0.09774777293205261, -0.735620379447937, 9.57906436920166, 1.3405014276504517, 0.573541522026062, -5.528756141662598, 4.477432727813721, -5.068109512329102, -0.490478515625, -0.86279296875, 0.216064453125, 0, 
9, 1050028825, 0.002827894873917103, -0.6700194478034973, -0.09756182879209518, -0.7359110116958618, 9.546554565429688, 1.3696993589401245, 0.7243176698684692, -7.568417549133301, 4.00400447845459, -5.283448696136475, -0.489990234375, -0.863037109375, 0.218017578125, 0, 
10, 1050037158, 0.0020805737003684044, -0.6697354912757874, -0.09734941273927689, -0.7362001538276672, 9.640047073364258, 1.257397174835205, 0.7601075172424316, -8.731919288635254, 3.8094642162323, -6.026594638824463, -0.49072265625, -0.862060546875, 0.214111328125, 0, 
11, 1050045491, 0.0013003330677747726, -0.6693976521492004, -0.09713006019592285, -0.7365381121635437, 9.69534683227539, 1.1779696941375732, 0.8716114163398743, -9.169332504272461, 4.761519908905029, -6.3615007400512695, -0.48974609375, -0.864990234375, 0.212890625, 0, 
12, 1050053824, 0.0005671083927154541, -0.6690464615821838, -0.0969768837094307, -0.7368781566619873, 9.656638145446777, 1.1455373764038086, 0.8300678133964539, -8.068792343139648, 4.9785237312316895, -6.520795822143555, -0.48974609375, -0.866943359375, 0.211669921875, 0, 
13, 1050062157, -0.00008767470717430115, -0.6686651706695557, -0.09695170819759369, -0.737227737903595, 9.744839668273926, 1.0838977098464966, 0.7580863833427429, -6.061967849731445, 5.473570346832275, -6.934362888336182, -0.488037109375, -0.866455078125, 0.210693359375, 0, 
14, 1050070490, -0.0006799567490816116, -0.6682425737380981, -0.09702637791633606, -0.7376006245613098, 9.77043628692627, 1.0895941257476807, 0.7798237204551697, -4.507440090179443, 6.190641403198242, -7.283075332641602, -0.486083984375, -0.86669921875, 0.210693359375, 0, 
15, 1050078823, -0.001235075294971466, -0.6678318977355957, -0.09716998785734177, -0.7379528880119324, 9.777708053588867, 1.1617891788482666, 0.7675185799598694, -3.437584400177002, 5.92888879776001, -7.516318321228027, -0.48779296875, -0.871337890625, 0.21142578125, 0, 
16, 1050087156, -0.0017754454165697098, -0.6674108505249023, -0.09735406935214996, -0.7383083701133728, 9.731853485107422, 1.2582132816314697, 0.7115788459777832, -2.894331455230713, 6.089079856872559, -7.75983190536499, -0.483154296875, -0.8720703125, 0.209228515625, 0, 
17, 1050095489, -0.002398911863565445, -0.6670088171958923, -0.09748033434152603, -0.7386532425880432, 9.69968318939209, 1.3170660734176636, 0.7739040851593018, -4.231894493103027, 5.679854869842529, -8.040962219238281, -0.484130859375, -0.872314453125, 0.209228515625, 0, 
18, 1050103822, -0.0031324848532676697, -0.6666268706321716, -0.09748601913452148, -0.7389944791793823, 9.685712814331055, 1.288384199142456, 0.8272542953491211, -6.463125228881836, 5.295205593109131, -8.034199714660645, -0.484375, -0.87255859375, 0.20751953125, 0, 
19, 1050112155, -0.003986554220318794, -0.6662432551383972, -0.09742143005132675, -0.7393447756767273, 9.663837432861328, 1.199819803237915, 0.9601805210113525, -8.290241241455078, 5.227430820465088, -8.606807708740234, -0.47998046875, -0.873291015625, 0.206298828125, 0, 
20, 1050120488, -0.004960661754012108, -0.6658509373664856, -0.09730683267116547, -0.7397072911262512, 9.638381958007812, 1.0285660028457642, 1.0377929210662842, -9.919266700744629, 5.267990589141846, -9.38982105255127, -0.48095703125, -0.8759765625, 0.20458984375, 0, 
21, 1050128821, -0.005972439423203468, -0.6654745936393738, -0.09720228612422943, -0.7400521636009216, 9.634140014648438, 0.8505761027336121, 1.0219868421554565, -10.134428024291992, 4.889643669128418, -9.836380958557129, -0.477294921875, -0.87841796875, 0.20361328125, 0, 
22, 1050137154, -0.0069785770028829575, -0.6650984287261963, -0.09722303599119186, -0.7403784990310669, 9.657299995422363, 0.6103966236114502, 1.0014337301254272, -8.782073020935059, 4.742080211639404, -10.937589645385742, -0.47998046875, -0.878173828125, 0.2041015625, 0, 
23, 1050145487, -0.007913665845990181, -0.6647295951843262, -0.09744220972061157, -0.7406715750694275, 9.702825546264648, 0.4152185022830963, 1.0805494785308838, -6.0673089027404785, 4.472886562347412, -12.009965896606445, -0.476806640625, -0.88134765625, 0.2021484375, 0, 
24, 1050153820, -0.008693968877196312, -0.6643886566162109, -0.09796524047851562, -0.7408996224403381, 9.72524356842041, 0.34549686312675476, 1.000773310661316, -1.469283938407898, 3.8362321853637695, -13.194869041442871, -0.47314453125, -0.881591796875, 0.202392578125, 0, 
25, 1050162153, -0.009281493723392487, -0.6640581488609314, -0.09883821755647659, -0.741072952747345, 9.71241283416748, 0.19985859096050262, 0.9790205955505371, 3.934487819671631, 3.529552698135376, -14.407318115234375, -0.47021484375, -0.8798828125, 0.19970703125, 0, 
26, 1050170486, -0.009974701330065727, -0.6637367606163025, -0.09973455220460892, -0.7412316203117371, 9.75488567352295, 0.0922437235713005, 1.1443592309951782, 3.2270610332489014, 3.1646649837493896, -15.703154563903809, -0.47216796875, -0.885986328125, 0.205078125, 0, 
27, 1050178819, -0.010884474962949753, -0.6634061336517334, -0.10050833970308304, -0.7414102554321289, 9.767128944396973, 0.177871972322464, 1.2851864099502563, -0.026293013244867325, 3.1239635944366455, -16.785560607910156, -0.46875, -0.88525390625, 0.19970703125, 0, 
28, 1050187152, -0.011881262063980103, -0.6630478501319885, -0.10142756998538971, -0.7415903210639954, 9.809686660766602, 0.2696220576763153, 1.4370014667510986, 0.6533937454223633, 3.323575735092163, -19.058290481567383, -0.466552734375, -0.88671875, 0.202880859375, 0, 
29, 1050195485, -0.012976756319403648, -0.6626662015914917, -0.10268251597881317, -0.741740345954895, 9.881379127502441, 0.11121245473623276, 1.4586896896362305, 3.2190704345703125, 3.202702760696411, -23.143253326416016, -0.4677734375, -0.8896484375, 0.202880859375, 0, 
30, 1050203818, -0.0140204057097435, -0.6622685790061951, -0.10445641726255417, -0.7418288588523865, 9.754405975341797, -0.356444388628006, 1.3176190853118896, 9.06529426574707, 2.97245717048645, -27.400550842285156, -0.462890625, -0.893310546875, 0.20556640625, 0, 
31, 1050212151, -0.014949452131986618, -0.6619434952735901, -0.1067233756184578, -0.7417781949043274, 9.468951225280762, -0.9895458817481995, 1.4167054891586304, 15.356480598449707, 1.222632646560669, -30.620695114135742, -0.464111328125, -0.89794921875, 0.20361328125, 0, 
32, 1050220484, -0.015940925106406212, -0.6617093086242676, -0.10918545722961426, -0.7416081428527832, 9.315282821655273, -1.5673813819885254, 1.866194486618042, 16.969642639160156, -0.8428629636764526, -32.95482635498047, -0.457763671875, -0.900390625, 0.208984375, 0, 
33, 1050228817, -0.017049815505743027, -0.6614490747451782, -0.111874058842659, -0.7414148449897766, 9.423638343811035, -2.0174508094787598, 2.344850540161133, 18.242319107055664, -0.915454089641571, -36.22626495361328, -0.45361328125, -0.900390625, 0.214599609375, 0, 
34, 1050237150, -0.018179768696427345, -0.6612125039100647, -0.11504808068275452, -0.7411132454872131, 9.50881290435791, -2.407473087310791, 2.4160056114196777, 23.17161750793457, -2.060208320617676, -40.88444519042969, -0.45458984375, -0.90673828125, 0.21484375, 0, 
35, 1050245483, -0.019570041447877884, -0.6610292196273804, -0.11855243891477585, -0.7406889796257019, 9.60263729095459, -2.7213659286499023, 2.414989948272705, 24.37923812866211, -4.04782772064209, -46.44924545288086, -0.45263671875, -0.9140625, 0.218994140625, 0, 
36, 1050253816, -0.021509092301130295, -0.6608877778053284, -0.122036874294281, -0.7401953339576721, 9.7738676071167, -2.7976622581481934, 2.65728759765625, 19.312875747680664, -6.009640216827393, -51.85775375366211, -0.4453125, -0.91796875, 0.22265625, 0, 
37, 1050262149, -0.023780662566423416, -0.6607679724693298, -0.12576442956924438, -0.7396085858345032, 9.94270133972168, -2.8215909004211426, 2.724357843399048, 18.926624298095703, -7.5572357177734375, -57.394805908203125, -0.44189453125, -0.921875, 0.2314453125, 0, 
38, 1050270482, -0.026445763185620308, -0.6606814861297607, -0.12968041002750397, -0.7389188408851624, 10.129706382751465, -3.076873540878296, 2.8125534057617188, 17.458127975463867, -9.463702201843262, -63.14642333984375, -0.43798828125, -0.929931640625, 0.236083984375, 0, 
39, 1050278815, -0.02961632050573826, -0.6606322526931763, -0.13369794189929962, -0.7381261587142944, 10.274368286132812, -3.130052089691162, 2.6704304218292236, 14.09325885772705, -11.62829875946045, -69.11429595947266, -0.43115234375, -0.938232421875, 0.23974609375, 0, 
40, 1050287148, -0.033172279596328735, -0.6606544256210327, -0.13793587684631348, -0.7371746897697449, 10.446884155273438, -3.063702344894409, 2.372131109237671, 13.152519226074219, -14.432891845703125, -75.03872680664062, -0.42626953125, -0.94384765625, 0.246337890625, 0, 
41, 1050295481, -0.03703294321894646, -0.6607431173324585, -0.14241589605808258, -0.7360585331916809, 10.609373092651367, -2.96645450592041, 2.3190085887908936, 13.179678916931152, -17.05263900756836, -80.1995620727539, -0.421142578125, -0.949462890625, 0.24951171875, 0, 
42, 1050303814, -0.04115981608629227, -0.6609082221984863, -0.14714711904525757, -0.7347593307495117, 10.88495922088623, -2.551511526107788, 2.0681138038635254, 13.704094886779785, -19.905410766601562, -85.21086883544922, -0.41357421875, -0.956787109375, 0.2587890625, 0, 
43, 1050312147, -0.04546476528048515, -0.6611525416374207, -0.1522487998008728, -0.7332449555397034, 11.324858665466309, -1.8673495054244995, 1.9278723001480103, 16.30520248413086, -22.789764404296875, -90.248046875, -0.40478515625, -0.964111328125, 0.268310546875, 0, 
44, 1050320480, -0.04986026883125305, -0.6614589691162109, -0.1576836109161377, -0.7315322756767273, 11.91693115234375, -0.9206508994102478, 1.9058778285980225, 19.299518585205078, -25.22671890258789, -94.29134368896484, -0.399658203125, -0.970947265625, 0.274658203125, 0, 
45, 1050328813, -0.054173365235328674, -0.6618738770484924, -0.16344626247882843, -0.7295829653739929, 12.401121139526367, -0.03203188627958298, 1.7810120582580566, 23.929515838623047, -28.040035247802734, -96.26380920410156, -0.39013671875, -0.980224609375, 0.291259765625, 0, 
46, 1050337146, -0.05846678465604782, -0.6623866558074951, -0.16923636198043823, -0.7274627089500427, 12.811040878295898, 0.7136749625205994, 1.8797276020050049, 24.847665786743164, -30.542396545410156, -96.34344482421875, -0.38232421875, -0.987548828125, 0.297119140625, 0, 
47, 1050345479, -0.06248844414949417, -0.6630523204803467, -0.1751929074525833, -0.7251082062721252, 12.887419700622559, 1.1750085353851318, 1.354376196861267, 29.64935302734375, -33.41069793701172, -94.85348510742188, -0.374755859375, -0.992919921875, 0.306396484375, 0, 
48, 1050353812, -0.06604380905628204, -0.6638925671577454, -0.18147379159927368, -0.7224748730659485, 12.47599983215332, 1.4770355224609375, 1.325936198234558, 37.961708068847656, -36.32612991333008, -93.10972595214844, -0.36572265625, -1.0029296875, 0.318603515625, 0, 
49, 1050362145, -0.06990410387516022, -0.6647449135780334, -0.18760418891906738, -0.7197569608688354, 11.744439125061035, 2.149386405944824, 1.3956031799316406, 33.90015411376953, -38.08255386352539, -94.6835708618164, -0.35888671875, -1.004638671875, 0.331298828125, 0, 
50, 1050370478, -0.07335574924945831, -0.665814995765686, -0.19404932856559753, -0.7167089581489563, 11.545548439025879, 2.529759645462036, 0.18915224075317383, 41.816627502441406, -41.932979583740234, -93.40726470947266, -0.3505859375, -1.01123046875, 0.34228515625, 0, 
51, 1050378811, -0.07588401436805725, -0.6672258973121643, -0.2008393108844757, -0.7132548093795776, 11.406381607055664, 2.7257556915283203, -0.9880334138870239, 55.093379974365234, -46.1627082824707, -86.82817077636719, -0.34521484375, -1.01904296875, 0.361572265625, 0, 
52, 1050387144, -0.07806513458490372, -0.66889888048172, -0.20727595686912537, -0.7096017003059387, 10.981917381286621, 2.526806354522705, -1.667932152748108, 55.64145278930664, -50.00806427001953, -79.80721282958984, -0.341552734375, -1.021240234375, 0.372802734375, 0, 
53, 1050395477, -0.08037623018026352, -0.6706167459487915, -0.21293075382709503, -0.7060389518737793, 10.911470413208008, 2.2238380908966064, -1.9847908020019531, 46.600460052490234, -50.78626251220703, -73.51583862304688, -0.333984375, -1.0244140625, 0.388916015625, 0, 
54, 1050403810, -0.08228480815887451, -0.6720601916313171, -0.21841000020503998, -0.7027651071548462, 10.632309913635254, 2.416804313659668, -1.7110145092010498, 47.457359313964844, -44.50869369506836, -68.6200942993164, -0.33203125, -1.031005859375, 0.40380859375, 0, 
55, 1050412143, -0.08362115919589996, -0.6732379198074341, -0.22373364865779877, -0.6997992396354675, 10.26740837097168, 3.3182497024536133, -1.47714364528656, 50.01898956298828, -37.51640319824219, -61.95582580566406, -0.32275390625, -1.0302734375, 0.41748046875, 0, 
56, 1050420476, -0.08461339771747589, -0.6743733882904053, -0.22823235392570496, -0.6971287727355957, 9.864592552185059, 4.0156450271606445, -1.2506959438323975, 44.303768157958984, -34.29860305786133, -50.94725036621094, -0.3154296875, -1.02978515625, 0.427490234375, 0, 
57, 1050428809, -0.08591796457767487, -0.6755456328392029, -0.23107491433620453, -0.6948943734169006, 9.34895133972168, 4.749383449554443, 0.17660190165042877, 24.208580017089844, -33.481327056884766, -37.80927658081055, -0.317138671875, -1.033935546875, 0.4345703125, 0, 
58, 1050437142, -0.08761481940746307, -0.6765331625938416, -0.23196032643318176, -0.693425178527832, 8.744357109069824, 5.673670291900635, 1.6456540822982788, -0.7943623065948486, -28.198448181152344, -23.214502334594727, -0.31103515625, -1.0361328125, 0.442138671875, 0, 
59, 1050445475, -0.088873952627182, -0.6774105429649353, -0.2314639836549759, -0.6925736665725708, 7.674813747406006, 6.442580699920654, 1.3681166172027588, -11.99352741241455, -21.637165069580078, -5.6367106437683105, -0.3115234375, -1.03662109375, 0.442626953125, 0, 
60, 1050453808, -0.08917076140642166, -0.6785529255867004, -0.229922816157341, -0.6919301152229309, 6.754995822906494, 6.454068183898926, 0.8801853060722351, -13.324085235595703, -20.47266387939453, 14.205382347106934, -0.3095703125, -1.034423828125, 0.439208984375, 0, 
61, 1050462141, -0.08949239552021027, -0.6797288656234741, -0.2263496071100235, -0.6919125318527222, 6.333217620849609, 5.457561016082764, 1.0749094486236572, -34.821311950683594, -17.486072540283203, 33.9564094543457, -0.316650390625, -1.034912109375, 0.43603515625, 0, 
62, 1050470474, -0.08950310945510864, -0.6807893514633179, -0.2209310382604599, -0.6926196813583374, 6.272557258605957, 4.201630592346191, 1.110931634902954, -51.87840270996094, -10.950973510742188, 54.552574157714844, -0.3212890625, -1.030029296875, 0.4326171875, 0, 
63, 1050478807, -0.08805537968873978, -0.6817882061004639, -0.21487216651439667, -0.6937279105186462, 6.463669776916504, 2.9482405185699463, 1.068562626838684, -45.61160659790039, -2.932657241821289, 74.8884048461914, -0.327392578125, -1.029541015625, 0.422119140625, 0, 
64, 1050487140, -0.08499099314212799, -0.682706892490387, -0.208456352353096, -0.6951627135276794, 6.924515247344971, 1.7752066850662231, 0.7005255818367004, -34.92518615722656, 5.203820705413818, 93.67567443847656, -0.337158203125, -1.0234375, 0.41259765625, 0, 
65, 1050495473, -0.08058300614356995, -0.6835611462593079, -0.20168133080005646, -0.6968446969985962, 7.662180423736572, 0.980615496635437, 0.1623344123363495, -26.525636672973633, 11.607491493225098, 110.13667297363281, -0.34619140625, -1.017333984375, 0.405029296875, 0, 
66, 1050503806, -0.07512453198432922, -0.6842573881149292, -0.19447055459022522, -0.6988180875778198, 8.524843215942383, 0.5559344291687012, 0.28422003984451294, -21.81108856201172, 18.253387451171875, 124.04377746582031, -0.360595703125, -1.0078125, 0.392578125, 0, 
67, 1050512139, -0.06877720355987549, -0.6846070885658264, -0.18692341446876526, -0.7011845707893372, 9.176830291748047, 0.39267557859420776, 0.6610399484634399, -18.087738037109375, 27.35078239440918, 135.36907958984375, -0.372314453125, -1.0029296875, 0.378662109375, 0, 
68, 1050520472, -0.06164580211043358, -0.6845853328704834, -0.17916779220104218, -0.7038885951042175, 9.505117416381836, 0.42368125915527344, 1.119522213935852, -13.938324928283691, 35.890220642089844, 144.1115264892578, -0.38623046875, -0.992431640625, 0.3671875, 0, 
69, 1050528805, -0.053710147738456726, -0.6842817068099976, -0.1714925467967987, -0.7067402005195618, 9.729144096374512, 0.5414291620254517, 1.332144856452942, -6.190159797668457, 42.095882415771484, 150.7174072265625, -0.400634765625, -0.981201171875, 0.35302734375, 0, 
70, 1050537138, -0.04508795589208603, -0.6836673021316528, -0.1639259159564972, -0.7097265720367432, 10.012731552124023, 0.77252197265625, 1.4991428852081299, 0.7736446261405945, 48.04191970825195, 155.5804443359375, -0.41259765625, -0.97021484375, 0.337890625, 0, 
71, 1050545471, -0.035954512655735016, -0.682728111743927, -0.1563878357410431, -0.7128464579582214, 10.157633781433105, 0.8930824995040894, 1.5815362930297852, 5.364126205444336, 53.67854690551758, 159.80645751953125, -0.42919921875, -0.958984375, 0.324462890625, 0, 
72, 1050553804, -0.02627384476363659, -0.6815059781074524, -0.1489296406507492, -0.7160283923149109, 10.235041618347168, 0.9293811917304993, 1.6843421459197998, 11.008358001708984, 58.208709716796875, 163.681396484375, -0.44287109375, -0.943359375, 0.309814453125, 0, 
73, 1050562137, -0.016161542385816574, -0.6800599694252014, -0.141569584608078, -0.7191889882087708, 10.317702293395996, 0.8364464640617371, 1.7918376922607422, 15.98399829864502, 61.17525863647461, 166.70803833007812, -0.456787109375, -0.935302734375, 0.294921875, 0, 
74, 1050570470, -0.005636591464281082, -0.6784131526947021, -0.1343783289194107, -0.7222768664360046, 10.428586959838867, 0.7021594643592834, 1.896106243133545, 21.608753204345703, 63.270938873291016, 168.63734436035156, -0.471923828125, -0.917724609375, 0.279052734375, 0, 
75, 1050578803, 0.005173784680664539, -0.676596462726593, -0.12741869688034058, -0.725239634513855, 10.485010147094727, 0.6121472716331482, 2.0709335803985596, 26.79165267944336, 64.3878173828125, 169.1541290283203, -0.478515625, -0.904052734375, 0.26318359375, 0, 
76, 1050587136, 0.016099995002150536, -0.6746224761009216, -0.12058664858341217, -0.7280808687210083, 10.5621919631958, 0.5559813976287842, 2.30014705657959, 29.367652893066406, 64.96603393554688, 168.68679809570312, -0.49267578125, -0.888427734375, 0.25146484375, 0, 
77, 1050595469, 0.026984620839357376, -0.6725425124168396, -0.11384175717830658, -0.7307639122009277, 10.58226203918457, 0.6754655838012695, 2.316091775894165, 30.13761329650879, 64.52474212646484, 167.4891815185547, -0.502197265625, -0.8720703125, 0.234130859375, 0, 
78, 1050603802, 0.037745192646980286, -0.6703850030899048, -0.1071416437625885, -0.7332785129547119, 10.606790542602539, 0.7627801895141602, 2.115316152572632, 29.735000610351562, 63.47467041015625, 165.5981903076172, -0.511962890625, -0.85693359375, 0.21923828125, 0, 
79, 1050612135, 0.04820646345615387, -0.6682125329971313, -0.10045064985752106, -0.7355918288230896, 10.564431190490723, 0.6863616108894348, 1.8600324392318726, 27.371078491210938, 61.38525390625, 162.7501678466797, -0.52685546875, -0.841552734375, 0.203369140625, 0, 
80, 1050620468, 0.058154329657554626, -0.6660254001617432, -0.0936078131198883, -0.7377557754516602, 10.532363891601562, 0.5425975322723389, 1.728546380996704, 21.335145950317383, 59.486228942871094, 158.85781860351562, -0.535888671875, -0.828125, 0.186279296875, 0, 
81, 1050628801, 0.06752244383096695, -0.6638116240501404, -0.08664610981941223, -0.7398005723953247, 10.48667049407959, 0.4718228280544281, 1.7598947286605835, 14.991565704345703, 58.07915496826172, 154.2986602783203, -0.542724609375, -0.815185546875, 0.17333984375, 0, 
82, 1050637134, 0.07620654255151749, -0.6615532636642456, -0.07945476472377777, -0.7417844533920288, 10.370058059692383, 0.6600314974784851, 1.7285288572311401, 6.526333332061768, 57.30751419067383, 149.26551818847656, -0.545166015625, -0.79736328125, 0.154296875, 0, 
83, 1050645467, 0.08421508222818375, -0.6592913866043091, -0.07215359807014465, -0.7436760067939758, 10.171040534973145, 0.8207813501358032, 1.3644990921020508, -0.635553777217865, 55.94677734375, 143.6392059326172, -0.553955078125, -0.7822265625, 0.141357421875, 0, 
84, 1050653800, 0.09159709513187408, -0.6570779085159302, -0.06477254629135132, -0.745439887046814, 9.992833137512207, 0.8731909394264221, 1.1352431774139404, -7.061520099639893, 53.69683837890625, 137.9805450439453, -0.559326171875, -0.76708984375, 0.126953125, 0, 
85, 1050662133, 0.09807203710079193, -0.65497225522995, -0.05696224793791771, -0.7471051216125488, 9.764698028564453, 0.8396617770195007, 1.1850082874298096, -19.706130981445312, 51.50300598144531, 132.9521942138672, -0.563720703125, -0.752197265625, 0.1083984375, 0, 
86, 1050670466, 0.10387368500232697, -0.6529356837272644, -0.04886915907263756, -0.7486751675605774, 9.448057174682617, 0.7991412878036499, 1.0273572206497192, -28.69350242614746, 49.72050857543945, 128.59654235839844, -0.56982421875, -0.73828125, 0.0927734375, 0, 
87, 1050678799, 0.10918278247117996, -0.6510338187217712, -0.04070065915584564, -0.750063419342041, 9.06535530090332, 0.7273129820823669, 1.101604700088501, -33.96316909790039, 46.54640579223633, 124.72074127197266, -0.5703125, -0.72314453125, 0.075439453125, 0, 
88, 1050687132, 0.11404912918806076, -0.6493003368377686, -0.0324103869497776, -0.7512449026107788, 8.736979484558105, 0.2622034549713135, 1.205449104309082, -39.319122314453125, 42.82659149169922, 121.48304748535156, -0.574462890625, -0.71044921875, 0.0595703125, 0, 
89, 1050695465, 0.11859459429979324, -0.6477065086364746, -0.024171650409698486, -0.7522264719009399, 8.490888595581055, -0.10291191190481186, 1.6972966194152832, -41.783203125, 39.44255447387695, 118.25032806396484, -0.576904296875, -0.6982421875, 0.04541015625, 0, 
90, 1050703798, 0.12293243408203125, -0.6461488008499146, -0.016144149005413055, -0.7530844211578369, 8.301993370056152, -0.3212243914604187, 1.9418284893035889, -41.46485137939453, 37.49081039428711, 114.27273559570312, -0.57958984375, -0.680908203125, 0.03271484375, 0, 
91, 1050712131, 0.12724435329437256, -0.6446182727813721, -0.008648436516523361, -0.753803014755249, 8.214073181152344, -0.36653169989585876, 1.7371073961257935, -36.2041130065918, 35.129085540771484, 109.68042755126953, -0.583740234375, -0.668701171875, 0.0234375, 0, 
92, 1050720464, 0.1317102611064911, -0.643083393573761, -0.0019068075343966484, -0.7543939352035522, 8.187112808227539, -0.553094744682312, 1.4733599424362183, -26.998165130615234, 32.6789436340332, 104.6581039428711, -0.5849609375, -0.65625, 0.00830078125, 0, 
93, 1050728797, 0.13613249361515045, -0.6416351795196533, 0.004191110841929913, -0.7548325061798096, 8.203268051147461, -0.8828150033950806, 1.3854566812515259, -20.860742568969727, 29.328569412231445, 98.947021484375, -0.5830078125, -0.6455078125, -0.00634765625, 0, 
94, 1050737130, 0.1403161734342575, -0.6402946710586548, 0.009922570548951626, -0.755151093006134, 8.312909126281738, -1.2640045881271362, 1.4185540676116943, -19.370494842529297, 26.417634963989258, 93.3016128540039, -0.5888671875, -0.632568359375, -0.014404296875, 0, 
95, 1050745463, 0.14411529898643494, -0.6390393376350403, 0.015452091582119465, -0.7554060816764832, 8.383054733276367, -1.4265906810760498, 1.7079542875289917, -20.832603454589844, 24.697986602783203, 87.79560852050781, -0.5888671875, -0.6201171875, -0.01953125, 0, 
96, 1050753796, 0.14773009717464447, -0.6377813220024109, 0.0206433292478323, -0.755646824836731, 8.35360050201416, -1.3758724927902222, 1.9891637563705444, -18.93539810180664, 23.907093048095703, 82.78298950195312, -0.588134765625, -0.60693359375, -0.030029296875, 0, 
97, 1050762129, 0.15119539201259613, -0.6365607380867004, 0.02531503699719906, -0.7558485865592957, 8.150444030761719, -1.2052267789840698, 1.995697021484375, -14.934709548950195, 22.227367401123047, 76.89683532714844, -0.59130859375, -0.60009765625, -0.042724609375, 0, 
98, 1050770462, 0.1540321707725525, -0.6354720592498779, 0.0298119205981493, -0.7560279965400696, 7.932675838470459, -0.9891051054000854, 2.075528144836426, -12.71000862121582, 18.90300941467285, 69.94017791748047, -0.5927734375, -0.585693359375, -0.047119140625, 0, 
99, 1050778795, 0.15675196051597595, -0.634626567363739, 0.033592309802770615, -0.7560204863548279, 7.833927154541016, -0.9368983507156372, 1.9181110858917236, -13.066983222961426, 14.882768630981445, 61.651973724365234, -0.5908203125, -0.57958984375, -0.05517578125, 0, 
100, 1050787128, 0.15903879702091217, -0.6339752674102783, 0.036890193819999695, -0.755935549736023, 7.7534942626953125, -1.1810201406478882, 1.7413009405136108, -12.284069061279297, 11.285507202148438, 52.867454528808594, -0.592041015625, -0.572021484375, -0.06201171875, 0, 
101, 1050795461, 0.16093498468399048, -0.6334775686264038, 0.0395975261926651, -0.7558145523071289, 7.739619731903076, -1.5505623817443848, 1.8381234407424927, -9.90428638458252, 8.343467712402344, 43.81010055541992, -0.59423828125, -0.568359375, -0.06640625, 0, 
102, 1050803794, 0.16255362331867218, -0.6331071853637695, 0.04163777828216553, -0.7556687593460083, 7.676973342895508, -1.847315788269043, 2.011990785598755, -5.688723087310791, 5.4176859855651855, 34.950599670410156, -0.593505859375, -0.56103515625, -0.070556640625, 0, 
103, 1050812127, 0.1640053242444992, -0.6328383088111877, 0.0427958145737648, -0.7555156350135803, 7.639346122741699, -1.9585511684417725, 2.149515390396118, 1.7990037202835083, 2.4843642711639404, 25.642282485961914, -0.59814453125, -0.55419921875, -0.07177734375, 0, 
104, 1050820460, 0.16551026701927185, -0.6326152682304382, 0.04275359958410263, -0.7553767561912537, 7.545657634735107, -1.8472460508346558, 1.7132352590560913, 14.63508415222168, -0.6680068373680115, 15.545235633850098, -0.593994140625, -0.555419921875, -0.073974609375, 0, 
105, 1050828793, 0.16707858443260193, -0.6324553489685059, 0.04137116298079491, -0.7552422881126404, 7.573419094085693, -1.702154278755188, 1.3203312158584595, 28.96831512451172, -4.312069892883301, 4.643301010131836, -0.5986328125, -0.55322265625, -0.074462890625, 0, 
106, 1050837126, 0.16850769519805908, -0.6324083805084229, 0.03890135511755943, -0.7550953030586243, 7.662936687469482, -1.4553563594818115, 1.0811048746109009, 38.781402587890625, -8.076921463012695, -6.438966751098633, -0.599853515625, -0.555908203125, -0.074951171875, 0, 
107, 1050845459, 0.16966307163238525, -0.6324782967567444, 0.035419147461652756, -0.7549493908882141, 7.759975910186768, -0.9881713390350342, 1.024396300315857, 46.64634323120117, -11.415894508361816, -18.006860733032227, -0.603515625, -0.561767578125, -0.072509765625, 0, 
108, 1050853792, 0.1703341007232666, -0.6326786279678345, 0.031050899997353554, -0.7548226714134216, 7.670658588409424, -0.4987569749355316, 0.6657364964485168, 51.33677291870117, -14.500191688537598, -30.99000358581543, -0.6025390625, -0.56640625, -0.0732421875, 0, 
109, 1050862125, 0.17037954926490784, -0.6331982612609863, 0.02594906836748123, -0.7545692920684814, 7.378183364868164, -0.3145293891429901, 0.47194206714630127, 52.70680618286133, -20.30198097229004, -43.56513214111328, -0.601318359375, -0.572021484375, -0.065673828125, 0, 
110, 1050870458, 0.1696230173110962, -0.6341688632965088, 0.020422611385583878, -0.7540943026542664, 7.167430877685547, 0.11165370047092438, 0.7626520991325378, 48.99089050292969, -27.68304443359375, -55.35988998413086, -0.60302734375, -0.578125, -0.060302734375, 0, 
111, 1050878791, 0.16818886995315552, -0.6354606747627258, 0.01445185299962759, -0.7534657716751099, 7.016114711761475, 1.0662667751312256, 0.05379030853509903, 46.899696350097656, -33.13652801513672, -65.86005401611328, -0.60205078125, -0.58935546875, -0.0498046875, 0, 
112, 1050887124, 0.1664506196975708, -0.636913537979126, 0.007731758989393711, -0.752723753452301, 6.836807727813721, 2.0102427005767822, -0.9590989947319031, 51.60920333862305, -37.5319709777832, -75.45680236816406, -0.606689453125, -0.60302734375, -0.04296875, 0, 
113, 1050895457, 0.1644400656223297, -0.6387476921081543, 0.0001312512904405594, -0.7516505122184753, 7.1906328201293945, 2.191122531890869, -2.5331594944000244, 57.43305206298828, -46.30299377441406, -85.13998413085938, -0.6064453125, -0.612060546875, -0.032958984375, 0, 
114, 1050903790, 0.16261635720729828, -0.6411120891571045, -0.008851292543113232, -0.7499802708625793, 9.939894676208496, 0.4693807363510132, -2.6164870262145996, 72.15521240234375, -60.21519470214844, -94.11792755126953, -0.609619140625, -0.628173828125, -0.01416015625, 0, 
115, 1050912123, 0.16031228005886078, -0.6442298889160156, -0.016606977209448814, -0.747669517993927, 13.261710166931152, -2.557535171508789, 1.1798406839370728, 53.663536071777344, -70.88530731201172, -86.61407470703125, -0.617919921875, -0.64111328125, -0.003173828125, 0, 
116, 1050920456, 0.15778128802776337, -0.6479525566101074, -0.021777018904685974, -0.7448528409004211, 17.432891845703125, -7.762125492095947, 5.854475498199463, 23.84859848022461, -75.98892211914062, -64.89403533935547, -0.6181640625, -0.6474609375, 0.013916015625, 0, 
117, 1050928789, 0.15269097685813904, -0.6519890427589417, -0.020708343014121056, -0.7424180507659912, 20.615211486816406, -11.041702270507812, 13.142274856567383, -63.650238037109375, -62.978736877441406, -36.146602630615234, -0.624267578125, -0.650634765625, 0.025146484375, 0, 
118, 1050937122, 0.14784052968025208, -0.6542325615882874, -0.019010121002793312, -0.7414707541465759, 17.5102481842041, -6.804424285888672, 12.068659782409668, -64.58895874023438, -29.99805450439453, -31.801204681396484, -0.62841796875, -0.652587890625, 0.02880859375, 0, 
119, 1050945455, 0.14741858839988708, -0.6548855900764465, -0.024887990206480026, -0.740804135799408, 12.231919288635254, -0.7024804949760437, 6.397297382354736, 55.66300964355469, -25.44949722290039, -55.67924118041992, -0.62646484375, -0.654052734375, 0.033447265625, 0, 
120, 1050953788, 0.148758202791214, -0.6554972529411316, -0.03615594655275345, -0.7395299077033997, 10.876737594604492, 2.9102697372436523, 1.8885774612426758, 126.72317504882812, -40.90455627441406, -85.1865005493164, -0.628662109375, -0.668212890625, 0.044921875, 0, 
121, 1050962121, 0.14803580939769745, -0.6568701863288879, -0.04657920077443123, -0.7378718256950378, 11.010762214660645, 4.932236194610596, -0.2506861090660095, 98.18655395507812, -51.324275970458984, -97.25060272216797, -0.627197265625, -0.682373046875, 0.062255859375, 0, 
122, 1050970454, 0.145415797829628, -0.6586858034133911, -0.05436248332262039, -0.736240029335022, 10.342086791992188, 5.438005447387695, -2.0959765911102295, 53.33296585083008, -51.50955581665039, -92.54489135742188, -0.624267578125, -0.689208984375, 0.074462890625, 0, 
123, 1050978787, 0.14240683615207672, -0.6609153151512146, -0.06103450059890747, -0.7343048453330994, 9.110819816589355, 4.124560832977295, -3.5108790397644043, 37.963993072509766, -56.42658233642578, -85.38265228271484, -0.626220703125, -0.706787109375, 0.08984375, 0, 
124, 1050987120, 0.13853196799755096, -0.6637826561927795, -0.06649857759475708, -0.7319813966751099, 8.448386192321777, 2.590366840362549, -3.9678637981414795, 16.96811294555664, -64.83917236328125, -81.9513931274414, -0.6279296875, -0.709716796875, 0.105224609375, 0, 
125, 1050995453, 0.13415654003620148, -0.6667769551277161, -0.07129490375518799, -0.7296198010444641, 8.705157279968262, 1.7036113739013672, -3.2346506118774414, 5.476709365844727, -65.5707015991211, -80.60783386230469, -0.628173828125, -0.720458984375, 0.11669921875, 0, 
126, 1051003786, 0.13017496466636658, -0.6694650650024414, -0.07630801200866699, -0.7273688912391663, 9.372319221496582, 1.184873104095459, -3.1267764568328857, 11.714147567749023, -61.56415557861328, -79.23179626464844, -0.624755859375, -0.728271484375, 0.12939453125, 0, 
127, 1051012119, 0.1274009644985199, -0.6717886328697205, -0.08233460783958435, -0.7250570058822632, 10.376513481140137, 0.8912249207496643, -3.1425068378448486, 33.68918991088867, -58.95757293701172, -76.67305755615234, -0.62841796875, -0.7353515625, 0.141357421875, 0, 
128, 1051020452, 0.1258331686258316, -0.6736316680908203, -0.08921042084693909, -0.7228037714958191, 11.13361644744873, 1.2654411792755127, -2.806180953979492, 54.07129669189453, -53.806373596191406, -73.21634674072266, -0.6279296875, -0.74609375, 0.156494140625, 0, 
129, 1051028785, 0.12506110966205597, -0.6751223206520081, -0.09632421284914017, -0.7206307053565979, 10.861908912658691, 2.5636792182922363, -2.836591958999634, 64.32428741455078, -48.937068939208984, -68.0048828125, -0.62890625, -0.750732421875, 0.1689453125, 0, 
130, 1051037118, 0.12445372343063354, -0.676618754863739, -0.10293354094028473, -0.7184152603149414, 10.232807159423828, 4.165594577789307, -3.203094482421875, 60.89460754394531, -48.35085678100586, -61.681190490722656, -0.626220703125, -0.758544921875, 0.1826171875, 0, 
131, 1051045451, 0.12302542477846146, -0.6785225868225098, -0.1081496849656105, -0.7160955667495728, 9.950973510742188, 5.307675838470459, -3.4064910411834717, 38.94761276245117, -52.075801849365234, -56.00121307373047, -0.630615234375, -0.76416015625, 0.197021484375, 0, 
132, 1051053784, 0.12039901316165924, -0.680791437625885, -0.11177647113800049, -0.7138282060623169, 9.9805908203125, 5.601559162139893, -2.1824333667755127, 11.415068626403809, -54.31266403198242, -52.57593536376953, -0.6279296875, -0.76806640625, 0.2060546875, 0, 
133, 1051062117, 0.1162780299782753, -0.683175802230835, -0.11369660496711731, -0.7119278907775879, 10.135099411010742, 4.977663040161133, -0.7459511160850525, -20.077983856201172, -51.44358825683594, -51.6383056640625, -0.624755859375, -0.772705078125, 0.21923828125, 0, 
134, 1051070450, 0.11063607037067413, -0.6853713989257812, -0.11401590704917908, -0.7106642723083496, 10.244224548339844, 4.239676475524902, -0.10853998363018036, -50.735076904296875, -43.46302032470703, -52.84811019897461, -0.626953125, -0.776123046875, 0.223876953125, 0, 
135, 1051078783, 0.10431193560361862, -0.6873805522918701, -0.1135929748415947, -0.7097473740577698, 9.981364250183105, 3.496887445449829, 0.17400556802749634, -64.67401885986328, -38.28145217895508, -53.2940673828125, -0.623779296875, -0.782958984375, 0.22705078125, 0, 
136, 1051087116, 0.09850974380970001, -0.6893046498298645, -0.11349881440401077, -0.7087243795394897, 9.619730949401855, 2.3667471408843994, 0.494601309299469, -56.249229431152344, -38.13654708862305, -51.32052993774414, -0.62158203125, -0.787841796875, 0.23046875, 0, 
137, 1051095449, 0.09395155310630798, -0.6909810900688171, -0.11430651694536209, -0.7075802683830261, 9.4959716796875, 0.8167734146118164, 1.0965828895568848, -35.13774108886719, -36.12727355957031, -47.935848236083984, -0.62060546875, -0.792724609375, 0.239013671875, 0, 
138, 1051103782, 0.09059880673885345, -0.6923887729644775, -0.1160120964050293, -0.7063626646995544, 9.683255195617676, -0.692463755607605, 1.3740692138671875, -14.487760543823242, -33.50102996826172, -45.08991622924805, -0.618408203125, -0.7939453125, 0.241455078125, 0, 
139, 1051112115, 0.08826100826263428, -0.6934946775436401, -0.11861195415258408, -0.7051410675048828, 10.050738334655762, -1.4698439836502075, 0.8111857175827026, 4.247836589813232, -30.074691772460938, -44.19746780395508, -0.615478515625, -0.80078125, 0.250244140625, 0, 
140, 1051120448, 0.08636931329965591, -0.694486141204834, -0.12165023386478424, -0.7038807272911072, 10.396249771118164, -1.0029364824295044, 0.2954534590244293, 12.951128005981445, -29.17144775390625, -44.217185974121094, -0.616455078125, -0.801513671875, 0.253173828125, 0, 
141, 1051128781, 0.08423976600170135, -0.6954260468482971, -0.12435666471719742, -0.702737033367157, 10.192375183105469, 0.20486706495285034, -0.8429368138313293, 7.336803913116455, -27.531795501708984, -43.551151275634766, -0.613525390625, -0.808837890625, 0.2607421875, 0, 
142, 1051137114, 0.08187675476074219, -0.69645094871521, -0.12670660018920898, -0.7015804052352905, 9.422709465026855, 1.6558575630187988, -1.6121617555618286, 1.5820027589797974, -28.49303436279297, -42.26670837402344, -0.612548828125, -0.81201171875, 0.27001953125, 0, 
143, 1051145447, 0.07905352860689163, -0.6976155638694763, -0.12862861156463623, -0.7003962993621826, 9.14859676361084, 2.8993709087371826, -1.7051945924758911, -7.06298828125, -30.393386840820312, -42.30451965332031, -0.607666015625, -0.8154296875, 0.2734375, 0, 
144, 1051153780, 0.07512933015823364, -0.6989040970802307, -0.12937705218791962, -0.6994050145149231, 9.202129364013672, 3.5863726139068604, -1.807902455329895, -29.40505027770996, -30.436616897583008, -41.66928482055664, -0.612548828125, -0.81982421875, 0.279052734375, 0, 
145, 1051162113, 0.06997092068195343, -0.7002188563346863, -0.12874655425548553, -0.6987411975860596, 9.411494255065918, 4.159178733825684, -1.8956555128097534, -55.13739776611328, -28.284992218017578, -40.5494270324707, -0.60400390625, -0.82470703125, 0.27978515625, 0, 
146, 1051170446, 0.06424716114997864, -0.7014214396476746, -0.127523273229599, -0.6983089447021484, 9.609862327575684, 3.9358749389648438, -1.315961480140686, -66.58049011230469, -25.429590225219727, -40.71835708618164, -0.60302734375, -0.827880859375, 0.281494140625, 0, 
147, 1051178779, 0.058303434401750565, -0.7025547623634338, -0.12616552412509918, -0.6979376673698425, 10.050244331359863, 2.501420021057129, -0.17465490102767944, -70.0379867553711, -24.420948028564453, -41.68523025512695, -0.599853515625, -0.831787109375, 0.283203125, 0, 
148, 1051187112, 0.05267062783241272, -0.7034568190574646, -0.1250144988298416, -0.6976841688156128, 10.284579277038574, 1.1462687253952026, 0.340992271900177, -65.06912231445312, -20.70940399169922, -41.2081298828125, -0.598388671875, -0.841064453125, 0.285400390625, 0, 
149, 1051195445, 0.04769684374332428, -0.7042381763458252, -0.12438587844371796, -0.6973658800125122, 10.0401611328125, 0.5176767110824585, -0.16577687859535217, -53.4827766418457, -19.404529571533203, -40.086299896240234, -0.593017578125, -0.8427734375, 0.282958984375, 0, 
150, 1051203778, 0.043527621775865555, -0.7050088047981262, -0.12458200752735138, -0.6968247890472412, 9.801610946655273, 0.27299612760543823, -0.5225997567176819, -37.394386291503906, -20.642419815063477, -40.2404670715332, -0.591064453125, -0.84619140625, 0.285400390625, 0, 
151, 1051212111, 0.04009459540247917, -0.7057397961616516, -0.1256089210510254, -0.6961060166358948, 9.921720504760742, 0.5651320219039917, -0.4204469323158264, -21.968713760375977, -21.203384399414062, -41.19126892089844, -0.589111328125, -0.85107421875, 0.287841796875, 0, 
152, 1051220444, 0.03730541467666626, -0.7063267230987549, -0.12726165354251862, -0.695365309715271, 10.004426956176758, 1.7127807140350342, -0.3742794096469879, -9.609415054321289, -19.28567123413086, -41.35073471069336, -0.585693359375, -0.85595703125, 0.293701171875, 0, 
153, 1051228777, 0.03489873930811882, -0.7067661881446838, -0.12915782630443573, -0.694693922996521, 9.88337516784668, 3.0556745529174805, -0.7618772387504578, -3.6144564151763916, -16.64300537109375, -40.33833694458008, -0.5830078125, -0.860107421875, 0.296142578125, 0, 
154, 1051237110, 0.03246721625328064, -0.7071347236633301, -0.13088339567184448, -0.6941133737564087, 9.789933204650879, 3.5852558612823486, -0.7751404047012329, -5.611421585083008, -15.060529708862305, -39.10075759887695, -0.58251953125, -0.865478515625, 0.301025390625, 0, 
155, 1051245443, 0.02966911718249321, -0.7074609398841858, -0.13217468559741974, -0.6936613321304321, 9.844239234924316, 3.0532350540161133, -0.5746908187866211, -13.534379005432129, -13.856121063232422, -38.49795150756836, -0.576171875, -0.868896484375, 0.30224609375, 0, 
156, 1051253776, 0.026637759059667587, -0.7077586054801941, -0.1332462877035141, -0.6932757496833801, 9.89148235321045, 2.131540298461914, -0.4465765953063965, -18.00713348388672, -13.287522315979004, -38.6713752746582, -0.576416015625, -0.87353515625, 0.30224609375, 0, 
157, 1051262109, 0.023466378450393677, -0.7080416083335876, -0.13420769572257996, -0.692915678024292, 9.906023025512695, 0.9408099055290222, -0.6209997534751892, -20.463336944580078, -13.101000785827637, -38.96261215209961, -0.57568359375, -0.87841796875, 0.306640625, 0, 
158, 1051270442, 0.019993431866168976, -0.7083158493041992, -0.1349155455827713, -0.6926067471504211, 9.911513328552246, 0.09772303700447083, -1.0886086225509644, -25.904191970825195, -13.005655288696289, -39.404869079589844, -0.573486328125, -0.882568359375, 0.30712890625, 0, 
159, 1051278775, 0.016551606357097626, -0.7086522579193115, -0.13567191362380981, -0.6922056674957275, 9.843657493591309, -0.19426767528057098, -1.1295876502990723, -24.988811492919922, -14.43977165222168, -39.43439865112305, -0.56494140625, -0.885498046875, 0.307373046875, 0, 
160, 1051287108, 0.012721389532089233, -0.7092375755310059, -0.136081725358963, -0.6916064023971558, 9.730619430541992, -0.5601376891136169, -1.440225601196289, -31.755455017089844, -19.39809226989746, -39.253990173339844, -0.5634765625, -0.890869140625, 0.311279296875, 0, 
161, 1051295441, 0.008395963348448277, -0.7099432945251465, -0.13599815964698792, -0.6909645795822144, 9.82824993133545, -0.19245502352714539, -1.9217737913131714, -41.2213134765625, -21.783504486083984, -38.911258697509766, -0.557861328125, -0.8916015625, 0.3115234375, 0, 
162, 1051303774, 0.004520675167441368, -0.7106333374977112, -0.13632090389728546, -0.6902273893356323, 9.655774116516113, 0.5675328969955444, -1.4118752479553223, -32.78746795654297, -21.784337997436523, -38.630611419677734, -0.5576171875, -0.8974609375, 0.3154296875, 0, 
163, 1051312107, 0.0007536625489592552, -0.7113481760025024, -0.13680608570575714, -0.689409077167511, 9.583123207092285, 1.0882248878479004, -1.3566570281982422, -30.03531265258789, -22.606475830078125, -39.12667465209961, -0.552001953125, -0.903076171875, 0.31640625, 0, 
164, 1051320440, -0.0032185493037104607, -0.712101399898529, -0.13710914552211761, -0.6885636448860168, 9.72913932800293, 1.3744838237762451, -1.3869017362594604, -33.7200813293457, -23.62853240966797, -39.23563766479492, -0.552978515625, -0.90576171875, 0.3193359375, 0, 
165, 1051328773, -0.007165072485804558, -0.7127176523208618, -0.13741379976272583, -0.6878353357315063, 9.80593204498291, 2.0415103435516357, -0.7700087428092957, -33.679664611816406, -21.128395080566406, -39.24382400512695, -0.54736328125, -0.908203125, 0.318359375, 0, 
166, 1051337106, -0.011004356667399406, -0.7133606672286987, -0.13792960345745087, -0.6870139241218567, 9.676267623901367, 2.3466150760650635, -0.7859530448913574, -30.455123901367188, -22.076021194458008, -40.27626037597656, -0.546630859375, -0.913330078125, 0.3232421875, 0, 
167, 1051345439, -0.01509824488312006, -0.7140514254570007, -0.13836796581745148, -0.6861299276351929, 9.718330383300781, 2.0239012241363525, -0.43652263283729553, -33.55646514892578, -23.630970001220703, -41.82191848754883, -0.544677734375, -0.915283203125, 0.32421875, 0, 
168, 1051353772, -0.019236069172620773, -0.7147656083106995, -0.1388908475637436, -0.6851764917373657, 9.685165405273438, 1.380656361579895, -0.032727256417274475, -33.05656433105469, -24.60245704650879, -43.05452346801758, -0.537353515625, -0.91943359375, 0.32568359375, 0, 
169, 1051362105, -0.02298598363995552, -0.7154127359390259, -0.13990753889083862, -0.6841782331466675, 9.451082229614258, 0.4778923988342285, 0.1213894784450531, -24.51900863647461, -23.536212921142578, -44.374725341796875, -0.533203125, -0.924560546875, 0.3291015625, 0, 
170, 1051370438, -0.02661764621734619, -0.7160065770149231, -0.14129342138767242, -0.6831397414207458, 9.345686912536621, -0.012288641184568405, -0.2184520661830902, -19.826204299926758, -23.09031105041504, -47.02918243408203, -0.53076171875, -0.93017578125, 0.332275390625, 0, 
171, 1051378771, -0.030160285532474518, -0.7166871428489685, -0.14310488104820251, -0.6819007396697998, 9.361449241638184, -0.37151506543159485, -0.6033732891082764, -14.52602767944336, -25.547992706298828, -50.267982482910156, -0.528564453125, -0.9345703125, 0.335693359375, 0, 
172, 1051387104, -0.033884864300489426, -0.7173265814781189, -0.1450144350528717, -0.680648684501648, 9.57372760772705, -0.3591253459453583, -0.5360090136528015, -15.394307136535645, -25.612525939941406, -53.05186462402344, -0.5244140625, -0.94091796875, 0.3388671875, 0, 
173, 1051395437, -0.03768476843833923, -0.7178063988685608, -0.14707757532596588, -0.6794994473457336, 9.526613235473633, 0.3079454004764557, -0.46833351254463196, -14.977693557739258, -23.178709030151367, -55.5179443359375, -0.51953125, -0.94189453125, 0.345947265625, 0, 
174, 1051403770, -0.04130145162343979, -0.7182869911193848, -0.1495465189218521, -0.6782413721084595, 9.623366355895996, 0.7065308094024658, -0.46318840980529785, -9.15857982635498, -23.685178756713867, -57.89861297607422, -0.51513671875, -0.949462890625, 0.353515625, 0, 
175, 1051412103, -0.045056380331516266, -0.7186944484710693, -0.15217001736164093, -0.6769859790802002, 9.967280387878418, 0.6303725242614746, -0.17662134766578674, -9.126769065856934, -23.167163848876953, -60.83078384399414, -0.50634765625, -0.955810546875, 0.35400390625, 0, 
176, 1051420436, -0.049010518938302994, -0.7190344929695129, -0.1549428105354309, -0.6757200956344604, 10.235140800476074, 0.45041075348854065, 0.009827475994825363, -9.730952262878418, -22.97305679321289, -64.34598541259766, -0.50439453125, -0.96240234375, 0.358642578125, 0, 
177, 1051428769, -0.05315671116113663, -0.7193214893341064, -0.15790435671806335, -0.674414336681366, 10.369614601135254, -0.12490098923444748, 0.6325981616973877, -9.820454597473145, -23.15126609802246, -68.10118865966797, -0.50048828125, -0.9677734375, 0.3642578125, 0, 
178, 1051437102, -0.05752972513437271, -0.7195702791213989, -0.16123223304748535, -0.6730012893676758, 10.43751335144043, -0.7625415921211243, 0.7844887375831604, -8.467816352844238, -24.09017562866211, -74.02963256835938, -0.490966796875, -0.97119140625, 0.3740234375, 0, 
179, 1051445435, -0.062143292278051376, -0.7197972536087036, -0.16498258709907532, -0.6714375615119934, 10.416004180908203, -1.1439422369003296, 0.9213719367980957, -6.615058422088623, -25.57109260559082, -80.56409454345703, -0.488037109375, -0.980224609375, 0.37841796875, 0, 
180, 1051453768, -0.06695735454559326, -0.7200103998184204, -0.16907425224781036, -0.6697260141372681, 10.420456886291504, -1.2722588777542114, 1.0292468070983887, -5.13403844833374, -27.083187103271484, -86.0007095336914, -0.480224609375, -0.985107421875, 0.385986328125, 0, 
181, 1051462101, -0.07178503274917603, -0.7201546430587769, -0.17359226942062378, -0.6679125428199768, 10.456375122070312, -1.2210581302642822, 1.2671582698822021, -1.1602956056594849, -27.08348846435547, -90.55142211914062, -0.470458984375, -0.994140625, 0.388671875, 0, 
182, 1051470434, -0.07638835906982422, -0.7202573418617249, -0.17876526713371277, -0.6659239530563354, 10.45809555053711, -1.3596186637878418, 1.5592477321624756, 7.448338508605957, -27.272890090942383, -95.31316375732422, -0.462158203125, -1.004150390625, 0.398681640625, 0, 
183, 1051478767, -0.08128411322832108, -0.7203328013420105, -0.18432319164276123, -0.6637439131736755, 10.688972473144531, -1.3242233991622925, 1.1871113777160645, 8.52438735961914, -29.214557647705078, -102.00686645507812, -0.45361328125, -1.009521484375, 0.41015625, 0, 
184, 1051487100, -0.08639997988939285, -0.7202436923980713, -0.19014255702495575, -0.6615493297576904, 11.002413749694824, -0.7980241775512695, 1.0943430662155151, 8.576685905456543, -28.147388458251953, -107.11703491210938, -0.44384765625, -1.020751953125, 0.419189453125, 0, 
185, 1051495433, -0.09139752388000488, -0.7200525999069214, -0.19641904532909393, -0.6592481136322021, 11.1301851272583, -0.34605297446250916, 1.0744200944900513, 14.071523666381836, -27.398115158081055, -110.88410949707031, -0.43017578125, -1.030029296875, 0.43017578125, 0, 
186, 1051503766, -0.09623068571090698, -0.719819188117981, -0.2031700760126114, -0.6567643284797668, 11.201202392578125, -0.3344680964946747, 1.0743825435638428, 20.43412971496582, -27.816287994384766, -114.5259017944336, -0.4189453125, -1.037109375, 0.436767578125, 0, 
187, 1051512099, -0.10129587352275848, -0.7195146679878235, -0.2101343274116516, -0.6541399955749512, 11.686835289001465, -0.22867567837238312, 0.7954987287521362, 20.36890983581543, -28.89719581604004, -119.027099609375, -0.40625, -1.04443359375, 0.44775390625, 0, 
188, 1051520432, -0.10647878050804138, -0.7190020084381104, -0.2172343134880066, -0.6515559554100037, 12.063451766967773, 0.04774538800120354, 1.2912979125976562, 20.012941360473633, -26.818599700927734, -122.0765151977539, -0.395751953125, -1.05322265625, 0.459228515625, 0, 
189, 1051528765, -0.11189240217208862, -0.718302845954895, -0.22435572743415833, -0.6490015983581543, 12.224639892578125, 0.3150613009929657, 1.6541216373443604, 17.568510055541992, -25.47085952758789, -124.7675552368164, -0.382080078125, -1.06201171875, 0.4736328125, 0, 
190, 1051537098, -0.11747041344642639, -0.7176216244697571, -0.2316303253173828, -0.6462079286575317, 12.35828685760498, 0.10359885543584824, 1.563494086265564, 18.070520401000977, -28.315872192382812, -128.17579650878906, -0.368408203125, -1.070556640625, 0.482177734375, 0, 
191, 1051545431, -0.12339892238378525, -0.7169882655143738, -0.23910823464393616, -0.6430748105049133, 13.095048904418945, -0.9177817106246948, 1.3977587223052979, 17.585391998291016, -32.82748794555664, -133.57835388183594, -0.35400390625, -1.079833984375, 0.489990234375, 0, 
192, 1051553764, -0.12962864339351654, -0.7163011431694031, -0.24697400629520416, -0.6396328806877136, 14.173627853393555, -2.150113821029663, 1.0109587907791138, 18.964242935180664, -35.791412353515625, -140.89498901367188, -0.340087890625, -1.08544921875, 0.503662109375, 0, 
193, 1051562097, -0.13601022958755493, -0.7154672145843506, -0.25544273853302, -0.6359042525291443, 15.527199745178223, -3.6159145832061768, 0.9061357378959656, 23.487548828125, -36.704246520996094, -149.05308532714844, -0.323486328125, -1.09814453125, 0.514892578125, 0, 
194, 1051570430, -0.14268355071544647, -0.7142571210861206, -0.2639678418636322, -0.6323105692863464, 16.694496154785156, -4.155496597290039, 2.0338377952575684, 19.93067169189453, -33.077274322509766, -153.37631225585938, -0.3056640625, -1.107177734375, 0.52978515625, 0, 
195, 1051578763, -0.1497700959444046, -0.712757408618927, -0.27221569418907166, -0.6288575530052185, 16.96904945373535, -3.111705780029297, 2.6562886238098145, 12.385320663452148, -31.149812698364258, -154.8711700439453, -0.283203125, -1.11083984375, 0.5439453125, 0, 
196, 1051587096, -0.1573110967874527, -0.7112749814987183, -0.2802833914756775, -0.6251398324966431, 17.465896606445312, -2.0757815837860107, 2.463808059692383, 7.396792888641357, -36.04844665527344, -157.69873046875, -0.265869140625, -1.118408203125, 0.554931640625, 0, 
197, 1051595429, -0.1656091809272766, -0.7097102403640747, -0.2879556119441986, -0.6212760806083679, 18.43987274169922, -1.7357481718063354, 3.0434398651123047, -3.0216434001922607, -40.46182632446289, -160.78952026367188, -0.24755859375, -1.125732421875, 0.56298828125, 0, 
198, 1051603762, -0.17476648092269897, -0.7080696225166321, -0.294903039932251, -0.6173684597015381, 18.735095977783203, -1.7715202569961548, 4.001082420349121, -17.600353240966797, -45.392982482910156, -161.67018127441406, -0.22802734375, -1.13818359375, 0.574951171875, 0, 
199, 1051612095, -0.18506836891174316, -0.706333577632904, -0.30089282989501953, -0.6134523749351501, 18.372817993164062, -2.0329532623291016, 3.7455315589904785, -37.06731414794922, -51.50936508178711, -162.25872802734375, -0.203857421875, -1.144287109375, 0.580322265625, 0, 
200, 1051620428, -0.19634786248207092, -0.70445716381073, -0.30616894364356995, -0.6094799041748047, 17.28058433532715, -1.8892048597335815, 3.463796377182007, -52.70438766479492, -56.8466796875, -164.54318237304688, -0.1787109375, -1.152587890625, 0.582763671875, 0, 
201, 1051628761, -0.2080659568309784, -0.7026137113571167, -0.3112546503543854, -0.6051285266876221, 16.021894454956055, -1.7714403867721558, 3.1781821250915527, -56.86981201171875, -63.04389572143555, -167.01580810546875, -0.16064453125, -1.1611328125, 0.587646484375, 0, 
202, 1051637094, -0.21988405287265778, -0.7009820938110352, -0.31637436151504517, -0.6001663208007812, 15.281241416931152, -0.7047996520996094, -0.5039002299308777, -54.325374603271484, -71.1642837524414, -169.2969512939453, -0.13818359375, -1.169677734375, 0.594482421875, 0, 
203, 1051645427, -0.23103657364845276, -0.6996749639511108, -0.32198429107666016, -0.5944919586181641, 14.928855895996094, 1.7880215644836426, -3.895354986190796, -39.790565490722656, -76.20366668701172, -168.99148559570312, -0.110595703125, -1.1728515625, 0.595458984375, 0, 
204, 1051653760, -0.24060596525669098, -0.6987552642822266, -0.3282170295715332, -0.5883373022079468, 14.459432601928711, 4.819993495941162, -4.022758960723877, -16.103012084960938, -75.1368408203125, -162.1626434326172, -0.09033203125, -1.17919921875, 0.609375, 0, 
205, 1051662093, -0.24814337491989136, -0.6985688209533691, -0.33507782220840454, -0.5815210342407227, 13.264656066894531, 6.41241979598999, -2.9253885746002197, 13.910239219665527, -76.04344940185547, -150.32369995117188, -0.064453125, -1.179931640625, 0.616455078125, 0, 
206, 1051670426, -0.25326886773109436, -0.6993600130081177, -0.3425060212612152, -0.5739837884902954, 11.562089920043945, 5.799019813537598, -2.291696071624756, 48.273292541503906, -77.87562561035156, -134.77622985839844, -0.050048828125, -1.18115234375, 0.633056640625, 0, 
207, 1051678759, -0.25553905963897705, -0.7015755772590637, -0.35059472918510437, -0.5653248429298401, 10.209076881408691, 5.201805591583252, -3.6141910552978516, 91.19307708740234, -84.0181655883789, -115.4537353515625, -0.03466796875, -1.17529296875, 0.656494140625, 0, 
208, 1051687092, -0.2554709017276764, -0.7041294574737549, -0.35837242007255554, -0.5572460293769836, 10.650527000427246, 5.713311672210693, -3.8013253211975098, 109.71742248535156, -71.0238037109375, -90.949462890625, -0.029052734375, -1.170654296875, 0.683837890625, 0, 
209, 1051695425, -0.25535842776298523, -0.7052716612815857, -0.3642093539237976, -0.5520443916320801, 10.255078315734863, 7.216350555419922, -1.1714121103286743, 76.1456069946289, -38.793235778808594, -68.32228088378906, -0.020751953125, -1.163330078125, 0.701904296875, 0, 
210, 1051703758, -0.2551746666431427, -0.7051805853843689, -0.36895930767059326, -0.5490837097167969, 8.412330627441406, 10.192885398864746, -2.2936511039733887, 53.01508712768555, -11.316493034362793, -55.89679718017578, -0.0146484375, -1.158447265625, 0.711669921875, 0, 
211, 1051712091, -0.25360557436943054, -0.7056260108947754, -0.37447383999824524, -0.5454935431480408, 5.479506969451904, 12.961885452270508, -6.856876850128174, 77.31524658203125, -11.6004056930542, -51.986839294433594, -0.014404296875, -1.155517578125, 0.724609375, 0, 
212, 1051720424, -0.2517436444759369, -0.706507682800293, -0.37964949011802673, -0.5416229963302612, 5.0155558586120605, 13.283513069152832, -8.069526672363281, 80.56532287597656, -17.43866539001465, -45.58457565307617, -0.007080078125, -1.148193359375, 0.741943359375, 0, 
213, 1051728757, -0.2536241412162781, -0.706209659576416, -0.3809138238430023, -0.5402448773384094, 4.804032325744629, 10.509659767150879, -6.690235614776611, -2.0089011192321777, -17.344926834106445, -32.63896942138672, -0.006103515625, -1.143310546875, 0.74755859375, 0, 
214, 1051737090, -0.2583197057247162, -0.7053832411766052, -0.37836524844169617, -0.5408903956413269, 4.312414169311523, 8.7029447555542, -5.196148872375488, -70.13355255126953, -21.969999313354492, -12.571451187133789, -0.001220703125, -1.14697265625, 0.73876953125, 0, 
215, 1051745423, -0.2635885179042816, -0.7047426700592041, -0.37338876724243164, -0.5426391363143921, 4.166278839111328, 6.9399566650390625, -3.8519985675811768, -98.81694793701172, -24.099706649780273, 11.938815116882324, -0.005126953125, -1.15234375, 0.72900390625, 0, 
216, 1051753756, -0.26893481612205505, -0.7039704322814941, -0.3661358952522278, -0.5459501147270203, 4.339273452758789, 4.823739051818848, -2.4802825450897217, -125.07696533203125, -16.771255493164062, 38.07298278808594, -0.00830078125, -1.157958984375, 0.7099609375, 0, 
217, 1051762089, -0.2737782895565033, -0.702930748462677, -0.35708218812942505, -0.5508569478988647, 3.95855975151062, 3.512845277786255, -1.4761415719985962, -142.73162841796875, -3.2946510314941406, 64.17382049560547, -0.00927734375, -1.158447265625, 0.685791015625, 0, 
218, 1051770422, -0.2765549421310425, -0.7022342085838318, -0.347504585981369, -0.5564553737640381, 3.241325855255127, 3.124032735824585, -1.2866346836090088, -128.85504150390625, 8.833694458007812, 88.84187316894531, -0.017333984375, -1.16162109375, 0.664794921875, 0, 
219, 1051778755, -0.27676668763160706, -0.7021008729934692, -0.33810698986053467, -0.5622774362564087, 2.65602707862854, 3.1261794567108154, -1.1958004236221313, -101.60517883300781, 19.757064819335938, 110.6139907836914, -0.037353515625, -1.16943359375, 0.642822265625, 0, 
220, 1051787088, -0.27473846077919006, -0.7025519013404846, -0.328878790140152, -0.5681513547897339, 2.1954445838928223, 3.638479709625244, -1.3222646713256836, -76.71761322021484, 26.680932998657227, 128.86537170410156, -0.0546875, -1.166259765625, 0.621826171875, 0, 
221, 1051795421, -0.27058324217796326, -0.7038348913192749, -0.3200209140777588, -0.5735898613929749, 2.124586820602417, 4.377725124359131, -1.8138259649276733, -48.12913513183594, 27.110456466674805, 144.370361328125, -0.0751953125, -1.165771484375, 0.60302734375, 0, 
222, 1051803754, -0.26404014229774475, -0.7060081362724304, -0.311778724193573, -0.5784868001937866, 2.4446494579315186, 5.2038044929504395, -2.5159854888916016, -14.50097370147705, 27.536781311035156, 158.8015899658203, -0.097412109375, -1.158935546875, 0.591552734375, 0, 
223, 1051812087, -0.25566723942756653, -0.7086280584335327, -0.30379727482795715, -0.5832711458206177, 2.782727003097534, 5.706069469451904, -2.7714056968688965, 7.477715015411377, 31.79087257385254, 172.6822509765625, -0.126220703125, -1.151123046875, 0.58056640625, 0, 
224, 1051820420, -0.24600650370121002, -0.71132493019104, -0.29559221863746643, -0.5883368849754333, 2.929547071456909, 5.958062648773193, -2.838024377822876, 17.292072296142578, 38.40576934814453, 186.15907287597656, -0.153076171875, -1.14599609375, 0.57177734375, 0, 
225, 1051828753, -0.23514479398727417, -0.714056134223938, -0.2871268093585968, -0.5936382412910461, 2.9488418102264404, 6.027403354644775, -2.7095706462860107, 26.12828254699707, 44.539669036865234, 199.7027587890625, -0.18505859375, -1.13427734375, 0.56201171875, 0, 
226, 1051837086, -0.22327062487602234, -0.716575562953949, -0.278229296207428, -0.5993959903717041, 3.028663158416748, 5.961551666259766, -2.5064995288848877, 30.01483726501465, 53.24781799316406, 212.51544189453125, -0.210693359375, -1.11865234375, 0.552490234375, 0, 
227, 1051845419, -0.21088074147701263, -0.7185215950012207, -0.2686222791671753, -0.6059005856513977, 2.959317207336426, 5.870497703552246, -2.151372194290161, 24.672611236572266, 65.23059844970703, 224.19467163085938, -0.244140625, -1.1025390625, 0.538330078125, 0, 
228, 1051853752, -0.1981084942817688, -0.7199217677116394, -0.2581343352794647, -0.613065779209137, 2.6156673431396484, 5.796993255615234, -1.8668808937072754, 17.042367935180664, 75.07091522216797, 235.65689086914062, -0.27978515625, -1.08984375, 0.52294921875, 0, 
229, 1051862085, -0.1849258691072464, -0.7209959030151367, -0.24683135747909546, -0.6205309629440308, 2.195193290710449, 5.825616836547852, -1.7436978816986084, 12.326444625854492, 80.12106323242188, 247.17665100097656, -0.30712890625, -1.072021484375, 0.502197265625, 0, 
230, 1051870418, -0.17136508226394653, -0.721877932548523, -0.2345784306526184, -0.6281055212020874, 1.8361738920211792, 5.897535800933838, -1.6765670776367188, 7.064098358154297, 81.62310791015625, 259.128662109375, -0.3408203125, -1.055908203125, 0.48681640625, 0, 
231, 1051878751, -0.15718631446361542, -0.722554087638855, -0.22159752249717712, -0.6357042789459229, 1.7277741432189941, 6.052560329437256, -1.6615996360778809, 6.392870903015137, 84.00975036621094, 271.40814208984375, -0.37451171875, -1.032470703125, 0.460693359375, 0, 
232, 1051887084, -0.14239956438541412, -0.7230305075645447, -0.2078535109758377, -0.6432445049285889, 1.7804269790649414, 6.195985794067383, -1.1329602003097534, 5.4677414894104, 85.29369354248047, 283.2635192871094, -0.405517578125, -1.01318359375, 0.438232421875, 0, 
233, 1051895417, -0.12713265419006348, -0.7231494188308716, -0.1934400051832199, -0.6507614850997925, 2.41499924659729, 6.486332893371582, -1.00361967086792, 3.7291646003723145, 88.37165832519531, 293.4114685058594, -0.43505859375, -0.984375, 0.413330078125, 0, 
234, 1051903750, -0.11083843559026718, -0.7227793335914612, -0.17911726236343384, -0.6582092046737671, 3.2887790203094482, 6.655484676361084, -2.114668607711792, 14.044846534729004, 94.87399291992188, 299.98370361328125, -0.465087890625, -0.95849609375, 0.385009765625, 0, 
235, 1051912083, -0.09303942322731018, -0.7218997478485107, -0.16568084061145782, -0.6654110550880432, 4.536511421203613, 6.411068439483643, -3.182837724685669, 36.895023345947266, 102.17760467529297, 303.4652404785156, -0.49169921875, -0.92724609375, 0.359619140625, 0, 
236, 1051920416, -0.07453390955924988, -0.72021484375, -0.15253417193889618, -0.6726707816123962, 5.726746559143066, 5.896572113037109, -2.495434522628784, 45.36601638793945, 112.02954864501953, 305.009765625, -0.51513671875, -0.89404296875, 0.33203125, 0, 
237, 1051928749, -0.056187115609645844, -0.7174830436706543, -0.13906531035900116, -0.6802494525909424, 7.035060882568359, 5.818809509277344, -1.123175024986267, 39.10371398925781, 124.2834243774414, 305.1483154296875, -0.535400390625, -0.8662109375, 0.302490234375, 0, 
238, 1051937082, -0.038065239787101746, -0.713533341884613, -0.12551695108413696, -0.6882471442222595, 8.325196266174316, 6.148036479949951, -0.3339017331600189, 34.3626594543457, 139.25132751464844, 301.550048828125, -0.557861328125, -0.831787109375, 0.271728515625, 0, 
239, 1051945415, -0.01989208161830902, -0.7084662914276123, -0.11191915720701218, -0.6965423822402954, 7.96976375579834, 6.495655536651611, -0.33457544445991516, 33.336273193359375, 152.87945556640625, 301.0220642089844, -0.5712890625, -0.7998046875, 0.23779296875, 0, 
240, 1051953748, -0.0018305424600839615, -0.7027522325515747, -0.09733239561319351, -0.7047551274299622, 6.976879119873047, 6.687591075897217, -0.6279348731040955, 22.69512176513672, 157.76544189453125, 308.30718994140625, -0.583984375, -0.764404296875, 0.198486328125, 0, 
241, 1051962081, 0.015500440262258053, -0.6968101263046265, -0.08125440776348114, -0.7124817967414856, 6.798196792602539, 6.826197624206543, -1.334529995918274, 1.855325698852539, 154.3289337158203, 315.5882568359375, -0.5908203125, -0.725830078125, 0.157470703125, 0, 
242, 1051970414, 0.031489260494709015, -0.6910427808761597, -0.06339593231678009, -0.719351589679718, 7.282606601715088, 5.926029682159424, -0.6299819350242615, -27.55097770690918, 143.22354125976562, 319.624267578125, -0.60107421875, -0.68505859375, 0.12451171875, 0, 
243, 1051978747, 0.04546032100915909, -0.6857244372367859, -0.04326620697975159, -0.7251626253128052, 8.475358963012695, 4.33651065826416, 0.6985763311386108, -68.45064544677734, 128.00547790527344, 322.35040283203125, -0.604736328125, -0.646728515625, 0.08349609375, 0, 
244, 1051987080, 0.05772656947374344, -0.6806807518005371, -0.02163606882095337, -0.7299935817718506, 10.096856117248535, 2.7997231483459473, 1.356271505355835, -99.09078216552734, 115.89273834228516, 320.0383605957031, -0.60546875, -0.605712890625, 0.046875, 0, 
245, 1051995413, 0.06971659511327744, -0.6756129860877991, -0.000645776279270649, -0.7339642643928528, 11.475350379943848, 0.8213589787483215, 1.2766300439834595, -94.96617126464844, 107.5451431274414, 312.18603515625, -0.609130859375, -0.55810546875, 0.012451171875, 0, 
246, 1052003746, 0.08253814280033112, -0.6705133318901062, 0.018196921795606613, -0.7370790243148804, 12.627923965454102, -1.5910000801086426, 1.5213425159454346, -65.53020477294922, 97.81287384033203, 301.213134765625, -0.597900390625, -0.51220703125, -0.02001953125, 0, 
247, 1052012079, 0.09613967686891556, -0.6653327941894531, 0.03457107022404671, -0.7395347356796265, 13.334151268005371, -3.215907573699951, 1.801177740097046, -33.38157272338867, 89.60526275634766, 287.3504943847656, -0.595703125, -0.470947265625, -0.045166015625, 0, 
248, 1052020412, 0.11024937033653259, -0.6600176095962524, 0.04824424907565117, -0.7415602207183838, 13.323452949523926, -3.874232292175293, 2.2122559547424316, -1.2933012247085571, 83.17738342285156, 268.20831298828125, -0.587646484375, -0.4296875, -0.068115234375, 0, 
249, 1052028745, 0.12464039027690887, -0.6545864939689636, 0.05875725299119949, -0.7433345913887024, 13.144787788391113, -3.4902830123901367, 2.5504956245422363, 33.50315856933594, 77.14856719970703, 243.07296752929688, -0.57763671875, -0.395263671875, -0.092041015625, 0, 
250, 1052037078, 0.1390502154827118, -0.6489778161048889, 0.06580907106399536, -0.745103657245636, 13.149639129638672, -2.400773525238037, 2.287043809890747, 69.34318542480469, 72.91800689697266, 212.03094482421875, -0.564453125, -0.365478515625, -0.110595703125, 0, 
251, 1052045411, 0.15274415910243988, -0.643032968044281, 0.0698779821395874, -0.74720299243927, 12.430996894836426, -0.5654820203781128, 1.3851878643035889, 94.46996307373047, 74.30291748046875, 177.97230529785156, -0.551513671875, -0.34521484375, -0.1279296875, 0, 
252, 1052053744, 0.16488735377788544, -0.6372984647750854, 0.07200416922569275, -0.7493301630020142, 9.497624397277832, 1.7616983652114868, -0.3717607855796814, 100.29580688476562, 69.74143981933594, 144.3732147216797, -0.54248046875, -0.326904296875, -0.141845703125, 0, 
253, 1052062077, 0.1750863492488861, -0.6330034136772156, 0.07152418047189713, -0.7507017850875854, 6.809894561767578, 1.7876901626586914, -2.684800863265991, 106.1059341430664, 44.356536865234375, 102.00957489013672, -0.53466796875, -0.310791015625, -0.155029296875, 0, 
254, 1052070410, 0.18161541223526, -0.6314446330070496, 0.07001695036888123, -0.7506053447723389, 6.021309852600098, 0.753803551197052, -0.9272490739822388, 76.73039245605469, 4.409755706787109, 55.813621520996094, -0.521240234375, -0.306640625, -0.1591796875, 0, 
255, 1052078743, 0.1832270622253418, -0.6323741674423218, 0.06881146132946014, -0.7495419979095459, 5.832260608673096, -0.09723062068223953, 1.1302262544631958, 23.7725772857666, -24.125837326049805, 7.906160831451416, -0.518310546875, -0.299072265625, -0.158203125, 0, 
256, 1052087076, 0.18087467551231384, -0.635032057762146, 0.06663811951875687, -0.7480612397193909, 5.6457953453063965, 0.09967691451311111, 2.3454952239990234, -5.476623058319092, -44.308902740478516, -42.15517807006836, -0.514404296875, -0.29736328125, -0.15283203125, 0, 
257, 1052095409, 0.17597228288650513, -0.6389883160591125, 0.06204536557197571, -0.7462544441223145, 6.532157897949219, 1.1124452352523804, 0.9970341920852661, -6.380831718444824, -64.14204406738281, -89.6905288696289, -0.521484375, -0.306884765625, -0.144287109375, 0, 
258, 1052103742, 0.16972865164279938, -0.6438179016113281, 0.054204605519771576, -0.7441571950912476, 7.949127197265625, 1.5888859033584595, -1.894258975982666, 12.799158096313477, -82.42646789550781, -132.2334442138672, -0.525634765625, -0.316162109375, -0.1298828125, 0, 
259, 1052112075, 0.16401153802871704, -0.649127185344696, 0.04172753915190697, -0.7416268587112427, 11.377093315124512, 0.6282526850700378, -4.044630527496338, 63.468719482421875, -102.3309326171875, -167.04698181152344, -0.528076171875, -0.334716796875, -0.111083984375, 0, 
260, 1052120408, 0.1590241640806198, -0.6552008986473083, 0.027033494785428047, -0.7380445003509521, 15.944668769836426, -2.9093711376190186, -0.9621536135673523, 90.25857543945312, -124.989501953125, -177.64727783203125, -0.534423828125, -0.35791015625, -0.08642578125, 0, 
261, 1052128741, 0.15541334450244904, -0.6622080206871033, 0.014476321637630463, -0.732895016670227, 23.581666946411133, -9.179421424865723, 5.207675933837891, 78.35653686523438, -144.36929321289062, -141.15756225585938, -0.544189453125, -0.37451171875, -0.058837890625, 0, 
262, 1052137074, 0.14541050791740417, -0.6704710721969604, 0.017626408487558365, -0.7273452281951904, 30.5336856842041, -16.01613998413086, 21.618751525878906, -140.93565368652344, -125.87312316894531, -62.108646392822266, -0.5478515625, -0.381103515625, -0.03466796875, 0, 
263, 1052145407, 0.1345645934343338, -0.6727040410041809, 0.02371956780552864, -0.7271976470947266, 21.5748233795166, -7.28942346572876, 13.354270935058594, -164.76585388183594, -9.616068840026855, -52.57158279418945, -0.548095703125, -0.37451171875, -0.0263671875, 0, 
264, 1052153740, 0.1392839252948761, -0.6700146198272705, 0.00830871146172285, -0.7291288375854492, 6.378906726837158, 4.705514430999756, -1.1411882638931274, 204.04452514648438, 13.901025772094727, -98.28275299072266, -0.547119140625, -0.386474609375, -0.02734375, 0, 
265, 1052162073, 0.15017591416835785, -0.668131947517395, -0.020279178395867348, -0.7284594774246216, 5.28694486618042, 7.4884033203125, -9.732656478881836, 391.2612609863281, -44.0323600769043, -152.73599243164062, -0.5380859375, -0.4130859375, -0.011474609375, 0, 
266, 1052170406, 0.15229225158691406, -0.6695782542228699, -0.04298736900091171, -0.7257007956504822, 8.458057403564453, 7.751124858856201, -3.2074408531188965, 245.3924102783203, -86.97761535644531, -181.5534210205078, -0.5390625, -0.44384765625, 0.007080078125, 0, 
267, 1052178739, 0.14946363866329193, -0.6718565821647644, -0.05823903903365135, -0.7231148481369019, 10.429093360900879, 12.584639549255371, -7.203847885131836, 123.5998306274414, -80.89688110351562, -161.92507934570312, -0.536865234375, -0.467529296875, 0.032958984375, 0, 
268, 1052187072, 0.15098506212234497, -0.6727728843688965, -0.07464081794023514, -0.7204347848892212, 8.738194465637207, 13.132062911987305, -8.669008255004883, 178.09410095214844, -67.18595123291016, -130.34146118164062, -0.533935546875, -0.484375, 0.0498046875, 0, 
269, 1052195405, 0.15358790755271912, -0.6746343374252319, -0.08976466953754425, -0.716407060623169, 6.463100910186768, 10.234125137329102, -9.883353233337402, 174.8692169189453, -85.16968536376953, -103.8863754272461, -0.535888671875, -0.501220703125, 0.070556640625, 0, 
270, 1052203738, 0.1530284583568573, -0.677639901638031, -0.10092483460903168, -0.7121923565864563, 6.954946041107178, 5.8506269454956055, -5.191124439239502, 104.28242492675781, -93.77523040771484, -96.56603240966797, -0.533203125, -0.51171875, 0.087646484375, 0, 
271, 1052212071, 0.14773309230804443, -0.6812459826469421, -0.10837318003177643, -0.7087675333023071, 7.500372886657715, 5.275271892547607, -3.8103713989257812, 21.447608947753906, -90.98895263671875, -109.0799331665039, -0.53662109375, -0.520751953125, 0.110107421875, 0, 
272, 1052220404, 0.1394033133983612, -0.6854923367500305, -0.11316382139921188, -0.7056048512458801, 8.180938720703125, 9.696993827819824, -1.4151690006256104, -34.58076095581055, -93.9397964477539, -113.41940307617188, -0.53466796875, -0.53515625, 0.127197265625, 0, 
273, 1052228737, 0.12961456179618835, -0.6901366114616394, -0.11538486182689667, -0.702577531337738, 10.765159606933594, 13.971369743347168, -1.542455792427063, -74.23503875732422, -93.82720184326172, -102.91026306152344, -0.536865234375, -0.54052734375, 0.14404296875, 0, 
274, 1052237070, 0.12039657682180405, -0.6938343048095703, -0.11643683165311813, -0.7003986239433289, 12.489953994750977, 15.53971004486084, -2.223012685775757, -79.77780151367188, -73.67192077636719, -89.37554168701172, -0.534912109375, -0.54638671875, 0.15771484375, 0, 
275, 1052245403, 0.11173275858163834, -0.6968806982040405, -0.11634767055511475, -0.6988229155540466, 11.940654754638672, 14.330209732055664, -1.6899125576019287, -85.3620376586914, -58.83479309082031, -75.13026428222656, -0.531982421875, -0.55126953125, 0.169189453125, 0, 
276, 1052253736, 0.10138440132141113, -0.7002324461936951, -0.11334195733070374, -0.6975433230400085, 10.789999961853027, 11.675101280212402, -0.8334134221076965, -130.48060607910156, -57.173614501953125, -63.35630416870117, -0.531982421875, -0.55517578125, 0.176025390625, 0, 
277, 1052262069, 0.08869413286447525, -0.7033104300498962, -0.10741835832595825, -0.6971128582954407, 10.676285743713379, 7.592035293579102, -0.4255099892616272, -181.96234130859375, -45.9257698059082, -59.31317138671875, -0.52734375, -0.560302734375, 0.175537109375, 0, 
278, 1052270402, 0.07590322941541672, -0.705507755279541, -0.10132431238889694, -0.6973148584365845, 10.17675495147705, 3.3033699989318848, -0.8485357761383057, -184.4226837158203, -31.331222534179688, -60.685855865478516, -0.526123046875, -0.56591796875, 0.18017578125, 0, 
279, 1052278735, 0.06645481288433075, -0.707100510597229, -0.0980236604809761, -0.6971378922462463, 9.55014705657959, -0.23339927196502686, -4.804995536804199, -124.05205535888672, -27.443208694458008, -56.19844055175781, -0.526611328125, -0.5693359375, 0.18115234375, 0, 
280, 1052287068, 0.05831038951873779, -0.7090737223625183, -0.09566992521286011, -0.696188747882843, 10.209617614746094, -2.38861083984375, -5.885979652404785, -106.4505386352539, -37.947208404541016, -51.5739631652832, -0.5234375, -0.57177734375, 0.185302734375, 0, 
281, 1052295401, 0.051581062376499176, -0.7106145024299622, -0.09434127062559128, -0.6953296065330505, 11.612081527709961, -3.312878370285034, -3.7929210662841797, -77.76166534423828, -31.650205612182617, -48.77463912963867, -0.5205078125, -0.5771484375, 0.186279296875, 0, 
282, 1052303734, 0.04889466613531113, -0.7114650011062622, -0.09667225927114487, -0.6943333148956299, 10.807456016540527, -3.787228584289551, -1.7511394023895264, -6.265603065490723, -23.966236114501953, -46.55935287475586, -0.5166015625, -0.581298828125, 0.189208984375, 0, 
283, 1052312067, 0.047145307064056396, -0.7126656174659729, -0.10001610964536667, -0.6927476525306702, 10.166914939880371, -1.3136897087097168, -2.9116835594177246, 16.793092727661133, -32.288360595703125, -46.77809524536133, -0.517333984375, -0.58203125, 0.19580078125, 0, 
284, 1052320400, 0.04502212256193161, -0.7138088345527649, -0.10274400562047958, -0.6913110017776489, 10.215120315551758, 2.4075701236724854, -1.9636796712875366, 3.9285545349121094, -30.621870040893555, -44.357635498046875, -0.519287109375, -0.58642578125, 0.20556640625, 0, 
285, 1052328733, 0.04169313237071037, -0.7148299217224121, -0.10395582020282745, -0.6902827620506287, 10.668777465820312, 5.035892486572266, -1.8185628652572632, -19.65579605102539, -25.989543914794922, -41.485374450683594, -0.515380859375, -0.59130859375, 0.208984375, 0, 
286, 1052337066, 0.037203408777713776, -0.7156100273132324, -0.10351218283176422, -0.689797580242157, 10.878762245178223, 6.898194313049316, -1.971129298210144, -47.41133117675781, -19.069671630859375, -36.872650146484375, -0.515380859375, -0.594482421875, 0.212646484375, 0, 
287, 1052345399, 0.03156380355358124, -0.7160887122154236, -0.10166213661432266, -0.6898570656776428, 10.30208683013916, 6.831173896789551, -1.1919364929199219, -72.69578552246094, -11.77084732055664, -34.66119384765625, -0.511962890625, -0.596923828125, 0.20947265625, 0, 
288, 1052353732, 0.025551484897732735, -0.716640293598175, -0.09986716508865356, -0.6897954940795898, 9.642297744750977, 4.692294120788574, -0.2910480499267578, -75.70249938964844, -14.194657325744629, -38.557029724121094, -0.507568359375, -0.60205078125, 0.212890625, 0, 
289, 1052362065, 0.019547130912542343, -0.7174344658851624, -0.09840670228004456, -0.6893759965896606, 9.49282169342041, 1.501610517501831, -0.12880754470825195, -72.04761505126953, -20.133352279663086, -41.346580505371094, -0.508056640625, -0.607421875, 0.213623046875, 0, 
290, 1052370398, 0.013606276363134384, -0.7183333039283752, -0.09704967588186264, -0.688774824142456, 9.684908866882324, -0.4892491400241852, -0.8934581279754639, -70.21756744384766, -22.85593032836914, -41.533897399902344, -0.5068359375, -0.611328125, 0.216796875, 0, 
291, 1052378731, 0.008362311869859695, -0.719174861907959, -0.09632501751184464, -0.688081681728363, 9.988778114318848, -1.3518729209899902, -1.0951595306396484, -57.2166748046875, -22.413318634033203, -41.279624938964844, -0.50732421875, -0.6123046875, 0.2197265625, 0, 
292, 1052387064, 0.0039764149114489555, -0.7198284268379211, -0.09641983360052109, -0.6874240636825562, 10.244267463684082, -1.1757280826568604, -0.6398204565048218, -40.994808197021484, -19.238492965698242, -41.478919982910156, -0.501220703125, -0.617431640625, 0.219482421875, 0, 
293, 1052395397, 0.00041709933429956436, -0.7203412652015686, -0.09727439284324646, -0.6867775321006775, 9.844207763671875, -0.7056427001953125, -0.24213235080242157, -25.6446475982666, -16.748701095581055, -41.411502838134766, -0.500732421875, -0.619384765625, 0.22607421875, 0, 
294, 1052403730, -0.0027731582522392273, -0.7208971977233887, -0.09857192635536194, -0.6860030889511108, 9.457749366760254, -0.00806452613323927, -0.09931973367929459, -17.631134033203125, -17.92290687561035, -42.222259521484375, -0.5029296875, -0.623291015625, 0.225341796875, 0, 
295, 1052412063, -0.005877184681594372, -0.7214353084564209, -0.1000349372625351, -0.6852056980133057, 9.488282203674316, 0.9634566307067871, -0.3217569589614868, -15.18872356414795, -17.867799758911133, -43.10917282104492, -0.4951171875, -0.631103515625, 0.23193359375, 0, 
296, 1052420396, -0.009009319357573986, -0.7218972444534302, -0.10158104449510574, -0.6844573616981506, 9.637552261352539, 1.5730750560760498, -0.3447504937648773, -14.75303840637207, -16.688608169555664, -44.27025604248047, -0.4931640625, -0.63134765625, 0.233154296875, 0, 
297, 1052428729, -0.012043106369674206, -0.7222221493721008, -0.10332972556352615, -0.6838060021400452, 9.570581436157227, 1.78236722946167, -0.07161418348550797, -12.02711296081543, -14.278840065002441, -45.56277847290039, -0.494873046875, -0.637451171875, 0.236572265625, 0, 
298, 1052437062, -0.015094731003046036, -0.7225297093391418, -0.10526213049888611, -0.6831253170967102, 9.451674461364746, 1.3815959692001343, -0.14815358817577362, -10.434083938598633, -14.396896362304688, -47.55692672729492, -0.49072265625, -0.640380859375, 0.24072265625, 0, 
299, 1052445395, -0.018268413841724396, -0.7228129506111145, -0.10726654529571533, -0.6824359893798828, 9.5907621383667, 0.9605648517608643, -0.07471007108688354, -10.967300415039062, -14.422642707824707, -49.48345184326172, -0.487060546875, -0.64697265625, 0.2431640625, 0, 
300, 1052453728, -0.021368348971009254, -0.7230024337768555, -0.10943085700273514, -0.6818015575408936, 9.56057357788086, 0.7400903701782227, 0.004165741614997387, -8.832756996154785, -12.843340873718262, -50.47903823852539, -0.483154296875, -0.650390625, 0.24658203125, 0, 
301, 1052462061, -0.024377528578042984, -0.723201334476471, -0.11182546615600586, -0.6811008453369141, 9.353128433227539, 0.8289726376533508, -0.6092735528945923, -5.674566268920898, -13.390387535095215, -51.94948959350586, -0.4794921875, -0.658935546875, 0.2509765625, 0, 
302, 1052470394, -0.02739281952381134, -0.7233607769012451, -0.11440053582191467, -0.6803886294364929, 9.534421920776367, 1.0162297487258911, -0.7691150903701782, -4.032716274261475, -13.082891464233398, -53.840450286865234, -0.478271484375, -0.662841796875, 0.25390625, 0, 
303, 1052478727, -0.030168944969773293, -0.7233073711395264, -0.11723454296588898, -0.6798454523086548, 9.841109275817871, 1.3482427597045898, -0.4819415807723999, 0.41607871651649475, -8.93909740447998, -54.476566314697266, -0.47314453125, -0.666259765625, 0.255859375, 0, 
304, 1052487060, -0.032561320811510086, -0.7230602502822876, -0.12042710185050964, -0.6794397830963135, 9.695446968078613, 1.6887849569320679, -0.5066612958908081, 7.286706924438477, -4.988168239593506, -54.68648147583008, -0.473876953125, -0.672607421875, 0.2626953125, 0, 
305, 1052495393, -0.03483124077320099, -0.7227979898452759, -0.1237713098526001, -0.6790051460266113, 9.77962875366211, 1.4443906545639038, -0.18925705552101135, 9.957792282104492, -4.8669867515563965, -55.111473083496094, -0.466796875, -0.677001953125, 0.268798828125, 0, 
306, 1052503726, -0.037445068359375, -0.7223571538925171, -0.12695184350013733, -0.6787479519844055, 9.882043838500977, 1.2517205476760864, -0.011385750025510788, 4.627557277679443, -2.100924015045166, -56.89217758178711, -0.461669921875, -0.68310546875, 0.269287109375, 0, 
307, 1052512059, -0.040579404681921005, -0.721926212310791, -0.13002106547355652, -0.6784452199935913, 9.672685623168945, 0.7183235287666321, 0.04334860295057297, -1.5009992122650146, -3.610696792602539, -60.673309326171875, -0.459228515625, -0.69140625, 0.273193359375, 0, 
308, 1052520392, -0.04396536201238632, -0.7214376330375671, -0.13325050473213196, -0.678127110004425, 9.48192310333252, -0.10157734155654907, 0.18549521267414093, -2.500854969024658, -3.586697578430176, -64.70560455322266, -0.4521484375, -0.694580078125, 0.276123046875, 0, 
309, 1052528725, -0.047162700444459915, -0.7209272384643555, -0.136916384100914, -0.6777245998382568, 8.990979194641113, -0.6705417633056641, 0.34056544303894043, 3.574096441268921, -3.610405206680298, -67.38472747802734, -0.4521484375, -0.70166015625, 0.279052734375, 0, 
310, 1052537058, -0.050173040479421616, -0.7204383611679077, -0.1410793662071228, -0.6771745085716248, 8.854630470275879, -1.246772289276123, 0.5092289447784424, 10.355127334594727, -4.602566242218018, -70.61190032958984, -0.4453125, -0.708251953125, 0.28173828125, 0, 
311, 1052545391, -0.05365748703479767, -0.7203285694122314, -0.14530262351036072, -0.6761304140090942, 9.21816349029541, -2.485719680786133, 0.1591118723154068, 7.436836242675781, -13.902275085449219, -75.2429428100586, -0.437744140625, -0.71533203125, 0.289306640625, 0, 
312, 1052553724, -0.05781717598438263, -0.7202739119529724, -0.1494145393371582, -0.6749484539031982, 9.972718238830566, -3.38215970993042, 0.30161648988723755, 0.032696764916181564, -17.21940040588379, -80.406494140625, -0.43359375, -0.72119140625, 0.294677734375, 0, 
313, 1052562057, -0.061927828937768936, -0.7200117111206055, -0.1540771871805191, -0.6738144755363464, 10.181090354919434, -2.842698812484741, 0.5918569564819336, 5.364040374755859, -14.271845817565918, -85.79750061035156, -0.426513671875, -0.728515625, 0.299072265625, 0, 
314, 1052570390, -0.06623294949531555, -0.7199575901031494, -0.15913937985897064, -0.6722843647003174, 10.247602462768555, -2.421142339706421, -0.16390499472618103, 8.156083106994629, -20.204715728759766, -91.46530151367188, -0.41796875, -0.737548828125, 0.304443359375, 0, 
315, 1052578723, -0.07126229256391525, -0.719931960105896, -0.16408415138721466, -0.6706065535545349, 10.802421569824219, -1.7544338703155518, -0.2801336944103241, 0.2481144666671753, -23.61061668395996, -97.05628967285156, -0.414794921875, -0.7470703125, 0.310791015625, 0, 
316, 1052587056, -0.07656409591436386, -0.719778299331665, -0.16918812692165375, -0.6689170002937317, 11.144538879394531, -1.1629910469055176, 0.5354868769645691, -1.077562689781189, -23.019515991210938, -101.47533416748047, -0.404541015625, -0.754150390625, 0.321044921875, 0, 
317, 1052595389, -0.08201339840888977, -0.7196608185768127, -0.1746089905500412, -0.6670018434524536, 11.151183128356934, -1.1343384981155396, 0.5631547570228577, 0.9389508366584778, -25.581445693969727, -106.09297180175781, -0.3984375, -0.7587890625, 0.328125, 0, 
318, 1052603722, -0.08778496086597443, -0.7195440530776978, -0.18019336462020874, -0.6649044156074524, 11.519405364990234, -1.3559190034866333, 0.8392629623413086, -0.31336814165115356, -27.99929428100586, -110.91393280029297, -0.388671875, -0.7666015625, 0.338134765625, 0, 
319, 1052612055, -0.093681201338768, -0.7192596793174744, -0.18608073890209198, -0.6627824306488037, 11.986515998840332, -1.0369846820831299, 1.6478023529052734, 1.0845969915390015, -26.63243865966797, -115.45465087890625, -0.37841796875, -0.779541015625, 0.344970703125, 0, 
320, 1052620388, -0.09942547976970673, -0.7188757658004761, -0.19249102473258972, -0.6605275273323059, 12.019919395446777, -0.7223303914070129, 1.8787559270858765, 7.561114311218262, -26.004003524780273, -119.72543334960938, -0.3662109375, -0.785400390625, 0.352294921875, 0, 
321, 1052628721, -0.10513454675674438, -0.7184667587280273, -0.1993716061115265, -0.6580429077148438, 12.038140296936035, -1.1288955211639404, 2.1368985176086426, 12.758174896240234, -27.286869049072266, -124.37805938720703, -0.358642578125, -0.79248046875, 0.364013671875, 0, 
322, 1052637054, -0.11090339720249176, -0.717963457107544, -0.206661194562912, -0.6553909778594971, 11.880645751953125, -1.808191180229187, 2.3056578636169434, 16.19033432006836, -27.690471649169922, -129.5323028564453, -0.34619140625, -0.802490234375, 0.37158203125, 0, 
323, 1052645387, -0.11692797392606735, -0.7173643708229065, -0.2142622470855713, -0.6525528430938721, 11.733741760253906, -2.3722808361053467, 2.4622738361358643, 16.856338500976562, -28.88625717163086, -135.39547729492188, -0.33251953125, -0.8115234375, 0.383056640625, 0, 
324, 1052653720, -0.12340499460697174, -0.7166895270347595, -0.2220485955476761, -0.6494916081428528, 11.737186431884766, -2.5386428833007812, 2.8592729568481445, 14.591614723205566, -31.484737396240234, -141.95950317382812, -0.318115234375, -0.82177734375, 0.39404296875, 0, 
325, 1052662053, -0.130528524518013, -0.7160505056381226, -0.22986532747745514, -0.6460755467414856, 11.982096672058105, -2.434882879257202, 3.1076149940490723, 9.635440826416016, -37.1812858581543, -148.43299865722656, -0.30810546875, -0.82958984375, 0.404541015625, 0, 
326, 1052670386, -0.13857322931289673, -0.7154098749160767, -0.2375326305627823, -0.6423254013061523, 12.808073043823242, -2.240234136581421, 3.316734790802002, 0.2924829125404358, -43.692386627197266, -155.8632049560547, -0.288818359375, -0.83837890625, 0.414306640625, 0, 
327, 1052678719, -0.1475592404603958, -0.7147018909454346, -0.24533218145370483, -0.6381669044494629, 14.578927040100098, -2.472834587097168, 2.6020100116729736, -6.596404552459717, -49.88174819946289, -166.36599731445312, -0.272705078125, -0.84716796875, 0.426513671875, 0, 
328, 1052687052, -0.15762172639369965, -0.7137094140052795, -0.25340303778648376, -0.6337023973464966, 17.68988037109375, -3.092503070831299, 1.607692837715149, -14.33506965637207, -53.543060302734375, -180.1973114013672, -0.254638671875, -0.85546875, 0.4365234375, 0, 
329, 1052695385, -0.1686035394668579, -0.7120891213417053, -0.26150238513946533, -0.6293932795524597, 20.708683013916016, -3.0027472972869873, 1.9222917556762695, -25.017160415649414, -49.62004852294922, -190.203369140625, -0.23388671875, -0.8671875, 0.447998046875, 0, 
330, 1052703718, -0.17969100177288055, -0.7100771069526672, -0.2691563069820404, -0.6253589391708374, 21.560245513916016, -2.1959450244903564, 3.6558191776275635, -31.7963809967041, -45.032676696777344, -187.69638061523438, -0.21337890625, -0.872802734375, 0.45947265625, 0, 
331, 1052712051, -0.19044603407382965, -0.7081804275512695, -0.27635571360588074, -0.6211727857589722, 20.68242073059082, -4.143806457519531, 4.153288841247559, -31.618459701538086, -47.3177375793457, -180.17823791503906, -0.193115234375, -0.8828125, 0.468017578125, 0, 
332, 1052720384, -0.20185166597366333, -0.7060173749923706, -0.28311803936958313, -0.6169740557670593, 19.628612518310547, -8.601497650146484, 5.089827060699463, -42.32878494262695, -48.87948226928711, -182.73580932617188, -0.168212890625, -0.89306640625, 0.475341796875, 0, 
333, 1052728717, -0.21415257453918457, -0.7034178972244263, -0.2896817624568939, -0.6127347350120544, 18.464149475097656, -9.769043922424316, 5.603082180023193, -53.76963806152344, -49.512115478515625, -190.00506591796875, -0.1455078125, -0.8984375, 0.48681640625, 0, 
334, 1052737050, -0.22575616836547852, -0.7010186910629272, -0.29700422286987305, -0.6077932715415955, 16.737855911254883, -7.004003047943115, 4.312811851501465, -37.230464935302734, -53.092063903808594, -193.00230407714844, -0.119873046875, -0.907470703125, 0.48828125, 0, 
335, 1052745383, -0.2360071837902069, -0.6994150280952454, -0.3053179979324341, -0.6015956401824951, 15.945788383483887, -2.8972861766815186, -0.6562483310699463, -8.319969177246094, -63.13576126098633, -191.63998413085938, -0.096435546875, -0.910888671875, 0.502685546875, 0, 
336, 1052753716, -0.2447621375322342, -0.6988665461540222, -0.3142949342727661, -0.5940647721290588, 16.238872528076172, 1.2570911645889282, -5.0796284675598145, 20.598875045776367, -76.38961791992188, -185.8539581298828, -0.070556640625, -0.915283203125, 0.5166015625, 0, 
337, 1052762049, -0.25181689858436584, -0.6991792321205139, -0.32364439964294434, -0.5856691598892212, 16.055166244506836, 4.673069953918457, -5.855517864227295, 46.599456787109375, -82.99838256835938, -174.41732788085938, -0.05029296875, -0.915283203125, 0.53515625, 0, 
338, 1052770382, -0.25705087184906006, -0.7002065181732178, -0.33320650458335876, -0.5767379403114319, 14.086472511291504, 7.0229082107543945, -3.455204725265503, 70.68466186523438, -85.20620727539062, -160.82028198242188, -0.029296875, -0.913330078125, 0.552734375, 0, 
339, 1052778715, -0.2602631151676178, -0.7026392221450806, -0.34296858310699463, -0.5665255784988403, 11.750042915344238, 7.986261367797852, -1.232146978378296, 102.56798553466797, -98.57526397705078, -144.451416015625, -0.0146484375, -0.912109375, 0.575927734375, 0, 
340, 1052787048, -0.26052364706993103, -0.7066777944564819, -0.3531578779220581, -0.5550051331520081, 10.893651962280273, 7.062112331390381, -2.7344000339508057, 146.33242797851562, -108.43136596679688, -123.05780029296875, 0.0048828125, -0.904541015625, 0.600341796875, 0, 
341, 1052795381, -0.2588612735271454, -0.7104219198226929, -0.3624894618988037, -0.5448946952819824, 11.686184883117676, 6.622394561767578, -5.1589460372924805, 150.572998046875, -86.05965423583984, -96.0595703125, 0.013916015625, -0.8974609375, 0.627197265625, 0, 
342, 1052803714, -0.2573123574256897, -0.7122737169265747, -0.3693070411682129, -0.5385966300964355, 12.320573806762695, 8.266414642333984, -5.574196815490723, 104.87420654296875, -44.32369613647461, -68.57542419433594, 0.022705078125, -0.884765625, 0.654052734375, 0, 
343, 1052812047, -0.2553066909313202, -0.7121488451957703, -0.3747659921646118, -0.5359388589859009, 9.678786277770996, 12.11764144897461, -4.259842395782471, 73.81161499023438, 3.6598381996154785, -48.67405700683594, 0.029541015625, -0.87890625, 0.664306640625, 0, 
344, 1052820380, -0.2524203360080719, -0.7121933698654175, -0.3802401125431061, -0.5333848595619202, 4.5730061531066895, 14.513689994812012, -8.538763999938965, 82.5963134765625, 7.833736896514893, -41.473201751708984, 0.0380859375, -0.8740234375, 0.67431640625, 0, 
345, 1052828713, -0.25089165568351746, -0.7129930853843689, -0.3840009868144989, -0.5303347110748291, 3.028397798538208, 13.619062423706055, -11.008418083190918, 61.9607048034668, -15.424616813659668, -32.047454833984375, 0.04150390625, -0.869873046875, 0.6865234375, 0, 
346, 1052837046, -0.25236693024635315, -0.7136560082435608, -0.3836108148097992, -0.5290238857269287, 2.3319146633148193, 11.493088722229004, -7.008941650390625, -7.434831619262695, -27.744550704956055, -8.346365928649902, 0.05078125, -0.866455078125, 0.6943359375, 0, 
347, 1052845379, -0.2572087347507477, -0.7138335108757019, -0.37890833616256714, -0.5298410058021545, 2.500999927520752, 9.629962921142578, -4.626526832580566, -84.74070739746094, -35.86893844604492, 14.674698829650879, 0.053466796875, -0.86474609375, 0.6904296875, 0, 
348, 1052853712, -0.26307156682014465, -0.7137097716331482, -0.3716852068901062, -0.5322397351264954, 3.3867387771606445, 7.633124351501465, -4.499472618103027, -122.46321868896484, -32.54796600341797, 35.649166107177734, 0.0537109375, -0.869873046875, 0.680419921875, 0, 
349, 1052862045, -0.2686387002468109, -0.713284969329834, -0.3626977801322937, -0.5362139344215393, 3.6140244007110596, 5.453215599060059, -3.9299540519714355, -141.59088134765625, -19.587900161743164, 59.64723587036133, 0.0546875, -0.875244140625, 0.664306640625, 0, 
350, 1052870378, -0.2732168734073639, -0.7126575112342834, -0.35227376222610474, -0.541657030582428, 3.3458595275878906, 4.226336479187012, -3.105687141418457, -150.5917510986328, -4.207056999206543, 85.09073638916016, 0.05029296875, -0.880126953125, 0.646484375, 0, 
351, 1052878711, -0.27610084414482117, -0.7119754552841187, -0.3411201536655426, -0.5481913089752197, 2.879119873046875, 3.9735054969787598, -2.232110023498535, -144.87962341308594, 12.506616592407227, 109.051025390625, 0.051025390625, -0.883544921875, 0.629150390625, 0, 
352, 1052887044, -0.27699384093284607, -0.7114164233207703, -0.3297082483768463, -0.5554015636444092, 2.292062282562256, 4.208975315093994, -1.5488466024398804, -130.08328247070312, 26.43111801147461, 129.37538146972656, 0.04052734375, -0.88720703125, 0.609130859375, 0, 
353, 1052895377, -0.27589863538742065, -0.7112098932266235, -0.3184441924095154, -0.5627354383468628, 1.6094547510147095, 4.651588439941406, -1.3535586595535278, -108.67572784423828, 34.64919662475586, 145.54132080078125, 0.027587890625, -0.890625, 0.589111328125, 0, 
354, 1052903710, -0.27247658371925354, -0.711742639541626, -0.30774369835853577, -0.5696405172348022, 0.9867612719535828, 5.301788330078125, -2.393773078918457, -76.9197769165039, 36.95436477661133, 159.28549194335938, 0.014892578125, -0.889892578125, 0.57666015625, 0, 
355, 1052912043, -0.26652854681015015, -0.7132167220115662, -0.2978922426700592, -0.575814425945282, 0.4736272692680359, 5.701105117797852, -3.600694179534912, -38.87836456298828, 36.405147552490234, 172.36541748046875, 0.0029296875, -0.887451171875, 0.564697265625, 0, 
356, 1052920376, -0.25868356227874756, -0.7153857946395874, -0.2882057726383209, -0.5816019773483276, 0.2604394555091858, 5.798450469970703, -4.068932056427002, -14.886303901672363, 35.3858642578125, 186.84634399414062, -0.016357421875, -0.882568359375, 0.55712890625, 0, 
357, 1052928709, -0.2496640384197235, -0.7177650332450867, -0.2780218720436096, -0.5875393748283386, 0.3293684422969818, 5.8543500900268555, -4.130762577056885, -7.107372760772705, 38.16571044921875, 202.8549346923828, -0.037353515625, -0.875244140625, 0.54736328125, 0, 
358, 1052937042, -0.23996396362781525, -0.7199011445045471, -0.26692476868629456, -0.5940776467323303, 0.649636447429657, 5.7295355796813965, -3.407413959503174, -10.951204299926758, 45.44200897216797, 218.1588134765625, -0.060546875, -0.87060546875, 0.534912109375, 0, 
359, 1052945375, -0.22939543426036835, -0.7218141555786133, -0.2551835775375366, -0.6010499000549316, 1.1477999687194824, 5.282919406890869, -2.4701907634735107, -9.893123626708984, 52.71014404296875, 232.5890350341797, -0.079345703125, -0.864501953125, 0.52197265625, 0, 
360, 1052953708, -0.21722818911075592, -0.7235549688339233, -0.24347907304763794, -0.6082890033721924, 1.6843152046203613, 4.756997585296631, -1.8063764572143555, 4.740169048309326, 62.43391418457031, 245.34373474121094, -0.102294921875, -0.857421875, 0.508544921875, 0, 
361, 1052962041, -0.203703373670578, -0.7250236868858337, -0.23184627294540405, -0.6157193183898926, 1.9715917110443115, 4.402329444885254, -1.329482913017273, 17.45441436767578, 71.44818878173828, 255.9832763671875, -0.127197265625, -0.843994140625, 0.49853515625, 0, 
362, 1052970374, -0.18913426995277405, -0.7262970209121704, -0.22002847492694855, -0.6231580376625061, 2.375880241394043, 4.455753803253174, -1.2850667238235474, 25.668243408203125, 75.930908203125, 265.7466125488281, -0.149658203125, -0.8310546875, 0.48291015625, 0, 
363, 1052978707, -0.173233300447464, -0.7273868322372437, -0.20832638442516327, -0.630488932132721, 2.7721729278564453, 4.833670139312744, -1.9557538032531738, 39.870147705078125, 80.82582092285156, 275.4957275390625, -0.173095703125, -0.81884765625, 0.471923828125, 0, 
364, 1052987040, -0.1565266102552414, -0.7280721664428711, -0.19634218513965607, -0.6378694772720337, 2.9916763305664062, 4.819721698760986, -1.9830621480941772, 44.324954986572266, 86.40131378173828, 283.9459228515625, -0.19775390625, -0.803955078125, 0.455810546875, 0, 
365, 1052995373, -0.1398341804742813, -0.7282640933990479, -0.18352675437927246, -0.6453009247779846, 3.1620986461639404, 5.111621856689453, -1.5435495376586914, 35.744873046875, 89.47727966308594, 291.2415771484375, -0.2177734375, -0.787109375, 0.443603515625, 0, 
366, 1053003706, -0.12296751141548157, -0.7280861139297485, -0.1700810343027115, -0.6525790095329285, 3.5809326171875, 5.402362823486328, -1.046544075012207, 31.52094078063965, 90.39151763916016, 297.560791015625, -0.24609375, -0.771240234375, 0.429443359375, 0, 
367, 1053012039, -0.10508570075035095, -0.7275636196136475, -0.15681613981723785, -0.6595714092254639, 4.216331958770752, 5.504960060119629, -0.8376294374465942, 43.4448127746582, 93.36479187011719, 303.88555908203125, -0.268310546875, -0.751220703125, 0.407958984375, 0, 
368, 1053020372, -0.08541317284107208, -0.7265778183937073, -0.14443232119083405, -0.6662927865982056, 5.045958518981934, 5.685299396514893, -0.9911409020423889, 69.22277069091797, 99.93263244628906, 309.62066650390625, -0.289306640625, -0.72705078125, 0.392333984375, 0, 
369, 1053028705, -0.0645131915807724, -0.7247998714447021, -0.1326897293329239, -0.6729888916015625, 6.0336174964904785, 5.934720039367676, -0.9031847715377808, 86.53109741210938, 110.18939971923828, 313.16278076171875, -0.305419921875, -0.705078125, 0.372802734375, 0, 
370, 1053037038, -0.04306826740503311, -0.7219921350479126, -0.12134981155395508, -0.6798264980316162, 7.332835674285889, 6.6861042976379395, -1.0960696935653687, 94.47694396972656, 122.4220199584961, 312.1487121582031, -0.326416015625, -0.6845703125, 0.357666015625, 0, 
371, 1053045371, -0.02109885960817337, -0.7177462577819824, -0.11094668507575989, -0.6870978474617004, 8.8355712890625, 7.392668724060059, -1.7347129583358765, 106.90875244140625, 141.66592407226562, 305.8995056152344, -0.339599609375, -0.659912109375, 0.336669921875, 0, 
372, 1053053704, 0.0008302237838506699, -0.7117976546287537, -0.1007700115442276, -0.6951304078102112, 8.903773307800293, 7.697081565856934, -1.747901439666748, 106.96556091308594, 165.21246337890625, 300.6291809082031, -0.352294921875, -0.638427734375, 0.312744140625, 0, 
373, 1053062037, 0.021741341799497604, -0.7049682140350342, -0.088885098695755, -0.7033235430717468, 7.3958587646484375, 7.341060638427734, -0.7959131002426147, 80.48946380615234, 173.8760528564453, 306.6747741699219, -0.3662109375, -0.614990234375, 0.28515625, 0, 
374, 1053070370, 0.04053188115358353, -0.6982436180114746, -0.07398173958063126, -0.710884690284729, 7.617005348205566, 6.426521301269531, -0.12466593086719513, 31.44771385192871, 164.98252868652344, 315.4859619140625, -0.37158203125, -0.59130859375, 0.25927734375, 0, 
375, 1053078703, 0.057431142777204514, -0.6916792988777161, -0.05643504858016968, -0.7177143096923828, 8.878856658935547, 5.962926864624023, -0.24891100823879242, -11.877541542053223, 156.0017852783203, 323.2081604003906, -0.3798828125, -0.568359375, 0.23046875, 0, 
376, 1053087036, 0.07313207536935806, -0.6852983236312866, -0.03718748688697815, -0.7236382961273193, 10.230429649353027, 5.056312084197998, -0.20976018905639648, -39.522491455078125, 145.93447875976562, 328.1790771484375, -0.385009765625, -0.5400390625, 0.196044921875, 0, 
377, 1053095369, 0.08824639022350311, -0.6790410280227661, -0.017808785662055016, -0.7285712957382202, 11.854305267333984, 2.7602169513702393, -0.10429510474205017, -45.95762252807617, 135.2509765625, 324.87396240234375, -0.387451171875, -0.5107421875, 0.17138671875, 0, 
378, 1053103702, 0.103348009288311, -0.6729973554611206, 0.0005135070532560349, -0.7324007749557495, 13.309438705444336, 0.05642767995595932, 1.004913091659546, -35.49296951293945, 121.46878051757812, 316.04736328125, -0.390380859375, -0.48193359375, 0.14404296875, 0, 
379, 1053112035, 0.11882130801677704, -0.6671967506408691, 0.01691257581114769, -0.7351608276367188, 14.295708656311035, -1.6814767122268677, 2.155155897140503, -13.020957946777344, 106.43435668945312, 303.7289123535156, -0.388671875, -0.45263671875, 0.119140625, 0, 
380, 1053120368, 0.13460159301757812, -0.6612862944602966, 0.03083396703004837, -0.7373258471488953, 14.714370727539062, -2.248316526412964, 3.3578383922576904, 14.878182411193848, 97.91969299316406, 284.8770751953125, -0.390380859375, -0.421875, 0.09765625, 0, 
381, 1053128701, 0.14996108412742615, -0.6552644968032837, 0.04206955060362816, -0.739180326461792, 14.783004760742188, -1.590618371963501, 4.282358646392822, 38.366477966308594, 91.47590637207031, 257.0199890136719, -0.38330078125, -0.397216796875, 0.07763671875, 0, 
382, 1053137034, 0.16428379714488983, -0.6491210460662842, 0.050341617316007614, -0.7410369515419006, 14.97015380859375, -0.22798417508602142, 3.206428289413452, 59.39372634887695, 87.1655502319336, 219.62371826171875, -0.381591796875, -0.3779296875, 0.062255859375, 0, 
383, 1053145367, 0.17703470587730408, -0.6425634026527405, 0.0566401369869709, -0.7433574795722961, 11.4069185256958, 2.1757874488830566, -0.5173293948173523, 66.73821258544922, 92.20701599121094, 185.43885803222656, -0.377685546875, -0.36083984375, 0.047607421875, 0, 
384, 1053153700, 0.1877959966659546, -0.6376381516456604, 0.060822322964668274, -0.7446262836456299, 5.3342366218566895, 2.7556893825531006, -3.5974695682525635, 65.98565673828125, 62.56586456298828, 147.48275756835938, -0.374267578125, -0.345458984375, 0.035888671875, 0, 
385, 1053162033, 0.1949319988489151, -0.6356399655342102, 0.06278038024902344, -0.7443382740020752, 3.6520307064056396, 0.22386519610881805, -2.801351547241211, 48.121917724609375, 16.28730583190918, 92.6326675415039, -0.370361328125, -0.337646484375, 0.02880859375, 0, 
386, 1053170366, 0.19718874990940094, -0.6364109516143799, 0.06346773356199265, -0.7430253624916077, 4.283618927001953, -2.0220818519592285, -0.3397858142852783, 10.166956901550293, -20.26242446899414, 31.752511978149414, -0.370849609375, -0.334228515625, 0.02734375, 0, 
387, 1053178699, 0.19501443207263947, -0.6391236782073975, 0.06224101781845093, -0.7413727045059204, 5.188065052032471, -2.8331196308135986, 2.8137927055358887, -14.612399101257324, -44.34371566772461, -30.861345291137695, -0.373291015625, -0.333251953125, 0.033935546875, 0, 
388, 1053187032, 0.18915781378746033, -0.6433165669441223, 0.0587264820933342, -0.73954838514328, 6.492573261260986, -1.4848062992095947, 3.2700650691986084, -27.771413803100586, -63.971580505371094, -89.50068664550781, -0.375244140625, -0.3369140625, 0.04541015625, 0, 
389, 1053195365, 0.18162736296653748, -0.6481758952140808, 0.05134732648730278, -0.737740159034729, 8.175267219543457, 1.1001256704330444, -1.1035693883895874, -4.993737697601318, -79.26443481445312, -141.10781860351562, -0.384765625, -0.35107421875, 0.057861328125, 0, 
390, 1053203698, 0.17503724992275238, -0.6530055999755859, 0.03891546279191971, -0.7358318567276001, 10.638665199279785, 2.544977903366089, -3.984611749649048, 54.64427185058594, -93.19221496582031, -176.52349853515625, -0.384521484375, -0.373046875, 0.070068359375, 0, 
391, 1053212031, 0.16993097960948944, -0.6588732004165649, 0.02280082367360592, -0.7324663996696472, 15.6810941696167, -1.286163568496704, -3.5254063606262207, 101.96773529052734, -126.39039611816406, -191.44432067871094, -0.38916015625, -0.38916015625, 0.089599609375, 0, 
392, 1053220364, 0.16596969962120056, -0.6661249399185181, 0.00895645935088396, -0.7270960807800293, 25.829965591430664, -9.245194435119629, 5.987419128417969, 85.59761810302734, -153.59547424316406, -155.25698852539062, -0.397705078125, -0.40966796875, 0.116455078125, 0, 
393, 1053228697, 0.1535087674856186, -0.6756905913352966, 0.014175244607031345, -0.720897912979126, 34.42515182495117, -15.37098217010498, 22.667951583862305, -188.24864196777344, -139.71554565429688, -63.845069885253906, -0.4033203125, -0.414306640625, 0.13818359375, 0, 
394, 1053237030, 0.14346186816692352, -0.6772845983505249, 0.019459975883364677, -0.7213478088378906, 21.093334197998047, -4.058842658996582, 11.784769058227539, -148.3535614013672, 0.723733127117157, -51.94597625732422, -0.409423828125, -0.413818359375, 0.143798828125, 0, 
395, 1053245363, 0.14944279193878174, -0.6740918159484863, 0.002503099851310253, -0.7233795523643494, 4.888160228729248, 6.278207302093506, -3.848673105239868, 231.442626953125, 14.807108879089355, -101.78288269042969, -0.410400390625, -0.42919921875, 0.147216796875, 0, 
396, 1053253696, 0.15897178649902344, -0.6724652051925659, -0.025629553943872452, -0.7224119305610657, 4.866742134094238, 6.768832683563232, -9.489326477050781, 372.2043762207031, -51.76276779174805, -164.16748046875, -0.407470703125, -0.44775390625, 0.162109375, 0, 
397, 1053262029, 0.15646693110466003, -0.6749047040939331, -0.044274263083934784, -0.7197770476341248, 9.117219924926758, 8.329242706298828, -2.2912099361419678, 158.3413543701172, -90.98151397705078, -190.71096801757812, -0.406982421875, -0.468994140625, 0.1845703125, 0, 
398, 1053270362, 0.15220202505588531, -0.6771212220191956, -0.05786120146512985, -0.717642605304718, 10.570751190185547, 14.334388732910156, -6.870422840118408, 92.10236358642578, -74.3920669555664, -162.54307556152344, -0.409912109375, -0.487548828125, 0.206298828125, 0, 
399, 1053278695, 0.15253838896751404, -0.6783567667007446, -0.07277686148881912, -0.7150420546531677, 7.764015197753906, 14.200258255004883, -9.426998138427734, 150.49644470214844, -68.09510040283203, -129.16600036621094, -0.410888671875, -0.5, 0.224365234375, 0, 
400, 1053287028, 0.15311312675476074, -0.680739164352417, -0.08560995757579803, -0.7112234830856323, 6.233983516693115, 11.810701370239258, -10.102572441101074, 131.04559326171875, -86.19210815429688, -103.7945785522461, -0.41259765625, -0.511474609375, 0.24560546875, 0, 
401, 1053295361, 0.15027721226215363, -0.6839057803153992, -0.09488124400377274, -0.7076048851013184, 7.45828104019165, 7.138018608093262, -6.941948890686035, 62.402069091796875, -88.43992614746094, -103.20227813720703, -0.408203125, -0.515869140625, 0.262451171875, 0, 
402, 1053303694, 0.14320875704288483, -0.6872845888137817, -0.1009296402335167, -0.7049550414085388, 8.201812744140625, 6.255824089050293, -2.647707939147949, -10.470797538757324, -80.28900146484375, -115.8613052368164, -0.41015625, -0.523193359375, 0.276123046875, 0, 
403, 1053312027, 0.13387395441532135, -0.6914095282554626, -0.10490430891513824, -0.7021702527999878, 8.704813003540039, 9.158110618591309, -0.5813584327697754, -53.27202606201172, -87.82593536376953, -116.8723373413086, -0.408447265625, -0.532470703125, 0.2900390625, 0, 
404, 1053320360, 0.12428991496562958, -0.6955742239952087, -0.10763710737228394, -0.6993997097015381, 10.87951946258545, 12.032033920288086, -2.214442729949951, -67.73141479492188, -86.16389465332031, -107.47466278076172, -0.410400390625, -0.5419921875, 0.302490234375, 0, 
405, 1053328693, 0.11644089967012405, -0.6985146403312683, -0.10998795181512833, -0.6974517107009888, 13.432082176208496, 13.57194995880127, -1.9235200881958008, -53.928462982177734, -63.28474807739258, -90.31790924072266, -0.40673828125, -0.552978515625, 0.31494140625, 0, 
406, 1053337026, 0.10992252081632614, -0.7001841068267822, -0.11098702996969223, -0.6966766715049744, 12.33553409576416, 12.855208396911621, 0.14968077838420868, -53.85268020629883, -35.65977096557617, -68.3697280883789, -0.402587890625, -0.5595703125, 0.3203125, 0, 
407, 1053345359, 0.10239566117525101, -0.702063798904419, -0.11013345420360565, -0.6960671544075012, 9.716364860534668, 10.021551132202148, 0.11003407835960388, -81.8802261352539, -34.8093376159668, -60.12301254272461, -0.4052734375, -0.56494140625, 0.326416015625, 0, 
408, 1053353692, 0.09424041956663132, -0.7042678594589233, -0.10916431248188019, -0.695144772529602, 9.284979820251465, 6.55267333984375, -1.1749101877212524, -89.03035736083984, -41.73112106323242, -64.04666900634766, -0.403076171875, -0.56787109375, 0.329833984375, 0, 
409, 1053362025, 0.08597876131534576, -0.7063112854957581, -0.10819435864686966, -0.6942936778068542, 10.295271873474121, 2.7075328826904297, -2.1320583820343018, -89.97463989257812, -39.65544509887695, -65.43354034423828, -0.399658203125, -0.577392578125, 0.332763671875, 0, 
410, 1053370358, 0.07695000618696213, -0.7082672119140625, -0.10618497431278229, -0.6936700940132141, 10.66791820526123, 0.4175132215023041, -3.8206522464752197, -107.5740966796875, -36.53229522705078, -62.99132537841797, -0.392578125, -0.582275390625, 0.3310546875, 0, 
411, 1053378691, 0.07009755074977875, -0.7096859216690063, -0.10555976629257202, -0.6930416226387024, 10.854930877685547, -0.5466885566711426, -4.023070812225342, -72.6065902709961, -29.732776641845703, -56.56203842163086, -0.38916015625, -0.586181640625, 0.333740234375, 0, 
412, 1053387024, 0.06575413793325424, -0.7106040120124817, -0.10685396194458008, -0.6923279762268066, 10.99674129486084, -2.5072081089019775, -1.8581454753875732, -29.210758209228516, -24.002676010131836, -51.95200729370117, -0.388427734375, -0.59130859375, 0.337646484375, 0, 
413, 1053395357, 0.06292285770177841, -0.7114795446395874, -0.10965784639120102, -0.691252589225769, 11.001805305480957, -2.278925657272339, -1.8765387535095215, 0.49580350518226624, -26.27475357055664, -52.11823654174805, -0.388671875, -0.59765625, 0.344482421875, 0, 
414, 1053403690, 0.060831911861896515, -0.7124614715576172, -0.11337976157665253, -0.6898263692855835, 10.837407112121582, -0.009223543107509613, -2.5456042289733887, 16.912179946899414, -30.38907241821289, -53.530128479003906, -0.387451171875, -0.600341796875, 0.348876953125, 0, 
415, 1053412023, 0.05849097669124603, -0.713301956653595, -0.11672446131706238, -0.6886013150215149, 10.786102294921875, 2.2146482467651367, -2.37203311920166, 10.679953575134277, -27.156837463378906, -52.66214370727539, -0.3876953125, -0.603759765625, 0.360107421875, 0, 
416, 1053420356, 0.05541510507464409, -0.7139616012573242, -0.1189156025648117, -0.6877966523170471, 10.504770278930664, 4.339240074157715, -1.916275978088379, -7.971118450164795, -21.558916091918945, -48.87443923950195, -0.3857421875, -0.610107421875, 0.36181640625, 0, 
417, 1053428689, 0.052044179290533066, -0.714626133441925, -0.12042927742004395, -0.6871061325073242, 9.983485221862793, 5.063553810119629, -1.6594786643981934, -17.476301193237305, -20.46561622619629, -45.15306091308594, -0.38330078125, -0.614501953125, 0.366455078125, 0, 
418, 1053437022, 0.04765304550528526, -0.715319037437439, -0.12084038555622101, -0.686631441116333, 9.576544761657715, 4.187743186950684, -0.6846002340316772, -38.29011535644531, -19.494609832763672, -43.997013092041016, -0.37939453125, -0.615478515625, 0.36572265625, 0, 
419, 1053445355, 0.04242014139890671, -0.7159889340400696, -0.12060244381427765, -0.6863181591033936, 9.200758934020996, 2.853456974029541, -1.0672820806503296, -52.95858383178711, -18.681251525878906, -45.77265548706055, -0.379638671875, -0.62158203125, 0.364990234375, 0, 
420, 1053453688, 0.0372651033103466, -0.716717541217804, -0.12067939341068268, -0.6858434081077576, 9.365827560424805, 1.2024853229522705, -1.0478827953338623, -48.977237701416016, -20.859596252441406, -47.86483383178711, -0.376708984375, -0.62548828125, 0.367919921875, 0, 
421, 1053462021, 0.032372552901506424, -0.7174258828163147, -0.12101822346448898, -0.6852912902832031, 9.773787498474121, 0.18059387803077698, -0.8040773868560791, -43.791709899902344, -21.149837493896484, -48.04640579223633, -0.37158203125, -0.631591796875, 0.369873046875, 0, 
422, 1053470354, 0.02815561555325985, -0.7179084420204163, -0.1217825636267662, -0.6848365068435669, 9.914868354797363, -0.28748977184295654, -0.8564666509628296, -33.168792724609375, -17.105009078979492, -46.211524963378906, -0.37109375, -0.635986328125, 0.373046875, 0, 
423, 1053478687, 0.024679528549313545, -0.7182518839836121, -0.1231045350432396, -0.6843739748001099, 9.793387413024902, -0.3225770592689514, -1.416838526725769, -20.5448055267334, -14.867932319641113, -45.055198669433594, -0.370849609375, -0.637451171875, 0.37451171875, 0, 
424, 1053487020, 0.021847296506166458, -0.7185552716255188, -0.12502530217170715, -0.6838033199310303, 9.627191543579102, 0.18190795183181763, -1.302960991859436, -8.341639518737793, -14.651667594909668, -44.858673095703125, -0.365478515625, -0.642822265625, 0.37890625, 0, 
425, 1053495353, 0.019412793219089508, -0.7188687920570374, -0.12735401093959808, -0.6831172108650208, 9.683893203735352, 0.7110012769699097, -0.4160991609096527, -0.39247485995292664, -15.349091529846191, -45.18048095703125, -0.365234375, -0.6474609375, 0.380126953125, 0, 
426, 1053503686, 0.016806647181510925, -0.7191219925880432, -0.12965521216392517, -0.6824862957000732, 9.897797584533691, 1.3649049997329712, -0.24045468866825104, -2.41957688331604, -14.503884315490723, -46.56336212158203, -0.359619140625, -0.649658203125, 0.386962890625, 0, 
427, 1053512019, 0.013970449566841125, -0.7192729711532593, -0.13173861801624298, -0.6819919943809509, 9.848993301391602, 2.0758774280548096, -0.3464394211769104, -6.967944622039795, -12.578216552734375, -46.86009979248047, -0.361083984375, -0.654541015625, 0.38818359375, 0, 
428, 1053520352, 0.010972283780574799, -0.7193742394447327, -0.1336027979850769, -0.6815775632858276, 9.435436248779297, 2.2514615058898926, -0.44363176822662354, -10.751327514648438, -11.551133155822754, -46.240814208984375, -0.354736328125, -0.656982421875, 0.391845703125, 0, 
429, 1053528685, 0.007748185656964779, -0.7194657325744629, -0.13523894548416138, -0.6812024116516113, 9.025118827819824, 1.9700521230697632, -0.5088582634925842, -15.204079627990723, -11.472896575927734, -46.20103073120117, -0.353515625, -0.663818359375, 0.3935546875, 0, 
430, 1053537018, 0.004425277002155781, -0.7195582985877991, -0.13689082860946655, -0.6808043718338013, 8.796873092651367, 1.6025917530059814, -0.8356029391288757, -15.982383728027344, -11.87490177154541, -47.20067596435547, -0.35205078125, -0.66748046875, 0.395751953125, 0, 
431, 1053545351, 0.0011913832277059555, -0.7196210026741028, -0.13873742520809174, -0.6803775429725647, 8.795487403869629, 1.2067598104476929, -1.1501840353012085, -13.230692863464355, -11.745524406433105, -48.424991607666016, -0.3486328125, -0.673095703125, 0.399169921875, 0, 
432, 1053553684, -0.0017625736072659492, -0.7196483612060547, -0.14092671871185303, -0.6798969507217407, 8.908413887023926, 0.7383072376251221, -1.2932955026626587, -7.142186641693115, -11.396695137023926, -49.18733215332031, -0.346435546875, -0.674560546875, 0.40234375, 0, 
433, 1053562017, -0.004454250447452068, -0.7196218967437744, -0.1434183567762375, -0.6793915033340454, 8.979687690734863, 0.4299814701080322, -1.2474114894866943, -1.683396816253662, -10.644968032836914, -49.90993881225586, -0.34228515625, -0.678466796875, 0.405029296875, 0, 
434, 1053570350, -0.00697688665241003, -0.7196080684661865, -0.14614203572273254, -0.6788042187690735, 9.017552375793457, 0.39619332551956177, -1.1377334594726562, 2.329760789871216, -11.201387405395508, -50.5312385559082, -0.342041015625, -0.682373046875, 0.408203125, 0, 
435, 1053578683, -0.009376061148941517, -0.7196147441864014, -0.14905937016010284, -0.6781336665153503, 9.18165111541748, 0.5178689956665039, -1.164908766746521, 5.519842147827148, -11.973172187805176, -51.337066650390625, -0.337158203125, -0.68310546875, 0.409423828125, 0, 
436, 1053587016, -0.011786984279751778, -0.719565212726593, -0.1520596146583557, -0.6774824857711792, 9.33532428741455, 0.37820249795913696, -0.9698848724365234, 6.139389514923096, -11.24551010131836, -52.31007766723633, -0.3330078125, -0.68994140625, 0.4150390625, 0, 
437, 1053595349, -0.014385046437382698, -0.7194918394088745, -0.15495195984840393, -0.6768546104431152, 9.214582443237305, 0.3064366579055786, -0.6853796243667603, 3.219743251800537, -11.228272438049316, -53.10097122192383, -0.3330078125, -0.697021484375, 0.41943359375, 0, 
438, 1053603682, -0.01713452860713005, -0.7194650173187256, -0.15785206854343414, -0.6761482954025269, 9.045339584350586, 0.4768526554107666, -0.40745875239372253, 1.976438045501709, -12.733022689819336, -54.43781661987305, -0.325927734375, -0.697509765625, 0.425537109375, 0, 
439, 1053612015, -0.019980743527412415, -0.7194471955299377, -0.16097456216812134, -0.6753524541854858, 9.122336387634277, 0.45227840542793274, -0.40920931100845337, 3.276160478591919, -13.885058403015137, -57.60536575317383, -0.321533203125, -0.70068359375, 0.428466796875, 0, 
