PacketCounter,SampleTimeFine,Quat_W,Quat_X,Quat_Y,Quat_Z,Acc_X,Acc_Y,Acc_Z,Gyr_X,Gyr_Y,Gyr_Z,Mag_X,Mag_Y,Mag_Z,Status,
0, 1006755556, 0.013327071443200111, -0.6766462922096252, -0.08355240523815155, -0.7314426302909851, 0, 0, 0, 0, 0, 0, -0.520751953125, -0.821044921875, 0.218505859375, 0, 
1, 1006763889, 0.01330051850527525, -0.6766413450241089, -0.08348198235034943, -0.7314558029174805, 9.749095916748047, 0.9803686738014221, 0.6877887845039368, -0.2902604937553406, -0.5799062848091125, 0.36337634921073914, -0.521728515625, -0.822021484375, 0.22021484375, 0, 
2, 1006772222, 0.01324848085641861, -0.6766364574432373, -0.08338606357574463, -0.7314722537994385, 9.732637405395508, 1.0716747045516968, 0.7533946633338928, -0.765788733959198, -0.5954028367996216, 0.1886872798204422, -0.520751953125, -0.821044921875, 0.221435546875, 0, 
3, 1006780555, 0.01317638624459505, -0.6766427755355835, -0.08330483734607697, -0.7314769625663757, 9.741291999816895, 1.0338432788848877, 0.7077451944351196, -0.8145071268081665, -0.8226524591445923, 0.020529812201857567, -0.52001953125, -0.8193359375, 0.22119140625, 0, 
4, 1006788888, 0.013110165484249592, -0.6766170263290405, -0.08320724219083786, -0.7315131425857544, 9.71049976348877, 0.9187540411949158, 0.7545175552368164, -0.9322044253349304, -0.2163121998310089, 0.03536045178771019, -0.52294921875, -0.821044921875, 0.220947265625, 0, 
5, 1006797221, 0.013090759515762329, -0.6765941381454468, -0.08316274732351303, -0.7315396070480347, 9.697545051574707, 0.832290530204773, 0.6796130537986755, 0.02580634318292141, -0.2728171944618225, 0.1713208109140396, -0.518798828125, -0.822021484375, 0.21875, 0, 
6, 1006805554, 0.01312197558581829, -0.6765698790550232, -0.08316370844841003, -0.7315614223480225, 9.698840141296387, 0.7712693214416504, 0.6733900904655457, 0.9810380339622498, -0.27171579003334045, 0.10221359878778458, -0.525634765625, -0.825439453125, 0.21875, 0, 
7, 1006813887, 0.013174712657928467, -0.6765479445457458, -0.08319331705570221, -0.7315773963928223, 9.668404579162598, 0.7798742055892944, 0.6772669553756714, 1.4537230730056763, -0.3102908432483673, 0.20976777374744415, -0.521240234375, -0.82177734375, 0.218017578125, 0, 
8, 1006822220, 0.013230394572019577, -0.6765241622924805, -0.08319610357284546, -0.731597900390625, 9.666566848754883, 0.9082965850830078, 0.7117579579353333, 1.2280232906341553, -0.2608681917190552, 0.33316436409950256, -0.522216796875, -0.822021484375, 0.22021484375, 0, 
9, 1006830553, 0.013282613828778267, -0.6765003204345703, -0.08321663737297058, -0.731616735458374, 9.7030029296875, 1.0454022884368896, 0.6831108331680298, 1.3557997941970825, -0.2639290690422058, 0.28732767701148987, -0.521240234375, -0.822265625, 0.21826171875, 0, 
10, 1006838886, 0.013381977565586567, -0.6764855980873108, -0.08328457921743393, -0.7316210269927979, 9.705400466918945, 1.0904101133346558, 0.681034505367279, 2.3052685260772705, -0.4638994038105011, 0.17869770526885986, -0.52197265625, -0.825439453125, 0.21826171875, 0, 
11, 1006847219, 0.013490907847881317, -0.6764799356460571, -0.08338361233472824, -0.7316129803657532, 9.727476119995117, 1.0454699993133545, 0.6755822896957397, 2.7011876106262207, -0.647322952747345, 0.15344208478927612, -0.51953125, -0.8212890625, 0.217041015625, 0, 
12, 1006855552, 0.013575859367847443, -0.6764826774597168, -0.08342950791120529, -0.7316035628318787, 9.75889778137207, 0.9963341951370239, 0.7055336236953735, 1.9603981971740723, -0.7793898582458496, 0.2621232569217682, -0.52294921875, -0.81982421875, 0.21826171875, 0, 
13, 1006863885, 0.013642638921737671, -0.6764776706695557, -0.08345341682434082, -0.7316041588783264, 9.729201316833496, 0.9461003541946411, 0.6466240286827087, 1.542553424835205, -0.6073647737503052, 0.42787301540374756, -0.523193359375, -0.822265625, 0.220703125, 0, 
14, 1006872218, 0.013731531798839569, -0.6764611005783081, -0.08347495645284653, -0.7316153049468994, 9.70211410522461, 0.9183815121650696, 0.6117914319038391, 1.734070897102356, -0.38631388545036316, 0.5023078918457031, -0.523193359375, -0.823974609375, 0.21875, 0, 
15, 1006880551, 0.013829058036208153, -0.6764530539512634, -0.08352608233690262, -0.7316150069236755, 9.734203338623047, 0.8915621042251587, 0.6289780735969543, 2.1037096977233887, -0.5547530651092529, 0.4795112609863281, -0.5205078125, -0.8212890625, 0.217529296875, 0, 
16, 1006888884, 0.013933734968304634, -0.6764464378356934, -0.08356514573097229, -0.731614887714386, 9.720215797424316, 0.8726087808609009, 0.6290945410728455, 2.069873571395874, -0.5736051797866821, 0.5129634141921997, -0.523193359375, -0.82177734375, 0.219970703125, 0, 
17, 1006897217, 0.014037683606147766, -0.6764346361160278, -0.08362703025341034, -0.7316167950630188, 9.738070487976074, 0.9142909646034241, 0.6843451857566833, 2.2700998783111572, -0.49240803718566895, 0.43927130103111267, -0.522705078125, -0.8203125, 0.2197265625, 0, 
18, 1006905550, 0.014142906293272972, -0.6764278411865234, -0.08367020636796951, -0.7316161394119263, 9.737615585327148, 0.9436116218566895, 0.7229129672050476, 2.116363286972046, -0.5764995813369751, 0.48068949580192566, -0.523193359375, -0.821533203125, 0.217041015625, 0, 
19, 1006913883, 0.014209002256393433, -0.6764225959777832, -0.08370121568441391, -0.7316161394119263, 9.705902099609375, 0.9644295573234558, 0.6854250431060791, 1.6067936420440674, -0.6136658191680908, 0.3543089032173157, -0.524658203125, -0.82470703125, 0.21875, 0, 
20, 1006922216, 0.01425396278500557, -0.6763989329338074, -0.08370135724544525, -0.7316370606422424, 9.697366714477539, 0.9788808822631836, 0.6813583374023438, 1.103371500968933, -0.2686164677143097, 0.2515701651573181, -0.52490234375, -0.824462890625, 0.2197265625, 0, 
21, 1006930549, 0.014282522723078728, -0.6763715744018555, -0.08368823677301407, -0.7316632866859436, 9.677446365356445, 0.9869135022163391, 0.7260564565658569, 0.7880347371101379, -0.18173299729824066, 0.3552566170692444, -0.52197265625, -0.822509765625, 0.21923828125, 0, 
22, 1006938882, 0.01430029422044754, -0.6763567328453064, -0.08365288376808167, -0.7316806316375732, 9.69515609741211, 0.9277308583259583, 0.6940045952796936, 0.4930867850780487, -0.4147456884384155, 0.31952473521232605, -0.522216796875, -0.8212890625, 0.219970703125, 0, 
23, 1006947215, 0.014337070286273956, -0.6763309836387634, -0.08366486430168152, -0.7317023873329163, 9.696815490722656, 0.9522797465324402, 0.6400362849235535, 1.1235812902450562, -0.23408851027488708, 0.20643794536590576, -0.52392578125, -0.82177734375, 0.21923828125, 0, 
24, 1006955548, 0.01444617472589016, -0.6763024926185608, -0.08374049514532089, -0.7317177653312683, 9.749467849731445, 0.8990091681480408, 0.6526685953140259, 2.465024471282959, -0.2132897526025772, 0.191812202334404, -0.522705078125, -0.823486328125, 0.21826171875, 0, 
25, 1006963881, 0.014563489705324173, -0.6762649416923523, -0.08383543789386749, -0.7317394018173218, 9.743393898010254, 0.8808435201644897, 0.6894163489341736, 2.7098965644836426, -0.039394695311784744, 0.23238515853881836, -0.521484375, -0.822265625, 0.21923828125, 0, 
26, 1006972214, 0.01465469691902399, -0.6762346625328064, -0.08387146890163422, -0.7317613959312439, 9.72362995147705, 0.9342595934867859, 0.6144903302192688, 1.8920080661773682, -0.14384953677654266, 0.3763115108013153, -0.52294921875, -0.822265625, 0.218994140625, 0, 
27, 1006980547, 0.014725336804986, -0.6762120127677917, -0.08388329297304153, -0.7317795157432556, 9.73900318145752, 1.0398590564727783, 0.585109531879425, 1.439225435256958, -0.2593953609466553, 0.553869366645813, -0.522705078125, -0.82421875, 0.216552734375, 0, 
28, 1006988880, 0.014787618070840836, -0.6761819124221802, -0.08387161046266556, -0.7318074703216553, 9.702559471130371, 1.1045706272125244, 0.6115251779556274, 1.1362090110778809, -0.11513598263263702, 0.5279477834701538, -0.5234375, -0.820556640625, 0.21826171875, 0, 
29, 1006997213, 0.014800040982663631, -0.6761799454689026, -0.08382733911275864, -0.7318141460418701, 9.700793266296387, 1.084206461906433, 0.7130597829818726, 0.34329476952552795, -0.6310322880744934, 0.5172154307365417, -0.521240234375, -0.822998046875, 0.22119140625, 0, 
30, 1007005546, 0.014769145287573338, -0.6761687994003296, -0.08373160660266876, -0.7318360805511475, 9.713210105895996, 1.0480059385299683, 0.7057996392250061, -0.5736820697784424, -0.45311588048934937, 0.39413905143737793, -0.523193359375, -0.820068359375, 0.216552734375, 0, 
31, 1007013879, 0.014753109775483608, -0.6761594414710999, -0.08366198092699051, -0.7318530678749084, 9.750448226928711, 1.0011475086212158, 0.655701220035553, -0.18734249472618103, -0.4871315062046051, 0.4562534987926483, -0.51953125, -0.8212890625, 0.219970703125, 0, 
32, 1007022212, 0.014752108603715897, -0.6761490106582642, -0.08358953893184662, -0.7318707704544067, 9.766026496887207, 0.9553122520446777, 0.6312240958213806, -0.05366181954741478, -0.4679977297782898, 0.48299479484558105, -0.52001953125, -0.8232421875, 0.21875, 0, 
33, 1007030545, 0.0147442277520895, -0.6761344075202942, -0.0835258737206459, -0.7318917512893677, 9.75446891784668, 0.9173450469970703, 0.687395453453064, -0.05528832599520683, -0.38881129026412964, 0.4740426242351532, -0.51953125, -0.8203125, 0.214599609375, 0, 
34, 1007038878, 0.014756016433238983, -0.6761069893836975, -0.08346673101186752, -0.7319236993789673, 9.712845802307129, 0.9028390049934387, 0.7091042399406433, 0.18119509518146515, -0.15464593470096588, 0.46551311016082764, -0.522216796875, -0.822998046875, 0.21826171875, 0, 
35, 1007047211, 0.014795063063502312, -0.6760777235031128, -0.08343525975942612, -0.731953501701355, 9.725642204284668, 0.8909652829170227, 0.6980316638946533, 0.698743462562561, -0.11324052512645721, 0.6298155784606934, -0.521728515625, -0.8193359375, 0.216796875, 0, 
36, 1007055544, 0.014811121858656406, -0.6760287880897522, -0.08336450904607773, -0.732006311416626, 9.742307662963867, 0.921944260597229, 0.7012647390365601, 0.08676823228597641, 0.2657092809677124, 0.586783766746521, -0.52392578125, -0.817626953125, 0.2197265625, 0, 
37, 1007063877, 0.014799622818827629, -0.6759657859802246, -0.08328143507242203, -0.7320743203163147, 9.707030296325684, 0.9538030028343201, 0.6924381256103516, -0.32738837599754333, 0.5357985496520996, 0.5529345273971558, -0.52685546875, -0.822021484375, 0.217529296875, 0, 
38, 1007072210, 0.014798820950090885, -0.675907552242279, -0.08319500088691711, -0.7321379780769348, 9.682273864746094, 0.9777936339378357, 0.7058854699134827, -0.2389295995235443, 0.44229379296302795, 0.5517434477806091, -0.524169921875, -0.821533203125, 0.214599609375, 0, 
39, 1007080543, 0.014807158149778843, -0.6758639812469482, -0.0831231102347374, -0.7321862578392029, 9.683554649353027, 0.9223161935806274, 0.6963149309158325, -0.01132149063050747, 0.1763411909341812, 0.6759980916976929, -0.52490234375, -0.8232421875, 0.21875, 0, 
40, 1007088876, 0.014830527827143669, -0.6758351922035217, -0.08305881917476654, -0.7322195768356323, 9.691367149353027, 0.8884762525558472, 0.6942905187606812, 0.23471605777740479, -0.11178051680326462, 0.6289190649986267, -0.521728515625, -0.820556640625, 0.217041015625, 0, 
41, 1007097209, 0.014852161519229412, -0.6758105754852295, -0.08302708715200424, -0.7322454452514648, 9.736135482788086, 0.846817672252655, 0.75956791639328, 0.5379117131233215, -0.21615852415561676, 0.46183738112449646, -0.52294921875, -0.82275390625, 0.218994140625, 0, 
42, 1007105542, 0.014880293048918247, -0.6757786273956299, -0.08297744393348694, -0.7322798371315002, 9.751084327697754, 0.84633868932724, 0.7681724429130554, 0.4276936650276184, -0.06721174716949463, 0.5388850569725037, -0.525146484375, -0.821533203125, 0.219482421875, 0, 
43, 1007113875, 0.014888454228639603, -0.6757549047470093, -0.08293042331933975, -0.7323068976402283, 9.752822875976562, 0.8536632061004639, 0.7282023429870605, 0.25697481632232666, -0.22619929909706116, 0.4681897759437561, -0.52001953125, -0.823974609375, 0.21826171875, 0, 
44, 1007122208, 0.014923349022865295, -0.6757333874702454, -0.08289405703544617, -0.7323302030563354, 9.74560546875, 0.8392215967178345, 0.7345397472381592, 0.6354763507843018, -0.27012771368026733, 0.4967495799064636, -0.525634765625, -0.82275390625, 0.215087890625, 0, 
45, 1007130541, 0.014951060526072979, -0.6757115721702576, -0.08286327868700027, -0.7323532700538635, 9.74311637878418, 0.867374837398529, 0.7289894819259644, 0.6051490902900696, -0.2626483738422394, 0.5181630849838257, -0.5234375, -0.82275390625, 0.216796875, 0, 
46, 1007138874, 0.014965676702558994, -0.6756739616394043, -0.0827910527586937, -0.7323959469795227, 9.715498924255371, 0.9687381386756897, 0.6800708770751953, 0.06835158169269562, 0.054314982146024704, 0.6031255722045898, -0.52783203125, -0.821533203125, 0.216552734375, 0, 
47, 1007147207, 0.014969289302825928, -0.675646185874939, -0.08274082094430923, -0.732427179813385, 9.70480728149414, 1.0505740642547607, 0.5926986932754517, 0.17862087488174438, -0.15168751776218414, 0.44798022508621216, -0.52197265625, -0.82275390625, 0.214111328125, 0, 
48, 1007155540, 0.015042317099869251, -0.6756225228309631, -0.08271986246109009, -0.7324498295783997, 9.72240924835205, 1.0243443250656128, 0.6601001024246216, 1.145122766494751, -0.21426306664943695, 0.7348852157592773, -0.5234375, -0.818603515625, 0.215087890625, 0, 
49, 1007163873, 0.015087977051734924, -0.6756065487861633, -0.08267996460199356, -0.7324681282043457, 9.709755897521973, 1.0178850889205933, 0.7144621014595032, 0.6864998936653137, -0.34392231702804565, 0.7918768525123596, -0.52099609375, -0.818115234375, 0.21826171875, 0, 
50, 1007172206, 0.015128493309020996, -0.6755971312522888, -0.08262254297733307, -0.732482373714447, 9.707966804504395, 0.9742243885993958, 0.7221581935882568, 0.48296919465065, -0.4653594195842743, 0.764853835105896, -0.5224609375, -0.817626953125, 0.21435546875, 0, 
51, 1007180539, 0.015166915021836758, -0.6755856871604919, -0.08257564157247543, -0.7324973940849304, 9.707107543945312, 0.9054280519485474, 0.7430447936058044, 0.550616443157196, -0.4251707196235657, 0.7906474471092224, -0.521484375, -0.8203125, 0.216552734375, 0, 
52, 1007188872, 0.015219906345009804, -0.6755732297897339, -0.08253931999206543, -0.7325118184089661, 9.697802543640137, 0.8407952189445496, 0.7543745636940002, 0.8111132383346558, -0.4254012405872345, 0.6920583248138428, -0.522216796875, -0.82177734375, 0.215576171875, 0, 
53, 1007197205, 0.015262741595506668, -0.6755465269088745, -0.08250629156827927, -0.7325392961502075, 9.734911918640137, 0.8015046715736389, 0.8206671476364136, 0.7203107476234436, -0.15576016902923584, 0.6838104724884033, -0.522216796875, -0.8173828125, 0.218994140625, 0, 
54, 1007205538, 0.015301409177482128, -0.6755227446556091, -0.08244405686855316, -0.7325674891471863, 9.70620059967041, 0.8314607739448547, 0.7847670316696167, 0.40471771359443665, -0.1926446408033371, 0.7741005420684814, -0.5244140625, -0.822021484375, 0.21923828125, 0, 
55, 1007213871, 0.015363156795501709, -0.6754950881004333, -0.08240892738103867, -0.7325956225395203, 9.669842720031738, 0.8574470281600952, 0.7246258854866028, 0.872382402420044, -0.11700581014156342, 0.8936678171157837, -0.527587890625, -0.8212890625, 0.213134765625, 0, 
56, 1007222204, 0.015457987785339355, -0.6754743456840515, -0.08241796493530273, -0.7326118350028992, 9.69509220123291, 0.9003034234046936, 0.6784378886222839, 1.6579196453094482, -0.2872636318206787, 0.68260657787323, -0.5224609375, -0.819091796875, 0.21484375, 0, 
57, 1007230537, 0.01554378867149353, -0.6754658818244934, -0.08244206011295319, -0.7326151728630066, 9.730306625366211, 0.9242395758628845, 0.7244563698768616, 1.718343734741211, -0.5272946357727051, 0.613601803779602, -0.526123046875, -0.8203125, 0.216064453125, 0, 
58, 1007238870, 0.015632111579179764, -0.675453782081604, -0.08244512975215912, -0.7326240539550781, 9.73739242553711, 0.9657135605812073, 0.7630176544189453, 1.5445256233215332, -0.44681474566459656, 0.6842458248138428, -0.521484375, -0.820556640625, 0.2158203125, 0, 
59, 1007247203, 0.015722939744591713, -0.6754428744316101, -0.08248043805360794, -0.7326281666755676, 9.750022888183594, 0.9327057600021362, 0.7486652731895447, 1.8770495653152466, -0.4930740296840668, 0.5563796162605286, -0.5234375, -0.820068359375, 0.21533203125, 0, 
60, 1007255536, 0.01580936834216118, -0.6754381656646729, -0.08249245584011078, -0.7326292991638184, 9.721478462219238, 0.863289475440979, 0.705163836479187, 1.6204204559326172, -0.5971189737319946, 0.5918040871620178, -0.52294921875, -0.8203125, 0.218505859375, 0, 
61, 1007263869, 0.015860993415117264, -0.6754498481750488, -0.08249011635780334, -0.7326176762580872, 9.700693130493164, 0.7965978384017944, 0.6775745153427124, 1.1475049257278442, -0.901518702507019, 0.5407549142837524, -0.523681640625, -0.8173828125, 0.212890625, 0, 
62, 1007272202, 0.015883492305874825, -0.675453782081604, -0.08246880769729614, -0.7326158881187439, 9.721007347106934, 0.7650963664054871, 0.6409019827842712, 0.6921094059944153, -0.7771358489990234, 0.2689110040664673, -0.524169921875, -0.82177734375, 0.214111328125, 0, 
63, 1007280535, 0.015910262241959572, -0.6754423379898071, -0.08246529847383499, -0.7326263189315796, 9.743494987487793, 0.7666703462600708, 0.6575250625610352, 0.8858298659324646, -0.4926641583442688, 0.27003806829452515, -0.52294921875, -0.818603515625, 0.217529296875, 0, 
64, 1007288868, 0.015970267355442047, -0.6754298806190491, -0.08246966451406479, -0.7326359748840332, 9.729819297790527, 0.8231992125511169, 0.7101986408233643, 1.2931218147277832, -0.46794649958610535, 0.38694143295288086, -0.52294921875, -0.818603515625, 0.215087890625, 0, 
65, 1007297201, 0.016000663861632347, -0.6754173040390015, -0.08246918022632599, -0.7326469421386719, 9.726243019104004, 0.9089765548706055, 0.7008569240570068, 0.9479443430900574, -0.47230085730552673, 0.2764928340911865, -0.525146484375, -0.8193359375, 0.21533203125, 0, 
66, 1007305534, 0.016005896031856537, -0.6754046678543091, -0.08242618292570114, -0.7326633334159851, 9.755568504333496, 1.0110468864440918, 0.6602146625518799, 0.298982173204422, -0.4546014964580536, 0.27339357137680054, -0.52294921875, -0.8212890625, 0.2158203125, 0, 
67, 1007313867, 0.01602393016219139, -0.6753957867622375, -0.08239960670471191, -0.7326741218566895, 9.696529388427734, 1.0305958986282349, 0.7001917958259583, 0.5697246789932251, -0.5182271599769592, 0.39898011088371277, -0.5244140625, -0.820556640625, 0.2158203125, 0, 
68, 1007322200, 0.01601998694241047, -0.675388514995575, -0.08232522010803223, -0.7326892614364624, 9.69876766204834, 1.0009976625442505, 0.6984893679618835, -0.10043340921401978, -0.5240160226821899, 0.479408860206604, -0.524658203125, -0.822509765625, 0.214599609375, 0, 
69, 1007330533, 0.015977149829268456, -0.6753843426704407, -0.08224558085203171, -0.7327030301094055, 9.721186637878418, 0.9630368947982788, 0.6881681680679321, -0.5339286923408508, -0.5961969494819641, 0.2833830714225769, -0.525634765625, -0.81982421875, 0.216064453125, 0, 
70, 1007338866, 0.015936708077788353, -0.6753782033920288, -0.08215827494859695, -0.732719361782074, 9.735527038574219, 0.8801001310348511, 0.6861793994903564, -0.5742710828781128, -0.5628728270530701, 0.23276935517787933, -0.521484375, -0.818115234375, 0.21826171875, 0, 
71, 1007347199, 0.015929222106933594, -0.6753838062286377, -0.08210168778896332, -0.732720673084259, 9.728988647460938, 0.8414746522903442, 0.6767590045928955, 0.03804994747042656, -0.7757015228271484, 0.43947628140449524, -0.522705078125, -0.8193359375, 0.2119140625, 0, 
72, 1007355532, 0.015966368839144707, -0.6753866672515869, -0.08208328485488892, -0.7327193021774292, 9.713624954223633, 0.8087505102157593, 0.7276372313499451, 0.8608559966087341, -0.7453998327255249, 0.38868317008018494, -0.52001953125, -0.817626953125, 0.213134765625, 0, 
73, 1007363865, 0.01597236841917038, -0.6753885746002197, -0.08204346895217896, -0.7327218651771545, 9.73691463470459, 0.8007893562316895, 0.736370861530304, 0.3304876387119293, -0.715507984161377, 0.414527952671051, -0.525390625, -0.819580078125, 0.21484375, 0, 
74, 1007372198, 0.015951531007885933, -0.6753855347633362, -0.08196151256561279, -0.732734203338623, 9.73454761505127, 0.8468465209007263, 0.7242611050605774, -0.3329594135284424, -0.6101309657096863, 0.38627544045448303, -0.525634765625, -0.821533203125, 0.214111328125, 0, 
75, 1007380531, 0.015927888453006744, -0.6753901243209839, -0.08190200477838516, -0.7327371835708618, 9.72940444946289, 0.9042552709579468, 0.7291679382324219, -0.14372146129608154, -0.76642906665802, 0.3005445897579193, -0.52294921875, -0.81787109375, 0.216552734375, 0, 
76, 1007388864, 0.015912463888525963, -0.675403892993927, -0.08184967935085297, -0.7327306270599365, 9.735692024230957, 0.8474688529968262, 0.7421718239784241, 0.03089076466858387, -0.9544504284858704, 0.1883670836687088, -0.525146484375, -0.819580078125, 0.213134765625, 0, 
77, 1007397197, 0.015864647924900055, -0.6754180192947388, -0.08177943527698517, -0.7327264547348022, 9.749253273010254, 0.849314272403717, 0.7791234254837036, -0.468932569026947, -0.9555774331092834, 0.17133362591266632, -0.52392578125, -0.820556640625, 0.215576171875, 0, 
78, 1007405530, 0.01580018550157547, -0.6754181385040283, -0.08168475329875946, -0.7327383756637573, 9.740055084228516, 0.9012444019317627, 0.736499547958374, -0.8685531616210938, -0.6910209059715271, 0.06871019303798676, -0.524169921875, -0.818603515625, 0.213134765625, 0, 
79, 1007413863, 0.01576399989426136, -0.6754252314567566, -0.08161376416683197, -0.7327405214309692, 9.697938919067383, 0.8898351192474365, 0.7385310530662537, -0.3752997815608978, -0.8124834299087524, 0.28415149450302124, -0.5234375, -0.819580078125, 0.21240234375, 0, 
80, 1007422196, 0.01573968678712845, -0.6754429340362549, -0.0815514549612999, -0.7327316403388977, 9.693604469299316, 0.858820378780365, 0.7542529702186584, -0.14812709391117096, -1.0224689245224, 0.19649960100650787, -0.5234375, -0.818359375, 0.21435546875, 0, 
81, 1007430529, 0.01571122370660305, -0.6754424571990967, -0.0815158560872078, -0.7327366471290588, 9.70142936706543, 0.8561380505561829, 0.7513131499290466, 0.05188162624835968, -0.7078236937522888, 0.025985637679696083, -0.525634765625, -0.8212890625, 0.213623046875, 0, 
82, 1007438862, 0.01572270318865776, -0.675445020198822, -0.08150127530097961, -0.7327356338500977, 9.685965538024902, 0.8574610352516174, 0.7446538805961609, 0.6609368920326233, -0.7684270143508911, 0.09483670443296432, -0.524169921875, -0.818359375, 0.213623046875, 0, 
83, 1007447195, 0.015757951885461807, -0.6754471659660339, -0.08152930438518524, -0.7327297925949097, 9.735177040100098, 0.8616672158241272, 0.671723484992981, 1.296912670135498, -0.7780835628509521, 0.08110746741294861, -0.523681640625, -0.82275390625, 0.212646484375, 0, 
84, 1007455528, 0.015821363776922226, -0.6754459142684937, -0.08157132565975189, -0.7327249050140381, 9.769984245300293, 0.8851929306983948, 0.6575468182563782, 1.7177802324295044, -0.7201185822486877, 0.09081526100635529, -0.523681640625, -0.822509765625, 0.2119140625, 0, 
85, 1007463861, 0.01588122360408306, -0.6754418611526489, -0.08161942660808563, -0.7327219843864441, 9.706195831298828, 0.93031245470047, 0.6462991833686829, 1.724234938621521, -0.6645357012748718, 0.13407771289348602, -0.521728515625, -0.821044921875, 0.2119140625, 0, 
86, 1007472194, 0.015934178605675697, -0.6754359602928162, -0.08163914084434509, -0.732724130153656, 9.70384693145752, 0.961292028427124, 0.6867802143096924, 1.3874847888946533, -0.6134609580039978, 0.1856391727924347, -0.5234375, -0.819580078125, 0.21533203125, 0, 
87, 1007480527, 0.01595686934888363, -0.675433337688446, -0.08162941038608551, -0.7327271699905396, 9.669506072998047, 0.9716493487358093, 0.7069655656814575, 0.7898533344268799, -0.6527275443077087, 0.29839301109313965, -0.52294921875, -0.819091796875, 0.21533203125, 0, 
88, 1007488860, 0.01595276966691017, -0.6754326820373535, -0.0815993919968605, -0.7327311635017395, 9.705728530883789, 0.9581948518753052, 0.6841551065444946, 0.35220855474472046, -0.70426344871521, 0.07788008451461792, -0.524658203125, -0.817626953125, 0.218505859375, 0, 
89, 1007497193, 0.01593184471130371, -0.6754372119903564, -0.08156993985176086, -0.7327307462692261, 9.728424072265625, 0.9226237535476685, 0.7033175826072693, 0.1890970915555954, -0.8001886606216431, 0.050780218094587326, -0.524658203125, -0.8203125, 0.211181640625, 0, 
90, 1007505526, 0.01592268981039524, -0.6754530072212219, -0.08152668178081512, -0.7327213287353516, 9.71077823638916, 0.8576544523239136, 0.7765626907348633, 0.1783134937286377, -0.9976232051849365, 0.17208923399448395, -0.521484375, -0.818603515625, 0.213134765625, 0, 
91, 1007513859, 0.01591859944164753, -0.6754552125930786, -0.08150937408208847, -0.7327212691307068, 9.74565601348877, 0.7862119078636169, 0.7586376667022705, 0.46747255325317383, -0.7579252123832703, 0.10508239269256592, -0.524169921875, -0.820068359375, 0.214111328125, 0, 
92, 1007522192, 0.01593046449124813, -0.6754480004310608, -0.0814974457025528, -0.7327288389205933, 9.718782424926758, 0.8241141438484192, 0.7862619161605835, 0.6828371286392212, -0.5910229086875916, 0.0638434886932373, -0.52294921875, -0.82080078125, 0.21630859375, 0, 
93, 1007530525, 0.01595343090593815, -0.6754406094551086, -0.08151594549417496, -0.7327330708503723, 9.706343650817871, 0.8453158140182495, 0.7856611013412476, 1.077296257019043, -0.5995011925697327, 0.032542888075113297, -0.524169921875, -0.817626953125, 0.215576171875, 0, 
94, 1007538858, 0.016002822667360306, -0.6754266619682312, -0.08153519779443741, -0.7327427864074707, 9.709562301635742, 0.9031254649162292, 0.7493390440940857, 1.3417121171951294, -0.4678184390068054, 0.14468201994895935, -0.525634765625, -0.8193359375, 0.213134765625, 0, 
95, 1007547191, 0.016046103090047836, -0.6754042506217957, -0.08157403767108917, -0.7327581644058228, 9.71484088897705, 0.9150989651679993, 0.6810007095336914, 1.4614328145980835, -0.3268120288848877, 0.030109528452157974, -0.524169921875, -0.81689453125, 0.212158203125, 0, 
96, 1007555524, 0.016105005517601967, -0.6753833293914795, -0.08161590993404388, -0.7327714562416077, 9.729140281677246, 0.932182788848877, 0.65447598695755, 1.6555119752883911, -0.3574722409248352, 0.021836135536432266, -0.52392578125, -0.820556640625, 0.216064453125, 0, 
97, 1007563857, 0.016158292070031166, -0.6753666996955872, -0.08165556937456131, -0.732781171798706, 9.721443176269531, 0.9077955484390259, 0.6496283411979675, 1.5670148134231567, -0.42640015482902527, 0.130081906914711, -0.5263671875, -0.81787109375, 0.2158203125, 0, 
98, 1007572190, 0.016218004748225212, -0.6753556728363037, -0.08168715983629227, -0.7327865958213806, 9.715978622436523, 0.9244687557220459, 0.6871163845062256, 1.571292519569397, -0.5278069376945496, 0.1392773985862732, -0.5224609375, -0.8193359375, 0.21533203125, 0, 
99, 1007580523, 0.01628129370510578, -0.6753512620925903, -0.08173701167106628, -0.7327837347984314, 9.74305248260498, 0.8868978023529053, 0.7479751110076904, 1.774618148803711, -0.6561598181724548, 0.15323716402053833, -0.525390625, -0.8173828125, 0.216552734375, 0, 
100, 1007588856, 0.016330918297171593, -0.6753506064414978, -0.08174816519021988, -0.7327818870544434, 9.748273849487305, 0.9300909042358398, 0.8026992082595825, 1.2732963562011719, -0.7059026956558228, 0.23971080780029297, -0.52197265625, -0.818603515625, 0.2158203125, 0, 
101, 1007597189, 0.016372187063097954, -0.6753447651863098, -0.08175253868103027, -0.7327858805656433, 9.747207641601562, 0.9438610672950745, 0.7603971362113953, 1.1039094924926758, -0.593763530254364, 0.351107120513916, -0.52490234375, -0.82177734375, 0.213134765625, 0, 
102, 1007605522, 0.016428768634796143, -0.6753309965133667, -0.0817725732922554, -0.7327951192855835, 9.718832015991211, 0.9284104108810425, 0.7056995034217834, 1.417427659034729, -0.4652825891971588, 0.21115094423294067, -0.519775390625, -0.820068359375, 0.215087890625, 0, 
103, 1007613855, 0.016499437391757965, -0.6753215193748474, -0.08182106167078018, -0.732796847820282, 9.704578399658203, 0.879544734954834, 0.6905258297920227, 1.8252449035644531, -0.5542536377906799, 0.23355060815811157, -0.524658203125, -0.820068359375, 0.2158203125, 0, 
104, 1007622188, 0.016577180474996567, -0.6753032207489014, -0.0818687304854393, -0.7328066229820251, 9.732708930969238, 0.8055147528648376, 0.6529037356376648, 1.8921362161636353, -0.39768660068511963, 0.16340601444244385, -0.523681640625, -0.8193359375, 0.21337890625, 0, 
105, 1007630521, 0.016665836796164513, -0.6752843856811523, -0.08194096386432648, -0.7328139543533325, 9.726682662963867, 0.8081340193748474, 0.6702815890312195, 2.2275803089141846, -0.39330658316612244, 0.1827191412448883, -0.519775390625, -0.81689453125, 0.216552734375, 0, 
106, 1007638854, 0.016762349754571915, -0.6752680540084839, -0.08200439065694809, -0.732819676399231, 9.719212532043457, 0.8295639753341675, 0.7031661868095398, 2.2288355827331543, -0.4373374581336975, 0.2097165733575821, -0.52099609375, -0.81689453125, 0.21435546875, 0, 
107, 1007647187, 0.016830017790198326, -0.6752558350563049, -0.08205065131187439, -0.7328242063522339, 9.683719635009766, 0.8591867089271545, 0.7001160383224487, 1.7718262672424316, -0.5040112733840942, 0.22003908455371857, -0.52197265625, -0.819091796875, 0.213134765625, 0, 
108, 1007655520, 0.01687813550233841, -0.6752532720565796, -0.08209807425737381, -0.7328201532363892, 9.71480655670166, 0.8599210381507874, 0.7576085925102234, 1.6275924444198608, -0.7165069580078125, -0.11190858483314514, -0.525146484375, -0.818115234375, 0.21728515625, 0, 
109, 1007663853, 0.016896693035960197, -0.6752346158027649, -0.08214934915304184, -0.7328311204910278, 9.748159408569336, 0.8913944363594055, 0.7394894957542419, 1.3593344688415527, -0.4350065290927887, -0.33032113313674927, -0.52294921875, -0.819091796875, 0.217529296875, 0, 
110, 1007672186, 0.016922272741794586, -0.6752172112464905, -0.08219174295663834, -0.7328417897224426, 9.744704246520996, 0.9195269346237183, 0.7745600938796997, 1.3541604280471802, -0.4545758366584778, -0.3114178776741028, -0.523193359375, -0.8203125, 0.212158203125, 0, 
111, 1007680519, 0.01696816459298134, -0.6752018928527832, -0.08226440846920013, -0.7328466773033142, 9.75562858581543, 0.8937522768974304, 0.7382412552833557, 1.836502194404602, -0.5008606910705566, -0.24784331023693085, -0.5234375, -0.821533203125, 0.214111328125, 0, 
112, 1007688852, 0.017023280262947083, -0.6751835942268372, -0.08231396228075027, -0.7328567504882812, 9.708551406860352, 0.8831868171691895, 0.6536732316017151, 1.7028214931488037, -0.4184853434562683, -0.08222168684005737, -0.523681640625, -0.818603515625, 0.2138671875, 0, 
113, 1007697185, 0.0170577559620142, -0.6751764416694641, -0.08235517144203186, -0.7328579425811768, 9.68894100189209, 0.8835763931274414, 0.6333770751953125, 1.4155834913253784, -0.623655378818512, -0.06078258156776428, -0.522705078125, -0.818359375, 0.215576171875, 0, 
114, 1007705518, 0.01708206720650196, -0.675165057182312, -0.08238653838634491, -0.732864260673523, 9.699877738952637, 0.9241401553153992, 0.6630685329437256, 1.2333893775939941, -0.5533698797225952, -0.21459604799747467, -0.524658203125, -0.816650390625, 0.21533203125, 0, 
115, 1007713851, 0.017106685787439346, -0.6751579642295837, -0.0824241042137146, -0.7328659892082214, 9.713289260864258, 0.9624512195587158, 0.7576936483383179, 1.2872562408447266, -0.6289830803871155, -0.12507431209087372, -0.51904296875, -0.81396484375, 0.214599609375, 0, 
116, 1007722184, 0.017134368419647217, -0.6751623749732971, -0.08245678246021271, -0.7328575849533081, 9.710735321044922, 0.9679298400878906, 0.7925564646720886, 1.2920204401016235, -0.8463454842567444, -0.17051397264003754, -0.525390625, -0.81591796875, 0.2177734375, 0, 
117, 1007730517, 0.01714850403368473, -0.6751709580421448, -0.08250204473733902, -0.7328441739082336, 9.734347343444824, 0.928489089012146, 0.7219007015228271, 1.2806476354599, -0.9399912357330322, -0.2826274633407593, -0.52197265625, -0.818603515625, 0.2158203125, 0, 
118, 1007738850, 0.01717744767665863, -0.6751652956008911, -0.0825488492846489, -0.7328436374664307, 9.732565879821777, 0.8825611472129822, 0.7492533326148987, 1.4397631883621216, -0.6751399040222168, -0.3008391857147217, -0.5244140625, -0.82080078125, 0.21533203125, 0, 
119, 1007747183, 0.01718156225979328, -0.6751673221588135, -0.08256867527961731, -0.7328394651412964, 9.765912055969238, 0.8206671476364136, 0.7725857496261597, 0.9228169322013855, -0.7928630709648132, -0.15727141499519348, -0.52294921875, -0.821533203125, 0.216552734375, 0, 
120, 1007755516, 0.017178364098072052, -0.6751449108123779, -0.0825776606798172, -0.7328590750694275, 9.74959659576416, 0.8414747714996338, 0.7181311249732971, 0.740110456943512, -0.3449212610721588, -0.29722756147384644, -0.525390625, -0.8212890625, 0.21484375, 0, 
121, 1007763849, 0.01715271919965744, -0.6751188039779663, -0.08257679641246796, -0.7328837513923645, 9.7051420211792, 0.8817238211631775, 0.6114464998245239, 0.4114542603492737, -0.27286842465400696, -0.3038104176521301, -0.52197265625, -0.8212890625, 0.21435546875, 0, 
122, 1007772182, 0.017163971439003944, -0.6751211881637573, -0.08259084820747375, -0.7328796982765198, 9.67844009399414, 0.87959223985672, 0.6785330176353455, 0.9469197988510132, -0.7997788190841675, -0.16518619656562805, -0.526611328125, -0.8203125, 0.21240234375, 0, 
123, 1007780515, 0.017144305631518364, -0.6751465797424316, -0.08261072635650635, -0.7328544855117798, 9.701972007751465, 0.9010505080223083, 0.7619564533233643, 0.7195935249328613, -1.252023696899414, -0.36536145210266113, -0.523193359375, -0.818115234375, 0.216064453125, 0, 
124, 1007788848, 0.017081109806895256, -0.6751611828804016, -0.08257739990949631, -0.7328464984893799, 9.74501895904541, 0.8967376351356506, 0.7378371953964233, -0.21825888752937317, -1.031664490699768, -0.460671991109848, -0.521240234375, -0.821533203125, 0.21337890625, 0, 
125, 1007797181, 0.016984572634100914, -0.6751810312271118, -0.08252279460430145, -0.7328366041183472, 9.759346008300781, 0.8937048316001892, 0.730591356754303, -0.7600512504577637, -1.1253870725631714, -0.45744460821151733, -0.520751953125, -0.819091796875, 0.215087890625, 0, 
126, 1007805514, 0.016904743388295174, -0.6751806139945984, -0.08245741575956345, -0.732846200466156, 9.754345893859863, 0.9220082759857178, 0.6951417326927185, -0.7142016291618347, -0.7271368503570557, -0.35291290283203125, -0.520751953125, -0.816650390625, 0.216796875, 0, 
127, 1007813847, 0.01686573028564453, -0.6751933693885803, -0.08243032544851303, -0.7328383922576904, 9.739131927490234, 0.9973495006561279, 0.7103989124298096, 0.050780218094587326, -0.9745447635650635, -0.14213338494300842, -0.523681640625, -0.81884765625, 0.218505859375, 0, 
128, 1007822180, 0.01686987653374672, -0.6751994490623474, -0.08242405951023102, -0.7328332662582397, 9.721492767333984, 0.9722573161125183, 0.7212068438529968, 0.6746405959129333, -0.8497779369354248, -0.0426989309489727, -0.524169921875, -0.822265625, 0.218017578125, 0, 
129, 1007830513, 0.016853254288434982, -0.6751976013183594, -0.08241382986307144, -0.7328364849090576, 9.69436264038086, 0.9018590450286865, 0.6855213046073914, 0.4198300838470459, -0.7021118402481079, -0.09241615980863571, -0.52294921875, -0.817138671875, 0.217529296875, 0, 
130, 1007838846, 0.016837220638990402, -0.6751970648765564, -0.08239541202783585, -0.7328395843505859, 9.675643920898438, 0.9245192408561707, 0.6645849347114563, 0.35954704880714417, -0.727047324180603, -0.1429402381181717, -0.52294921875, -0.822021484375, 0.21435546875, 0, 
131, 1007847179, 0.016833513975143433, -0.6752051711082458, -0.08241304010152817, -0.7328301668167114, 9.69471263885498, 0.8755580186843872, 0.7220795154571533, 0.8315532803535461, -0.9138646125793457, -0.20714232325553894, -0.521484375, -0.81884765625, 0.21484375, 0, 
132, 1007855512, 0.01682988367974758, -0.6752170324325562, -0.08240409195423126, -0.7328203916549683, 9.733823776245117, 0.8619958758354187, 0.7629793286323547, 0.5817376971244812, -0.9574856758117676, -0.08783121407032013, -0.5234375, -0.8203125, 0.216064453125, 0, 
133, 1007863845, 0.016796983778476715, -0.6752182245254517, -0.08237100392580032, -0.7328236699104309, 9.754225730895996, 0.8211392760276794, 0.796268880367279, 0.037332747131586075, -0.7470647096633911, -0.04108523204922676, -0.527099609375, -0.822998046875, 0.216552734375, 0, 
134, 1007872178, 0.016768570989370346, -0.6752216815948486, -0.08232071250677109, -0.7328267097473145, 9.735928535461426, 0.802391529083252, 0.7982215881347656, -0.07832833379507065, -0.7729864120483398, 0.035386066883802414, -0.521484375, -0.81591796875, 0.217041015625, 0, 
135, 1007880511, 0.01672789454460144, -0.6752293705940247, -0.08227960020303726, -0.7328251004219055, 9.72305965423584, 0.7876424789428711, 0.803385853767395, -0.11088403314352036, -0.864813506603241, -0.036372214555740356, -0.523681640625, -0.82080078125, 0.2138671875, 0, 
136, 1007888844, 0.016667259857058525, -0.6752514839172363, -0.08222804963588715, -0.7328121066093445, 9.734668731689453, 0.7840874791145325, 0.7998666763305664, -0.37609386444091797, -1.1451869010925293, -0.25445181131362915, -0.52392578125, -0.818603515625, 0.216552734375, 0, 
137, 1007897177, 0.016583284363150597, -0.6752689480781555, -0.08219026029109955, -0.7328022122383118, 9.745125770568848, 0.8159462809562683, 0.8267399072647095, -0.47327423095703125, -1.0887842178344727, -0.4904613196849823, -0.522216796875, -0.81787109375, 0.216796875, 0, 
138, 1007905510, 0.016494737938046455, -0.6752851605415344, -0.08214230835437775, -0.7327945828437805, 9.751127243041992, 0.8151808977127075, 0.8004889488220215, -0.6022035479545593, -1.0696122646331787, -0.5765123963356018, -0.5224609375, -0.823486328125, 0.214111328125, 0, 
139, 1007913843, 0.016409981995821, -0.6753000617027283, -0.08210735023021698, -0.7327865362167358, 9.714240074157715, 0.8564814329147339, 0.7390031218528748, -0.4537305533885956, -1.048262596130371, -0.5278069376945496, -0.5263671875, -0.8193359375, 0.21630859375, 0, 
140, 1007922176, 0.016370486468076706, -0.675329327583313, -0.08211171627044678, -0.7327600717544556, 9.681265830993652, 0.8782331943511963, 0.6667308211326599, 0.3990313410758972, -1.3335282802581787, -0.5499632358551025, -0.521240234375, -0.8203125, 0.21484375, 0, 
141, 1007930509, 0.016307491809129715, -0.6753675937652588, -0.08211707323789597, -0.7327255606651306, 9.701737403869629, 0.9145625233650208, 0.5852313041687012, 0.1792740374803543, -1.512968897819519, -0.6512547731399536, -0.525146484375, -0.8232421875, 0.217041015625, 0, 
142, 1007938842, 0.01621488854289055, -0.6753957271575928, -0.08207318931818008, -0.7327067255973816, 9.742329597473145, 0.9570289254188538, 0.6330623626708984, -0.5906001925468445, -1.2999351024627686, -0.6385500431060791, -0.523681640625, -0.8173828125, 0.217529296875, 0, 
143, 1007947175, 0.01616549864411354, -0.6754287481307983, -0.0820775032043457, -0.7326768636703491, 9.729819297790527, 0.9545111060142517, 0.7344896793365479, 0.2910289168357849, -1.402571439743042, -0.5115546584129333, -0.525390625, -0.822509765625, 0.215576171875, 0, 
144, 1007955508, 0.016165681183338165, -0.6754647493362427, -0.082107774913311, -0.7326402068138123, 9.740387916564941, 0.9279413223266602, 0.7819065451622009, 1.036736011505127, -1.4553111791610718, -0.37971824407577515, -0.5224609375, -0.8203125, 0.212890625, 0, 
145, 1007963841, 0.01613476686179638, -0.6754961013793945, -0.08212068676948547, -0.7326106429100037, 9.740984916687012, 0.9480306506156921, 0.7664986252784729, 0.5496814846992493, -1.3636122941970825, -0.4068436920642853, -0.52490234375, -0.82080078125, 0.2158203125, 0, 
146, 1007972174, 0.016100164502859116, -0.6755200028419495, -0.0821106806397438, -0.7325904369354248, 9.71298885345459, 0.9958116412162781, 0.725605845451355, 0.29054224491119385, -1.2106441259384155, -0.37195709347724915, -0.526123046875, -0.820068359375, 0.21533203125, 0, 
147, 1007980507, 0.016039857640862465, -0.6755505800247192, -0.08209187537431717, -0.732565701007843, 9.72423267364502, 0.995804488658905, 0.6548070311546326, -0.04859020188450813, -1.3384205102920532, -0.4106217622756958, -0.521240234375, -0.82080078125, 0.21533203125, 0, 
148, 1007988840, 0.016018176451325417, -0.6755838394165039, -0.08210043609142303, -0.7325342297554016, 9.743107795715332, 0.9386887550354004, 0.7397182583808899, 0.6094524264335632, -1.3987934589385986, -0.40150314569473267, -0.52392578125, -0.8193359375, 0.218017578125, 0, 
149, 1007997173, 0.01603296399116516, -0.6756113171577454, -0.08215780556201935, -0.7325022220611572, 9.70579719543457, 0.8705136179924011, 0.7830418944358826, 1.424689531326294, -1.305314302444458, -0.36329951882362366, -0.527587890625, -0.818115234375, 0.2197265625, 0, 
150, 1008005506, 0.016027217730879784, -0.6756418943405151, -0.08217177540063858, -0.7324727177619934, 9.72565746307373, 0.8195945620536804, 0.7135248184204102, 0.8109338283538818, -1.3390865325927734, -0.294256329536438, -0.5234375, -0.8232421875, 0.21630859375, 0, 
151, 1008013839, 0.015995457768440247, -0.6756691336631775, -0.08217857778072357, -0.7324475646018982, 9.722015380859375, 0.8485345840454102, 0.6408088803291321, 0.4773085117340088, -1.2798409461975098, -0.36372217535972595, -0.522705078125, -0.820556640625, 0.215087890625, 0, 
152, 1008022172, 0.015962418168783188, -0.675689160823822, -0.08217066526412964, -0.732430636882782, 9.70692253112793, 0.8845563530921936, 0.7118008732795715, 0.32426339387893677, -1.1400638818740845, -0.3802945613861084, -0.52587890625, -0.8203125, 0.21435546875, 0, 
153, 1008030505, 0.015933850780129433, -0.6757095456123352, -0.08218163251876831, -0.7324112057685852, 9.696414947509766, 0.9132964611053467, 0.7137464284896851, 0.5424069762229919, -1.1565850973129272, -0.3798847198486328, -0.52490234375, -0.822021484375, 0.218994140625, 0, 
154, 1008038838, 0.015912992879748344, -0.6757236123085022, -0.08216170221567154, -0.7324010133743286, 9.70803165435791, 0.9743102192878723, 0.7275514006614685, 0.3083057105541229, -1.0028228759765625, -0.153634175658226, -0.526611328125, -0.821044921875, 0.215576171875, 0, 
155, 1008047171, 0.01587826944887638, -0.675743579864502, -0.08214910328388214, -0.7323847413063049, 9.681008338928223, 0.9833299517631531, 0.6783112287521362, 0.2445775270462036, -1.1235684156417847, -0.22496981918811798, -0.524658203125, -0.82177734375, 0.2197265625, 0, 
156, 1008055504, 0.015848245471715927, -0.6757668852806091, -0.08212555944919586, -0.7323663830757141, 9.709856033325195, 0.9933939576148987, 0.6572389602661133, 0.19639715552330017, -1.179458737373352, -0.19940683245658875, -0.525146484375, -0.81982421875, 0.216796875, 0, 
157, 1008063837, 0.0158245712518692, -0.6757771372795105, -0.08211490511894226, -0.7323586940765381, 9.694757461547852, 0.9624009728431702, 0.6546926498413086, 0.35888102650642395, -0.9339333772659302, -0.1433756798505783, -0.5244140625, -0.8212890625, 0.22119140625, 0, 
158, 1008072170, 0.01581277698278427, -0.6757906675338745, -0.08209563791751862, -0.7323487401008606, 9.70404052734375, 0.9189257621765137, 0.7095620036125183, 0.4012598395347595, -0.9837660193443298, -0.06885106861591339, -0.522705078125, -0.820068359375, 0.215087890625, 0, 
159, 1008080503, 0.015810653567314148, -0.675801694393158, -0.08208990842103958, -0.7323392033576965, 9.72620677947998, 0.8974600434303284, 0.7465064525604248, 0.610425591468811, -0.9352524876594543, 0.02952040545642376, -0.523681640625, -0.820556640625, 0.21435546875, 0, 
160, 1008088836, 0.015817126259207726, -0.6758074760437012, -0.08210231363773346, -0.7323322892189026, 9.710434913635254, 0.8891549706459045, 0.7357483506202698, 0.888096809387207, -0.8636736273765564, -0.18758586049079895, -0.524169921875, -0.821044921875, 0.21728515625, 0, 
161, 1008097169, 0.015830518677830696, -0.6758190393447876, -0.08213607221841812, -0.7323176264762878, 9.726564407348633, 0.8715810775756836, 0.7292251586914062, 1.1589927673339844, -0.9803975820541382, -0.1800040304660797, -0.525634765625, -0.82177734375, 0.21875, 0, 
162, 1008105502, 0.01585368439555168, -0.6758211255073547, -0.08215273916721344, -0.7323132157325745, 9.716958045959473, 0.8679187893867493, 0.742007315158844, 1.0837254524230957, -0.7836674451828003, -0.06270364671945572, -0.522705078125, -0.820068359375, 0.216796875, 0, 
163, 1008113835, 0.015859825536608696, -0.6758304834365845, -0.08218224346637726, -0.7323011755943298, 9.706558227539062, 0.844321608543396, 0.7557765245437622, 1.045816421508789, -0.9415536522865295, -0.21795149147510529, -0.52001953125, -0.818603515625, 0.218994140625, 0, 
164, 1008122168, 0.015857500955462456, -0.6758442521095276, -0.08219975978136063, -0.7322863936424255, 9.697724342346191, 0.8735981583595276, 0.6967083811759949, 0.8642883896827698, -1.0287445783615112, -0.312288761138916, -0.5205078125, -0.820068359375, 0.216552734375, 0, 
165, 1008130501, 0.015832411125302315, -0.6758716702461243, -0.08221997320652008, -0.7322593331336975, 9.71678638458252, 0.8629118204116821, 0.6343784928321838, 0.6760749220848083, -1.293723702430725, -0.4204576015472412, -0.52490234375, -0.820068359375, 0.217529296875, 0, 
166, 1008138834, 0.015790440142154694, -0.675905168056488, -0.08220720291137695, -0.7322309613227844, 9.75762939453125, 0.860072135925293, 0.6660655736923218, 0.1996757686138153, -1.3931328058242798, -0.405012309551239, -0.52392578125, -0.821533203125, 0.218505859375, 0, 
167, 1008147167, 0.015741437673568726, -0.67593914270401, -0.08220332860946655, -0.7322011590003967, 9.783945083618164, 0.865708589553833, 0.754331648349762, 0.21296954154968262, -1.4086291790008545, -0.42901280522346497, -0.524169921875, -0.82080078125, 0.216552734375, 0, 
168, 1008155500, 0.015692830085754395, -0.6759727597236633, -0.08218924701213837, -0.7321726083755493, 9.727295875549316, 0.8766810894012451, 0.7412277460098267, 0.12718749046325684, -1.4018927812576294, -0.45980119705200195, -0.5205078125, -0.8173828125, 0.2158203125, 0, 
169, 1008163833, 0.015630213543772697, -0.6760058403015137, -0.08218083530664444, -0.7321444153785706, 9.700369834899902, 0.8767954707145691, 0.693696916103363, 0.03781941533088684, -1.3987164497375488, -0.5259882807731628, -0.521484375, -0.822021484375, 0.21630859375, 0, 
170, 1008172166, 0.015564365312457085, -0.6760292053222656, -0.08216416835784912, -0.7321261167526245, 9.73532772064209, 0.8787983059883118, 0.6894124150276184, -0.06800579279661179, -1.2207231521606445, -0.6219648122787476, -0.52099609375, -0.8203125, 0.216064453125, 0, 
171, 1008180499, 0.015515925362706184, -0.6760508418083191, -0.082179494202137, -0.7321054339408875, 9.726150512695312, 0.9286895394325256, 0.6493995785713196, 0.40277099609375, -1.2037920951843262, -0.6199669241905212, -0.526123046875, -0.82275390625, 0.2138671875, 0, 
172, 1008188832, 0.015514621511101723, -0.6760833263397217, -0.08221215009689331, -0.7320716977119446, 9.740757942199707, 0.919702410697937, 0.6430255770683289, 1.0421792268753052, -1.3934400081634521, -0.416282594203949, -0.5205078125, -0.8203125, 0.216064453125, 0, 
173, 1008197165, 0.015496247448027134, -0.6761171817779541, -0.08225564658641815, -0.7320358753204346, 9.719554901123047, 0.9701038599014282, 0.7001433372497559, 0.9803463220596313, -1.4397504329681396, -0.5601577162742615, -0.521484375, -0.821533203125, 0.21728515625, 0, 
174, 1008205498, 0.015438984148204327, -0.6761610507965088, -0.08223523199558258, -0.7319989800453186, 9.717473030090332, 1.0029001235961914, 0.7335097193717957, -0.011577634140849113, -1.589926838874817, -0.47327423095703125, -0.521240234375, -0.820556640625, 0.217041015625, 0, 
175, 1008213831, 0.015360970050096512, -0.6762092113494873, -0.08219988644123077, -0.7319601774215698, 9.702780723571777, 1.0117555856704712, 0.7004976272583008, -0.3667958080768585, -1.6622613668441772, -0.413131982088089, -0.521728515625, -0.819091796875, 0.219970703125, 0, 
176, 1008222164, 0.015301520004868507, -0.6762651801109314, -0.08218337595462799, -0.7319115400314331, 9.706439971923828, 0.9557106494903564, 0.7247427701950073, 0.01648275926709175, -1.8244251012802124, -0.5135909914970398, -0.52294921875, -0.820556640625, 0.218994140625, 0, 
177, 1008230497, 0.01526262890547514, -0.6763054728507996, -0.08218449354171753, -0.731874942779541, 9.719990730285645, 0.8926962614059448, 0.7452117800712585, 0.36278724670410156, -1.5253276824951172, -0.36612990498542786, -0.522705078125, -0.819580078125, 0.218994140625, 0, 
178, 1008238830, 0.015247131697833538, -0.6763501167297363, -0.08220820128917694, -0.7318313121795654, 9.707332611083984, 0.8737126588821411, 0.7050824761390686, 0.828787088394165, -1.622687578201294, -0.46069765090942383, -0.520263671875, -0.819091796875, 0.217529296875, 0, 
179, 1008247163, 0.015258369967341423, -0.6764020919799805, -0.08226440846920013, -0.7317768335342407, 9.728081703186035, 0.8748713135719299, 0.6964255571365356, 1.4006503820419312, -1.7642828226089478, -0.3569599688053131, -0.520263671875, -0.81884765625, 0.2197265625, 0, 
180, 1008255496, 0.015275644138455391, -0.6764253973960876, -0.08231205493211746, -0.7317494750022888, 9.745302200317383, 0.881731390953064, 0.6491419672966003, 1.3626644611358643, -1.2229515314102173, -0.37919309735298157, -0.523193359375, -0.821533203125, 0.217041015625, 0, 
181, 1008263829, 0.015274216420948505, -0.6764376759529114, -0.08234506100416183, -0.7317345142364502, 9.736693382263184, 0.9213073253631592, 0.6659366488456726, 1.0120055675506592, -1.0081250667572021, -0.32207340002059937, -0.523193359375, -0.821044921875, 0.216796875, 0, 
182, 1008272162, 0.015289218164980412, -0.6764513850212097, -0.08237132430076599, -0.7317185997962952, 9.765597343444824, 0.9521936178207397, 0.6945481896400452, 1.1148467063903809, -1.0177559852600098, -0.21613290905952454, -0.52490234375, -0.8173828125, 0.219482421875, 0, 
183, 1008280495, 0.015300613828003407, -0.6764664649963379, -0.08240404725074768, -0.7317007184028625, 9.743852615356445, 0.9659203290939331, 0.7277875542640686, 1.1320850849151611, -1.047545313835144, -0.18780355155467987, -0.525146484375, -0.822509765625, 0.216796875, 0, 
184, 1008288828, 0.015301773324608803, -0.6764806509017944, -0.08241422474384308, -0.731686532497406, 9.729490280151367, 0.997535765171051, 0.6521462798118591, 0.8210770487785339, -1.018524408340454, -0.2047857940196991, -0.522216796875, -0.82080078125, 0.21826171875, 0, 
185, 1008297161, 0.01528934109956026, -0.6764950156211853, -0.0824345052242279, -0.7316712141036987, 9.701193809509277, 0.9886733889579773, 0.6374257206916809, 0.7836290597915649, -1.0417052507400513, -0.3125961124897003, -0.524658203125, -0.821044921875, 0.218994140625, 0, 
186, 1008305494, 0.015288334339857101, -0.6765263676643372, -0.08244471251964569, -0.7316409945487976, 9.674492835998535, 0.9456490874290466, 0.6774029731750488, 0.8146478533744812, -1.3437227010726929, -0.20445279777050018, -0.5224609375, -0.818603515625, 0.220458984375, 0, 
187, 1008313827, 0.01526415254920721, -0.6765621304512024, -0.08243419975042343, -0.731609582901001, 9.727208137512207, 0.9279454946517944, 0.6360450983047485, 0.3778740167617798, -1.4121896028518677, -0.1150079146027565, -0.52294921875, -0.8212890625, 0.21875, 0, 
188, 1008322160, 0.015229199081659317, -0.6765992641448975, -0.08241130411624908, -0.7315785884857178, 9.737649917602539, 0.9055999517440796, 0.6584048271179199, 0.16647972166538239, -1.442107081413269, -0.232321098446846, -0.52294921875, -0.823486328125, 0.217041015625, 0, 
189, 1008330493, 0.015193377621471882, -0.6766371130943298, -0.08239538222551346, -0.7315461039543152, 9.750411987304688, 0.9122092127799988, 0.6782039403915405, 0.21468570828437805, -1.455503225326538, -0.17912034690380096, -0.525390625, -0.81982421875, 0.21728515625, 0, 
190, 1008338826, 0.015176895074546337, -0.6766726970672607, -0.08238054066896439, -0.7315152287483215, 9.723703384399414, 0.8854361176490784, 0.6550645232200623, 0.41757604479789734, -1.4045565128326416, -0.12202621251344681, -0.521484375, -0.81982421875, 0.218017578125, 0, 
191, 1008347159, 0.015140319243073463, -0.6767140626907349, -0.08236421644687653, -0.7314795851707458, 9.72442626953125, 0.9152777791023254, 0.6661227941513062, 0.20769302546977997, -1.522766351699829, -0.1789410412311554, -0.523681640625, -0.81982421875, 0.21923828125, 0, 
192, 1008355492, 0.015111049637198448, -0.6767504811286926, -0.08235305547714233, -0.7314477562904358, 9.7349271774292, 0.8905291557312012, 0.6629613041877747, 0.3362252414226532, -1.4358570575714111, -0.2839337885379791, -0.523681640625, -0.818115234375, 0.223388671875, 0, 
193, 1008363825, 0.01510888896882534, -0.6767841577529907, -0.08236940950155258, -0.731414794921875, 9.720534324645996, 0.875214695930481, 0.6736404299736023, 0.8550671935081482, -1.3873693943023682, -0.1460779756307602, -0.5224609375, -0.819091796875, 0.217529296875, 0, 
194, 1008372158, 0.015118395909667015, -0.6768268346786499, -0.08239049464464188, -0.7313726544380188, 9.724080085754395, 0.8895635008811951, 0.7190845012664795, 1.0342388153076172, -1.5588055849075317, -0.1836540699005127, -0.524658203125, -0.8193359375, 0.220703125, 0, 
195, 1008380491, 0.015110974200069904, -0.6768622398376465, -0.08241820335388184, -0.7313370108604431, 9.701977729797363, 0.9274502992630005, 0.7261358499526978, 0.9222789406776428, -1.4369840621948242, -0.30301639437675476, -0.522705078125, -0.81982421875, 0.222412109375, 0, 
196, 1008388824, 0.015123758465051651, -0.6768929362297058, -0.08246365189552307, -0.7313031554222107, 9.678753852844238, 0.9133713245391846, 0.7351053357124329, 1.304443359375, -1.3623442649841309, -0.39269185066223145, -0.525634765625, -0.819580078125, 0.220458984375, 0, 
197, 1008397157, 0.015152492560446262, -0.6769232749938965, -0.08253715932369232, -0.7312661409378052, 9.704923629760742, 0.9320049285888672, 0.6644890308380127, 1.7221603393554688, -1.3679282665252686, -0.3698439300060272, -0.523681640625, -0.81884765625, 0.218994140625, 0, 
198, 1008405490, 0.015176099725067616, -0.6769434213638306, -0.08258729428052902, -0.7312414646148682, 9.706686019897461, 0.921575665473938, 0.641004204750061, 1.4419916868209839, -1.1600687503814697, -0.3407205641269684, -0.5224609375, -0.818603515625, 0.220458984375, 0, 
199, 1008413823, 0.015202595852315426, -0.676960289478302, -0.08266135305166245, -0.7312167882919312, 9.74638557434082, 0.9406991600990295, 0.6176368594169617, 1.6959055662155151, -1.1201616525650024, -0.4172046482563019, -0.520751953125, -0.821533203125, 0.218505859375, 0, 
200, 1008422156, 0.015238883905112743, -0.6769758462905884, -0.08273283392190933, -0.7311936020851135, 9.755419731140137, 0.975557267665863, 0.5957224369049072, 1.7715188264846802, -1.0887842178344727, -0.41717901825904846, -0.5263671875, -0.820068359375, 0.219970703125, 0, 
201, 1008430489, 0.015260925516486168, -0.6769983768463135, -0.08277994394302368, -0.7311669588088989, 9.728398323059082, 0.9713360071182251, 0.6255573034286499, 1.3857173919677734, -1.1952626705169678, -0.20404298603534698, -0.5244140625, -0.819580078125, 0.22021484375, 0, 
202, 1008438822, 0.015272698365151882, -0.6770321726799011, -0.08279380202293396, -0.7311338782310486, 9.761980056762695, 0.9583397507667542, 0.6189127564430237, 0.9736354947090149, -1.3809914588928223, -0.10353273898363113, -0.52783203125, -0.8232421875, 0.217529296875, 0, 
203, 1008447155, 0.015250115655362606, -0.6770619750022888, -0.08278436958789825, -0.731107771396637, 9.702479362487793, 0.9615135788917542, 0.672145426273346, 0.39816048741340637, -1.3013056516647339, -0.11833778023719788, -0.525634765625, -0.8232421875, 0.22314453125, 0, 
204, 1008455488, 0.015216686762869358, -0.6771013140678406, -0.082758828997612, -0.731074869632721, 9.698747634887695, 0.9299768805503845, 0.669863760471344, 0.15418487787246704, -1.4784791469573975, -0.18391019105911255, -0.523193359375, -0.82275390625, 0.220703125, 0, 
205, 1008463821, 0.015204533003270626, -0.677139401435852, -0.08276553452014923, -0.7310391664505005, 9.670015335083008, 0.8535634279251099, 0.6774315237998962, 0.6670074462890625, -1.4656976461410522, -0.1518411785364151, -0.52392578125, -0.820556640625, 0.21826171875, 0, 
206, 1008472154, 0.015186838805675507, -0.67717444896698, -0.08277648687362671, -0.7310057282447815, 9.714225769042969, 0.8270617723464966, 0.6831609010696411, 0.6686723828315735, -1.4281471967697144, -0.36976709961891174, -0.523681640625, -0.818359375, 0.22119140625, 0, 
207, 1008480487, 0.015199044719338417, -0.6772162914276123, -0.08280755579471588, -0.7309632897377014, 9.749401092529297, 0.8523573875427246, 0.6885380744934082, 1.146531581878662, -1.5439236164093018, -0.1280967891216278, -0.52197265625, -0.822265625, 0.2197265625, 0, 
208, 1008488820, 0.015234291553497314, -0.677251935005188, -0.08286441117525101, -0.730923056602478, 9.734347343444824, 0.8952787518501282, 0.6930059790611267, 1.6311784982681274, -1.4469738006591797, -0.26492801308631897, -0.524658203125, -0.821044921875, 0.219970703125, 0, 
209, 1008497153, 0.015278302133083344, -0.6772822141647339, -0.08294863253831863, -0.7308845520019531, 9.738653182983398, 0.9186750054359436, 0.6608178019523621, 1.974486231803894, -1.3655973672866821, -0.3173860013484955, -0.52490234375, -0.821044921875, 0.223388671875, 0, 
210, 1008505486, 0.0153276938945055, -0.6773003339767456, -0.08303344994783401, -0.7308570146560669, 9.742193222045898, 0.910471498966217, 0.6634410619735718, 2.032092571258545, -1.143701195716858, -0.40480735898017883, -0.524169921875, -0.822021484375, 0.2197265625, 0, 
211, 1008513819, 0.015367181971669197, -0.6773188710212708, -0.08312597870826721, -0.730828583240509, 9.72828197479248, 0.8826964497566223, 0.6007816791534424, 2.0073487758636475, -1.160709023475647, -0.4562663435935974, -0.52490234375, -0.820068359375, 0.22314453125, 0, 
212, 1008522152, 0.015385188162326813, -0.6773306727409363, -0.08316384255886078, -0.7308128476142883, 9.73607063293457, 0.9096765518188477, 0.5562978386878967, 1.2557506561279297, -0.9947545528411865, -0.29189983010292053, -0.5234375, -0.820068359375, 0.223388671875, 0, 
213, 1008530485, 0.01535876840353012, -0.6773362159729004, -0.0831705629825592, -0.7308075428009033, 9.749046325683594, 0.9746106266975403, 0.51710045337677, 0.5064062476158142, -0.8708071112632751, -0.3369808495044708, -0.5234375, -0.8212890625, 0.224365234375, 0, 
214, 1008538818, 0.01534099131822586, -0.677325963973999, -0.08316308259963989, -0.7308182120323181, 9.74280834197998, 1.0213901996612549, 0.6077198386192322, 0.4425243139266968, -0.56043940782547, -0.2620592415332794, -0.524658203125, -0.822509765625, 0.22216796875, 0, 
215, 1008547151, 0.015321031212806702, -0.6773216724395752, -0.0831499993801117, -0.7308241128921509, 9.718554496765137, 1.0314903259277344, 0.6267107725143433, 0.35626837611198425, -0.6565567851066589, -0.10236728936433792, -0.523681640625, -0.82177734375, 0.220458984375, 0, 
216, 1008555484, 0.015299602411687374, -0.6773272752761841, -0.08314117044210434, -0.7308202981948853, 9.713174819946289, 1.0091087818145752, 0.6127053499221802, 0.4079322814941406, -0.8569626212120056, -0.262789249420166, -0.52392578125, -0.818603515625, 0.222412109375, 0, 
217, 1008563817, 0.015260948799550533, -0.6773237586021423, -0.08312499523162842, -0.7308262586593628, 9.708674430847168, 1.028042197227478, 0.6000519394874573, 0.15218697488307953, -0.6861796975135803, -0.260343074798584, -0.52587890625, -0.822265625, 0.222900390625, 0, 
218, 1008572150, 0.015236138366162777, -0.677308976650238, -0.08309648931026459, -0.7308438420295715, 9.714670181274414, 1.0186079740524292, 0.6413955688476562, 0.15912844240665436, -0.449760377407074, -0.1409551352262497, -0.525390625, -0.818115234375, 0.221923828125, 0, 
219, 1008580483, 0.015228506177663803, -0.6773045659065247, -0.08308200538158417, -0.7308496832847595, 9.716693878173828, 0.9764202833175659, 0.6422680616378784, 0.4579952359199524, -0.6433782577514648, 0.03407973796129227, -0.523681640625, -0.821533203125, 0.2197265625, 0, 
220, 1008588816, 0.015240810811519623, -0.6772976517677307, -0.08308126777410507, -0.7308560013771057, 9.714311599731445, 0.9715706706047058, 0.6573891639709473, 0.7942847013473511, -0.5972471833229065, -0.01298641785979271, -0.51904296875, -0.820068359375, 0.2255859375, 0, 
221, 1008597149, 0.015251778066158295, -0.677299976348877, -0.08308592438697815, -0.7308529615402222, 9.735377311706543, 0.9163932800292969, 0.6182344555854797, 0.832180917263031, -0.7749715447425842, 0.05220181494951248, -0.52294921875, -0.819580078125, 0.223388671875, 0, 
222, 1008605482, 0.015273143537342548, -0.6773062944412231, -0.08308544754981995, -0.7308467030525208, 9.727437019348145, 0.9131534099578857, 0.6579614281654358, 0.8928993940353394, -0.8401980400085449, 0.09235212206840515, -0.522216796875, -0.819091796875, 0.2216796875, 0, 
223, 1008613815, 0.01527039147913456, -0.6773108839988708, -0.08309125900268555, -0.7308419346809387, 9.754167556762695, 0.9205995202064514, 0.7171010971069336, 0.7171088457107544, -0.8287997245788574, -0.09259545058012009, -0.523193359375, -0.82080078125, 0.22021484375, 0, 
224, 1008622148, 0.015300806611776352, -0.6773256063461304, -0.08310486376285553, -0.7308260798454285, 9.701751708984375, 0.9405562877655029, 0.7158780097961426, 1.1254512071609497, -1.0056660175323486, 0.06484244018793106, -0.525390625, -0.8203125, 0.21728515625, 0, 
225, 1008630481, 0.015300379134714603, -0.6773564219474792, -0.08312063664197922, -0.7307957410812378, 9.6863374710083, 0.9011580944061279, 0.6705575585365295, 0.8632380962371826, -1.3317865133285522, -0.1279687136411667, -0.524658203125, -0.8193359375, 0.2236328125, 0, 
226, 1008638814, 0.015296651981770992, -0.6773880124092102, -0.08311443030834198, -0.7307671904563904, 9.725663185119629, 0.9100419282913208, 0.6183561086654663, 0.6213629245758057, -1.327355146408081, -0.07218091189861298, -0.5244140625, -0.820068359375, 0.22021484375, 0, 
227, 1008647147, 0.015289641916751862, -0.6774089932441711, -0.08312723785638809, -0.7307464480400085, 9.714662551879883, 0.9134109020233154, 0.6660798788070679, 0.7644952535629272, -1.1488239765167236, -0.17899227142333984, -0.524658203125, -0.818359375, 0.220458984375, 0, 
228, 1008655480, 0.015304258093237877, -0.67742520570755, -0.08314429223537445, -0.7307291626930237, 9.709248542785645, 0.9321009516716003, 0.6569384336471558, 1.0154123306274414, -1.053462266921997, -0.1236911416053772, -0.523681640625, -0.8193359375, 0.221435546875, 0, 
229, 1008663813, 0.015338120982050896, -0.6774259805679321, -0.08318405598402023, -0.7307232022285461, 9.729876518249512, 0.967686653137207, 0.634399950504303, 1.4007527828216553, -0.7682989835739136, -0.04600316658616066, -0.52197265625, -0.819580078125, 0.22119140625, 0, 
230, 1008672146, 0.015366896986961365, -0.6774274110794067, -0.08321700990200043, -0.7307175993919373, 9.725513458251953, 0.9973495006561279, 0.5615053176879883, 1.3027527332305908, -0.780491292476654, -0.1487930864095688, -0.525146484375, -0.8203125, 0.218505859375, 0, 
231, 1008680479, 0.015384950675070286, -0.6774258017539978, -0.08322987705469131, -0.7307172417640686, 9.70908260345459, 1.005397081375122, 0.6272972822189331, 0.9779002070426941, -0.705249547958374, 0.04257085546851158, -0.5234375, -0.822509765625, 0.22119140625, 0, 
232, 1008688812, 0.015408776700496674, -0.6774280667304993, -0.0832301452755928, -0.7307145595550537, 9.732179641723633, 0.9798041582107544, 0.668612003326416, 0.9214078783988953, -0.7608963847160339, 0.10603012144565582, -0.521484375, -0.81787109375, 0.22265625, 0, 
233, 1008697145, 0.015413881279528141, -0.6774336695671082, -0.0832412913441658, -0.7307079434394836, 9.743881225585938, 0.9335032105445862, 0.6744916439056396, 0.8450391888618469, -0.8494064211845398, -0.06207609549164772, -0.523681640625, -0.8212890625, 0.22021484375, 0, 
234, 1008705478, 0.01543132122606039, -0.6774421334266663, -0.0832391157746315, -0.7307000756263733, 9.757637023925781, 0.9235246181488037, 0.6659582853317261, 0.8403902053833008, -0.8790037035942078, 0.0750368982553482, -0.523681640625, -0.821044921875, 0.2197265625, 0, 
235, 1008713811, 0.015433949418365955, -0.6774423122406006, -0.08323773741722107, -0.7306999564170837, 9.723010063171387, 0.9023314714431763, 0.6397717595100403, 0.6920582056045532, -0.7353334426879883, 0.021349463611841202, -0.52685546875, -0.8193359375, 0.221923828125, 0, 
236, 1008722144, 0.015425803139805794, -0.6774374842643738, -0.08321258425712585, -0.730707585811615, 9.726950645446777, 0.9302418231964111, 0.6202588081359863, 0.35697275400161743, -0.6242956519126892, 0.013050451874732971, -0.52587890625, -0.820556640625, 0.220703125, 0, 
237, 1008730477, 0.015429212711751461, -0.6774396896362305, -0.08322029560804367, -0.7307046055793762, 9.71319580078125, 0.9479233622550964, 0.639385461807251, 0.7925171852111816, -0.7826941013336182, -0.05276532471179962, -0.521728515625, -0.81982421875, 0.221923828125, 0, 
238, 1008738810, 0.01545785740017891, -0.6774298548698425, -0.08323418349027634, -0.7307114601135254, 9.729890823364258, 0.9596111178398132, 0.6213960647583008, 1.092306137084961, -0.5469151139259338, 0.013255366124212742, -0.5224609375, -0.82080078125, 0.221435546875, 0, 
239, 1008747143, 0.015480692498385906, -0.6774139404296875, -0.08324647694826126, -0.7307243347167969, 9.73134994506836, 0.9742887616157532, 0.6221113801002502, 1.005730152130127, -0.4331110715866089, 0.07711165398359299, -0.522705078125, -0.821044921875, 0.220458984375, 0, 
240, 1008755476, 0.015517971478402615, -0.6774022579193115, -0.08326688408851624, -0.7307319641113281, 9.704727172851562, 0.9605838656425476, 0.6230912804603577, 1.2361558675765991, -0.5138471722602844, 0.03748643025755882, -0.523681640625, -0.8212890625, 0.224853515625, 0, 
241, 1008763809, 0.015523484908044338, -0.677394688129425, -0.08325572311878204, -0.7307400703430176, 9.715570449829102, 0.9806333184242249, 0.6270396709442139, 0.6121417880058289, -0.5753468871116638, 0.13118329644203186, -0.524658203125, -0.821533203125, 0.224609375, 0, 
242, 1008772142, 0.015499630942940712, -0.6773795485496521, -0.08319132030010223, -0.7307620048522949, 9.675615310668945, 0.9701544046401978, 0.638312578201294, -0.198612779378891, -0.3962266445159912, 0.20646357536315918, -0.521484375, -0.82177734375, 0.221923828125, 0, 
243, 1008780475, 0.015470314770936966, -0.6773570775985718, -0.08312016725540161, -0.7307915687561035, 9.710592269897461, 0.9282602071762085, 0.6202372908592224, -0.33753156661987305, -0.252108097076416, 0.3184105455875397, -0.5244140625, -0.8232421875, 0.22119140625, 0, 
244, 1008788808, 0.015450799837708473, -0.677337110042572, -0.08305329084396362, -0.7308181524276733, 9.715513229370117, 0.8550007939338684, 0.6423038244247437, -0.1876242607831955, -0.30176129937171936, 0.2686292827129364, -0.520751953125, -0.823974609375, 0.219970703125, 0, 
245, 1008797141, 0.01543048769235611, -0.677320659160614, -0.08301030844449997, -0.7308386564254761, 9.718989372253418, 0.8246440887451172, 0.6686692237854004, 0.039894167333841324, -0.3929223120212555, 0.1544666439294815, -0.5224609375, -0.818359375, 0.220947265625, 0, 
246, 1008805474, 0.015418050810694695, -0.6773145794868469, -0.08296580612659454, -0.7308496832847595, 9.727580070495605, 0.8483486175537109, 0.7095620036125183, 0.11525125056505203, -0.5804698467254639, 0.1492413431406021, -0.524658203125, -0.822509765625, 0.22216796875, 0, 
247, 1008813807, 0.015401186421513557, -0.6772962808609009, -0.08293666690587997, -0.7308703064918518, 9.702295303344727, 0.8856578469276428, 0.7073589563369751, 0.21094602346420288, -0.37332746386528015, 0.05984766408801079, -0.52294921875, -0.8212890625, 0.2216796875, 0, 
248, 1008822140, 0.015395769849419594, -0.6772921085357666, -0.08291593939065933, -0.730876624584198, 9.715463638305664, 0.8895490169525146, 0.6847559809684753, 0.4273607134819031, -0.6409962177276611, 0.0010886050295084715, -0.524169921875, -0.818603515625, 0.22119140625, 0, 
249, 1008830473, 0.015391978435218334, -0.6772869825363159, -0.08290794491767883, -0.7308822870254517, 9.703039169311523, 0.8724536895751953, 0.6466813683509827, 0.5594276785850525, -0.6337473392486572, 0.011513597331941128, -0.52685546875, -0.82275390625, 0.220703125, 0, 
250, 1008838806, 0.015396367758512497, -0.6772838830947876, -0.08292067795991898, -0.7308837175369263, 9.724189758300781, 0.9018952250480652, 0.6684046983718872, 0.8599082231521606, -0.6936590671539307, -0.20957565307617188, -0.524169921875, -0.819580078125, 0.2236328125, 0, 
251, 1008847139, 0.015393777750432491, -0.677280843257904, -0.082936130464077, -0.7308849096298218, 9.747787475585938, 0.8894492387771606, 0.673240065574646, 0.8108059167861938, -0.6993455290794373, -0.19064676761627197, -0.521484375, -0.822998046875, 0.219970703125, 0, 
252, 1008855472, 0.015382746234536171, -0.6772788763046265, -0.0829419195652008, -0.7308862209320068, 9.7509126663208, 0.9058861136436462, 0.6590700745582581, 0.6472845077514648, -0.7239863276481628, -0.2973300516605377, -0.5224609375, -0.82080078125, 0.220947265625, 0, 
253, 1008863805, 0.015373592264950275, -0.6772786378860474, -0.08295305073261261, -0.73088538646698, 9.754717826843262, 0.9335389733314514, 0.6807217597961426, 0.707068145275116, -0.7527254819869995, -0.21226514875888824, -0.521728515625, -0.8203125, 0.22216796875, 0, 
254, 1008872138, 0.015378015115857124, -0.6772708296775818, -0.08294177800416946, -0.7308938503265381, 9.717086791992188, 1.0024495124816895, 0.6493565440177917, 0.6115526556968689, -0.5749883055686951, 0.007901990786194801, -0.524169921875, -0.822021484375, 0.22265625, 0, 
255, 1008880471, 0.015385236591100693, -0.677273690700531, -0.08294671773910522, -0.7308905720710754, 9.672146797180176, 1.015030860900879, 0.6451005339622498, 0.801226019859314, -0.7864594459533691, 0.012153953313827515, -0.5244140625, -0.820556640625, 0.222900390625, 0, 
256, 1008888804, 0.01539903786033392, -0.6772753596305847, -0.08295893669128418, -0.730887234210968, 9.679434776306152, 0.9902037978172302, 0.6321610808372498, 0.9472784399986267, -0.7762393355369568, -0.10207271575927734, -0.5234375, -0.8212890625, 0.221435546875, 0, 
257, 1008897137, 0.015409179963171482, -0.6772749423980713, -0.0829818993806839, -0.7308847904205322, 9.72508430480957, 0.9393327832221985, 0.6441635489463806, 1.0078306198120117, -0.7467830181121826, -0.13088874518871307, -0.523681640625, -0.823486328125, 0.221435546875, 0, 
258, 1008905470, 0.01542902272194624, -0.6772732138633728, -0.0830157920718193, -0.7308821678161621, 9.745977401733398, 0.9037187695503235, 0.6980316638946533, 1.221043348312378, -0.7320548892021179, -0.24669072031974792, -0.525390625, -0.8203125, 0.22021484375, 0, 
259, 1008913803, 0.01544109731912613, -0.6772736310958862, -0.08303925395011902, -0.7308787703514099, 9.74586296081543, 0.9138758182525635, 0.6861579418182373, 1.0321896076202393, -0.7621771693229675, -0.11201104521751404, -0.523681640625, -0.8212890625, 0.22021484375, 0, 
260, 1008922136, 0.015429389663040638, -0.6772584319114685, -0.08302725851535797, -0.7308945059776306, 9.711973190307617, 0.9382669925689697, 0.6146938800811768, 0.44708365201950073, -0.451655775308609, -0.1566566675901413, -0.525146484375, -0.821044921875, 0.224609375, 0, 
261, 1008930469, 0.015412704087793827, -0.67725670337677, -0.0830068290233612, -0.7308988571166992, 9.684677124023438, 0.9384673237800598, 0.6093363761901855, 0.3145556151866913, -0.6913794279098511, 0.002036331919953227, -0.524169921875, -0.819091796875, 0.22119140625, 0, 
262, 1008938802, 0.015376802533864975, -0.6772585511207581, -0.08295421302318573, -0.7309037446975708, 9.712051391601562, 0.9259927272796631, 0.6311096549034119, -0.17835190892219543, -0.7428896427154541, 0.0009605337982065976, -0.522705078125, -0.82275390625, 0.221435546875, 0, 
263, 1008947135, 0.015310755930840969, -0.6772571206092834, -0.08288022130727768, -0.7309148907661438, 9.732880592346191, 0.9886587858200073, 0.6637123227119446, -0.6919173002243042, -0.6769330501556396, 0.004981969017535448, -0.523681640625, -0.819580078125, 0.22216796875, 0, 
264, 1008955468, 0.015238149091601372, -0.6772574186325073, -0.08280473202466965, -0.7309246063232422, 9.706579208374023, 0.9654907584190369, 0.6997626423835754, -0.7532634735107422, -0.7190684676170349, -0.15693841874599457, -0.5234375, -0.8212890625, 0.221435546875, 0, 
265, 1008963801, 0.015183485113084316, -0.677251935005188, -0.08275315165519714, -0.7309367656707764, 9.708274841308594, 0.8760799169540405, 0.7183743119239807, -0.35867616534233093, -0.6170725226402283, -0.0963863730430603, -0.525146484375, -0.821533203125, 0.22216796875, 0, 
266, 1008972134, 0.015115056186914444, -0.6772543787956238, -0.08269808441400528, -0.7309420704841614, 9.69437026977539, 0.8298731446266174, 0.6876600980758667, -0.5075331926345825, -0.7809395790100098, -0.30090320110321045, -0.522216796875, -0.82177734375, 0.22021484375, 0, 
267, 1008980467, 0.015078126452863216, -0.6772522926330566, -0.08267352730035782, -0.7309474945068359, 9.715470314025879, 0.8104457259178162, 0.6749136447906494, 0.08494961261749268, -0.7020093202590942, -0.16339321434497833, -0.52001953125, -0.82177734375, 0.219970703125, 0, 
268, 1008988800, 0.015078794211149216, -0.6772506833076477, -0.08268019556999207, -0.7309483289718628, 9.736714363098145, 0.8696140646934509, 0.6705432534217834, 0.7626766562461853, -0.715559184551239, -0.18618984520435333, -0.524658203125, -0.820556640625, 0.21875, 0, 
269, 1008997133, 0.015108967199921608, -0.6772410273551941, -0.08270983397960663, -0.7309532761573792, 9.733073234558105, 0.9373159408569336, 0.6967083811759949, 1.2552127838134766, -0.5635131597518921, -0.0013063260121271014, -0.5224609375, -0.820556640625, 0.224365234375, 0, 
270, 1009005466, 0.01513135526329279, -0.6772376298904419, -0.08274127542972565, -0.7309523820877075, 9.714776992797852, 1.0091516971588135, 0.6734902262687683, 1.219711422920227, -0.6945043206214905, -0.20032891631126404, -0.52294921875, -0.8203125, 0.222900390625, 0, 
271, 1009013799, 0.015132779255509377, -0.6772401332855225, -0.08276825398206711, -0.7309470176696777, 9.689842224121094, 1.012298345565796, 0.6422463655471802, 0.9709715843200684, -0.8140715956687927, -0.24963632225990295, -0.52490234375, -0.822998046875, 0.22216796875, 0, 
272, 1009022132, 0.01513965055346489, -0.6772350668907166, -0.08277641981840134, -0.7309507131576538, 9.71756649017334, 1.0144519805908203, 0.6448931694030762, 0.8329876661300659, -0.6480913758277893, -0.14110881090164185, -0.5234375, -0.820556640625, 0.220703125, 0, 
273, 1009030465, 0.015139671973884106, -0.6772429347038269, -0.0827869400382042, -0.7309422492980957, 9.732409477233887, 1.0073925256729126, 0.6579758524894714, 0.7934905886650085, -0.8953198790550232, -0.1051720455288887, -0.52392578125, -0.821533203125, 0.221435546875, 0, 
274, 1009038798, 0.015151964500546455, -0.6772506237030029, -0.0827934592962265, -0.7309339642524719, 9.746557235717773, 0.9620716571807861, 0.6618453860282898, 0.879285454750061, -0.8796055912971497, -0.05349533259868622, -0.5234375, -0.8193359375, 0.220458984375, 0, 
275, 1009047131, 0.015152622014284134, -0.6772469878196716, -0.08279803395271301, -0.7309368848800659, 9.724068641662598, 0.9326738715171814, 0.6274831891059875, 0.7308893799781799, -0.6717588901519775, -0.05893835052847862, -0.521484375, -0.820556640625, 0.22119140625, 0, 
276, 1009055464, 0.015163172036409378, -0.677234411239624, -0.08279368281364441, -0.7309487462043762, 9.694583892822266, 0.9499189853668213, 0.5991078019142151, 0.7340656518936157, -0.48971864581108093, 0.004085471387952566, -0.524169921875, -0.8193359375, 0.221923828125, 0, 
277, 1009063797, 0.01517905481159687, -0.6772218942642212, -0.08281224966049194, -0.7309578657150269, 9.67738151550293, 0.9546756148338318, 0.5768266916275024, 1.007420539855957, -0.5109015107154846, -0.04800107702612877, -0.526123046875, -0.81982421875, 0.2216796875, 0, 
278, 1009072130, 0.015211602672934532, -0.6772145628929138, -0.08281915634870529, -0.7309633493423462, 9.694025993347168, 0.9686022400856018, 0.6684761047363281, 1.0600067377090454, -0.5768837928771973, 0.12793029844760895, -0.525634765625, -0.820068359375, 0.220703125, 0, 
279, 1009080463, 0.015223929658532143, -0.6772052645683289, -0.08282283693552017, -0.7309712171554565, 9.713424682617188, 0.9667854309082031, 0.7063789963722229, 0.824752688407898, -0.5558801293373108, 0.059527479112148285, -0.52294921875, -0.822021484375, 0.22119140625, 0, 
280, 1009088796, 0.015226801857352257, -0.6772062182426453, -0.08280511200428009, -0.730972409248352, 9.730584144592285, 0.9682660698890686, 0.6892908811569214, 0.5380014181137085, -0.7291476130485535, 0.06946580857038498, -0.522216796875, -0.82177734375, 0.218505859375, 0, 
281, 1009097129, 0.015215221792459488, -0.677200436592102, -0.08277418464422226, -0.7309813499450684, 9.73513412475586, 0.9633949398994446, 0.7075592279434204, 0.2519928812980652, -0.6011788845062256, 0.14523272216320038, -0.5263671875, -0.8212890625, 0.220703125, 0, 
282, 1009105462, 0.015207799151539803, -0.6772139072418213, -0.08274225890636444, -0.7309726476669312, 9.716293334960938, 0.9221445322036743, 0.6347218155860901, 0.30886924266815186, -0.95735764503479, 0.11481578648090363, -0.5283203125, -0.822509765625, 0.2197265625, 0, 
283, 1009113795, 0.015211486257612705, -0.6772115230560303, -0.08272258937358856, -0.7309769988059998, 9.730469703674316, 0.9083824157714844, 0.6891263723373413, 0.5129122138023376, -0.6612827181816101, 0.19939400255680084, -0.5234375, -0.821044921875, 0.221435546875, 0, 
284, 1009122128, 0.015217169187963009, -0.6772158741950989, -0.08271672576665878, -0.7309735417366028, 9.750104904174805, 0.8932613134384155, 0.7106850147247314, 0.6850654482841492, -0.8069508671760559, -0.00929796602576971, -0.522705078125, -0.8203125, 0.2197265625, 0, 
285, 1009130461, 0.01523217186331749, -0.6772202253341675, -0.08273755013942719, -0.7309668660163879, 9.726014137268066, 0.8827394843101501, 0.710320234298706, 1.036441683769226, -0.82900470495224, -0.053584977984428406, -0.525390625, -0.8212890625, 0.222900390625, 0, 
286, 1009138794, 0.015283698216080666, -0.6772201657295227, -0.08277568966150284, -0.7309615612030029, 9.721785545349121, 0.8767610192298889, 0.648659884929657, 1.5574607849121094, -0.7355639338493347, 0.03863907232880592, -0.522705078125, -0.823974609375, 0.22119140625, 0, 
287, 1009147127, 0.015318702906370163, -0.6772130131721497, -0.08282487094402313, -0.7309618592262268, 9.723339080810547, 0.8647858500480652, 0.6687765121459961, 1.5007507801055908, -0.6302382349967957, -0.13160593807697296, -0.525390625, -0.8212890625, 0.222900390625, 0, 
288, 1009155460, 0.015341916121542454, -0.6771963834762573, -0.08283266425132751, -0.7309758067131042, 9.720634460449219, 0.8852143883705139, 0.5903026461601257, 0.9732000231742859, -0.41876715421676636, 0.014715379104018211, -0.52392578125, -0.82275390625, 0.222412109375, 0, 
289, 1009163793, 0.01535511389374733, -0.6771819591522217, -0.082826167345047, -0.7309895753860474, 9.722272872924805, 0.9496466517448425, 0.6169685125350952, 0.7255616188049316, -0.44415077567100525, 0.15600349009037018, -0.522216796875, -0.822021484375, 0.22021484375, 0, 
290, 1009172126, 0.01535554975271225, -0.6771681308746338, -0.08279325067996979, -0.7310061454772949, 9.70509147644043, 1.0025997161865234, 0.6457157731056213, 0.34622761607170105, -0.4376063942909241, 0.1662876009941101, -0.521484375, -0.8212890625, 0.219482421875, 0, 
291, 1009180459, 0.015315593220293522, -0.677161693572998, -0.08273922652006149, -0.731019139289856, 9.730627059936523, 1.029701828956604, 0.622232973575592, -0.24831721186637878, -0.5833001732826233, 0.0733591765165329, -0.5234375, -0.821044921875, 0.220947265625, 0, 
292, 1009188792, 0.015273035503923893, -0.677176296710968, -0.08267045021057129, -0.7310143113136292, 9.714225769042969, 0.9975783824920654, 0.6520674824714661, -0.3970206379890442, -0.9649138450622559, 0.10597889125347137, -0.521240234375, -0.81982421875, 0.22216796875, 0, 
293, 1009197125, 0.015231222845613956, -0.6771822571754456, -0.08262105286121368, -0.7310152053833008, 9.719218254089355, 0.9697252511978149, 0.6645491719245911, -0.20796199142932892, -0.8232928514480591, 0.029674094170331955, -0.523681640625, -0.823486328125, 0.22021484375, 0, 
294, 1009205458, 0.015209774486720562, -0.6771886944770813, -0.08259329199790955, -0.731012761592865, 9.714997291564941, 0.9089186787605286, 0.6666234135627747, 0.21394288539886475, -0.8439377546310425, -0.07261636108160019, -0.524169921875, -0.82080078125, 0.219482421875, 0, 
295, 1009213791, 0.015207416377961636, -0.6771883368492126, -0.0825766772031784, -0.7310150265693665, 9.711831092834473, 0.8712668418884277, 0.6846200823783875, 0.48909100890159607, -0.7095398902893066, 0.11192139238119125, -0.522705078125, -0.81982421875, 0.222412109375, 0, 
296, 1009222124, 0.015226139687001705, -0.6771877408027649, -0.08257726579904556, -0.731015145778656, 9.733431816101074, 0.8458304405212402, 0.6499502658843994, 0.8681816458702087, -0.7097447514533997, 0.059514667838811874, -0.522216796875, -0.819091796875, 0.2216796875, 0, 
297, 1009230457, 0.015265937894582748, -0.6771950721740723, -0.08261245489120483, -0.7310035228729248, 9.723725318908691, 0.9256345629692078, 0.6261240243911743, 1.4153529405593872, -0.8777998089790344, 0.06563647836446762, -0.525146484375, -0.822021484375, 0.219482421875, 0, 
298, 1009238790, 0.01530358288437128, -0.6771997213363647, -0.08263052999973297, -0.7309963703155518, 9.743775367736816, 0.937372624874115, 0.6430119872093201, 1.226627230644226, -0.813917875289917, 0.09312053769826889, -0.523193359375, -0.817626953125, 0.223388671875, 0, 
299, 1009247123, 0.015304628759622574, -0.6772119998931885, -0.08262825012207031, -0.7309852838516235, 9.71793270111084, 0.9763920903205872, 0.6435627937316895, 0.678200900554657, -0.9603801965713501, 0.03039129078388214, -0.5224609375, -0.821044921875, 0.2216796875, 0, 
300, 1009255456, 0.015308081172406673, -0.6772222518920898, -0.08261199295520782, -0.7309775948524475, 9.711530685424805, 0.9877221584320068, 0.6602647304534912, 0.5659081339836121, -0.904259443283081, 0.0765993744134903, -0.523681640625, -0.820556640625, 0.219970703125, 0, 
301, 1009263789, 0.015297669917345047, -0.6772392392158508, -0.08259336650371552, -0.7309641242027283, 9.724376678466797, 0.9479665756225586, 0.6817446947097778, 0.4067412316799164, -1.0400147438049316, 0.07352565973997116, -0.5234375, -0.820556640625, 0.220703125, 0, 
302, 1009272122, 0.015270470641553402, -0.6772456765174866, -0.08254662156105042, -0.7309641242027283, 9.70174503326416, 0.9093837738037109, 0.6597067713737488, -0.03470728546380997, -0.8215510249137878, 0.04678439721465111, -0.524658203125, -0.821044921875, 0.2216796875, 0, 
303, 1009280455, 0.01524942833930254, -0.6772565841674805, -0.0825217068195343, -0.7309572100639343, 9.732165336608887, 0.8940266966819763, 0.6667236685752869, 0.2398388683795929, -0.9293355941772461, 0.016610831022262573, -0.5234375, -0.82275390625, 0.219482421875, 0, 
304, 1009288788, 0.015257448889315128, -0.6772627234458923, -0.08252039551734924, -0.7309516072273254, 9.732587814331055, 0.8691916465759277, 0.6505009531974792, 0.7556326985359192, -0.8405311107635498, -0.02133665792644024, -0.5244140625, -0.8203125, 0.220458984375, 0, 
305, 1009297121, 0.015296037308871746, -0.67726731300354, -0.08255929499864578, -0.7309421896934509, 9.724769592285156, 0.8840270042419434, 0.6839405298233032, 1.440531849861145, -0.8336665630340576, 0.01509959064424038, -0.52197265625, -0.822509765625, 0.21923828125, 0, 
306, 1009305454, 0.015345112420618534, -0.6772685647010803, -0.08259503543376923, -0.7309359312057495, 9.708066940307617, 0.8615763783454895, 0.6769047379493713, 1.511380672454834, -0.759666919708252, 0.042071375995874405, -0.519775390625, -0.818359375, 0.2197265625, 0, 
307, 1009313787, 0.015371168963611126, -0.6772588491439819, -0.08262698352336884, -0.7309408783912659, 9.707330703735352, 0.9094553589820862, 0.6132990717887878, 1.2414323091506958, -0.5684822797775269, -0.0660334900021553, -0.5224609375, -0.8203125, 0.220947265625, 0, 
308, 1009322120, 0.015409886837005615, -0.6772445440292358, -0.08264844119548798, -0.7309507131576538, 9.705650329589844, 0.977764904499054, 0.6229696869850159, 1.2580046653747559, -0.46261870861053467, 0.04891038313508034, -0.522705078125, -0.818603515625, 0.21923828125, 0, 
309, 1009330453, 0.015426024794578552, -0.6772293448448181, -0.08265825361013412, -0.7309632897377014, 9.714797973632812, 1.0314184427261353, 0.6188854575157166, 0.9178476333618164, -0.44876137375831604, 0.033208850771188736, -0.5244140625, -0.82275390625, 0.22119140625, 0, 
310, 1009338786, 0.01541431900113821, -0.6772112846374512, -0.08263984322547913, -0.7309823632240295, 9.749547004699707, 0.9916629791259766, 0.6610729098320007, 0.3759016990661621, -0.3883886933326721, -0.09231370687484741, -0.524169921875, -0.8203125, 0.2216796875, 0, 
311, 1009347119, 0.015390519052743912, -0.6771873831748962, -0.08260741829872131, -0.7310085892677307, 9.739380836486816, 0.9562060832977295, 0.6530330181121826, 0.10895013064146042, -0.2701020836830139, 0.012717466801404953, -0.526123046875, -0.823974609375, 0.219970703125, 0, 
312, 1009355452, 0.015363418497145176, -0.6771549582481384, -0.08256132900714874, -0.7310444116592407, 9.72959041595459, 0.9349766969680786, 0.7019370794296265, -0.05759360268712044, -0.09875568002462387, -0.008209362626075745, -0.524169921875, -0.82177734375, 0.2197265625, 0, 
313, 1009363785, 0.015345213934779167, -0.6771363019943237, -0.08253253251314163, -0.7310653328895569, 9.698976516723633, 0.903182327747345, 0.7116721272468567, 0.20190419256687164, -0.36776915192604065, 0.04158471152186394, -0.526611328125, -0.822021484375, 0.219970703125, 0, 
314, 1009372118, 0.015345791354775429, -0.6771244406700134, -0.08251582831144333, -0.7310781478881836, 9.678218841552734, 0.9006001353263855, 0.676108181476593, 0.5146667957305908, -0.49503350257873535, 0.024282295256853104, -0.5234375, -0.822021484375, 0.22119140625, 0, 
315, 1009380451, 0.01534607820212841, -0.6771167516708374, -0.08251647651195526, -0.7310852408409119, 9.732071876525879, 0.8818811774253845, 0.635816216468811, 0.6837848424911499, -0.5925084948539734, -0.03158235549926758, -0.52099609375, -0.81982421875, 0.2216796875, 0, 
316, 1009388784, 0.015360302291810513, -0.6771074533462524, -0.08252093195915222, -0.7310931086540222, 9.721635818481445, 0.9126100540161133, 0.6391780972480774, 0.8589606285095215, -0.5560082197189331, -0.029507601633667946, -0.5244140625, -0.8203125, 0.220947265625, 0, 
317, 1009397117, 0.01536537241190672, -0.6771093606948853, -0.08253103494644165, -0.7310900688171387, 9.741263389587402, 0.9453340172767639, 0.6527898907661438, 0.8325522541999817, -0.7791593670845032, -0.059117648750543594, -0.525634765625, -0.81982421875, 0.22119140625, 0, 
318, 1009405450, 0.015359058976173401, -0.6771218180656433, -0.08250758051872253, -0.7310813069343567, 9.742565155029297, 0.9564352631568909, 0.6773313283920288, 0.40041449666023254, -0.9462922811508179, 0.050959520041942596, -0.524169921875, -0.822509765625, 0.220458984375, 0, 
319, 1009413783, 0.01533435471355915, -0.6771388053894043, -0.08246602863073349, -0.7310707569122314, 9.728796005249023, 0.9662060141563416, 0.6587696671485901, 0.0410212017595768, -1.0226995944976807, 0.14255602657794952, -0.524169921875, -0.82177734375, 0.22216796875, 0, 
320, 1009422116, 0.015307134948670864, -0.6771492958068848, -0.08243200927972794, -0.7310654520988464, 9.719332695007324, 0.9665350317955017, 0.7005136609077454, 0.09839707612991333, -0.9168871641159058, -0.0636257529258728, -0.522216796875, -0.82080078125, 0.217041015625, 0, 
321, 1009430449, 0.015281228348612785, -0.6771791577339172, -0.08240523934364319, -0.7310413122177124, 9.682381629943848, 0.8642422556877136, 0.7167792320251465, 0.1910949945449829, -1.2841439247131348, 0.0092083178460598, -0.522705078125, -0.822509765625, 0.220703125, 0, 
322, 1009438782, 0.015274187549948692, -0.6772035360336304, -0.0823947936296463, -0.7310200929641724, 9.719168663024902, 0.8098591566085815, 0.7159638404846191, 0.5371432900428772, -1.184940218925476, -0.05873344466090202, -0.5224609375, -0.8193359375, 0.22119140625, 0, 
323, 1009447115, 0.015270989388227463, -0.6772131323814392, -0.08240162581205368, -0.7310104966163635, 9.734841346740723, 0.8185575008392334, 0.6574894785881042, 0.7286354303359985, -0.9281063079833984, -0.10179097950458527, -0.52197265625, -0.822021484375, 0.218994140625, 0, 
324, 1009455448, 0.015278399921953678, -0.6772178411483765, -0.08239974826574326, -0.7310062050819397, 9.742451667785645, 0.8721743822097778, 0.693568229675293, 0.7423388957977295, -0.8157877922058105, -0.0219257865101099, -0.5234375, -0.817626953125, 0.22216796875, 0, 
325, 1009463781, 0.015283721499145031, -0.6772202849388123, -0.08241920918226242, -0.731001615524292, 9.693747520446777, 0.9680013656616211, 0.6492993235588074, 0.9295533299446106, -0.800521731376648, -0.14100636541843414, -0.526123046875, -0.82373046875, 0.223388671875, 0, 
326, 1009472114, 0.015315140597522259, -0.6772189736366272, -0.08244646340608597, -0.7309991121292114, 9.691436767578125, 1.0174704790115356, 0.642854630947113, 1.2584401369094849, -0.7173010110855103, -0.057862553745508194, -0.525634765625, -0.81689453125, 0.22216796875, 0, 
327, 1009480447, 0.015322628431022167, -0.6772196292877197, -0.08246587216854095, -0.7309960722923279, 9.709425926208496, 1.0360678434371948, 0.6134063601493835, 0.9484310150146484, -0.7663778066635132, -0.12143708020448685, -0.523681640625, -0.823974609375, 0.2216796875, 0, 
328, 1009488780, 0.015336647629737854, -0.6772205233573914, -0.08246397972106934, -0.7309952974319458, 9.689770698547363, 1.0583486557006836, 0.6108169555664062, 0.801507830619812, -0.7375106811523438, 0.039842940866947174, -0.526123046875, -0.81982421875, 0.21875, 0, 
329, 1009497113, 0.015340210869908333, -0.6772305965423584, -0.08244775235652924, -0.7309877276420593, 9.682703018188477, 1.058398962020874, 0.6248294711112976, 0.5568022131919861, -0.8996615409851074, 0.18288563191890717, -0.520751953125, -0.8193359375, 0.22021484375, 0, 
330, 1009505446, 0.01532789971679449, -0.677240788936615, -0.0824197381734848, -0.7309817671775818, 9.706171989440918, 1.006412148475647, 0.6518099904060364, 0.29831618070602417, -0.903311550617218, 0.03197937086224556, -0.5234375, -0.821533203125, 0.220947265625, 0, 
331, 1009513779, 0.015313651412725449, -0.6772440671920776, -0.08238061517477036, -0.730983316898346, 9.695556640625, 0.9650901556015015, 0.6252586245536804, 0.15123924612998962, -0.7619466781616211, 0.2059512585401535, -0.523681640625, -0.81884765625, 0.221435546875, 0, 
332, 1009522112, 0.015335096046328545, -0.6772463321685791, -0.08236850798130035, -0.73098224401474, 9.725777626037598, 0.910528302192688, 0.6547855734825134, 0.7676714658737183, -0.7420956492424011, 0.21440397202968597, -0.525634765625, -0.82177734375, 0.21875, 0, 
333, 1009530445, 0.015381772071123123, -0.6772540211677551, -0.08239515125751495, -0.7309711575508118, 9.747100830078125, 0.905700147151947, 0.7002490162849426, 1.3942981958389282, -0.8677079081535339, 0.21466010808944702, -0.52294921875, -0.82373046875, 0.21923828125, 0, 
334, 1009538778, 0.015450892969965935, -0.6772446632385254, -0.08242965489625931, -0.730974555015564, 9.728899955749512, 0.87408846616745, 0.6872195601463318, 1.6777452230453491, -0.5400761365890503, 0.24611437320709229, -0.524169921875, -0.8203125, 0.21923828125, 0, 
335, 1009547111, 0.015529130585491657, -0.6772331595420837, -0.08248524367809296, -0.7309772372245789, 9.727028846740723, 0.8938624262809753, 0.688998281955719, 1.966212511062622, -0.5178941488265991, 0.23681640625, -0.5234375, -0.8212890625, 0.21923828125, 0, 
336, 1009555444, 0.015603505074977875, -0.6772292852401733, -0.08253545314073563, -0.7309736013412476, 9.703289031982422, 0.884416937828064, 0.6453627347946167, 1.8917007446289062, -0.657850444316864, 0.15841123461723328, -0.523193359375, -0.818115234375, 0.220703125, 0, 
337, 1009563777, 0.015671346336603165, -0.6772326827049255, -0.08258406817913055, -0.7309634685516357, 9.681970596313477, 0.9246536493301392, 0.6603367328643799, 1.8109647035598755, -0.7984980940818787, 0.2182973027229309, -0.522705078125, -0.8173828125, 0.220703125, 0, 
338, 1009572110, 0.0157378651201725, -0.677236795425415, -0.08262601494789124, -0.7309535145759583, 9.705347061157227, 0.943100094795227, 0.666202187538147, 1.7404745817184448, -0.8017768859863281, 0.1681702584028244, -0.521484375, -0.820556640625, 0.2216796875, 0, 
339, 1009580443, 0.015801284462213516, -0.6772483587265015, -0.08267788589000702, -0.7309355735778809, 9.707615852355957, 0.9123734831809998, 0.6981696486473083, 1.810093879699707, -0.9572808146476746, 0.15364699065685272, -0.52099609375, -0.8212890625, 0.221923828125, 0, 
340, 1009588776, 0.0158968735486269, -0.677266001701355, -0.08277180045843124, -0.7309064269065857, 9.732901573181152, 0.8211629986763, 0.7383314371109009, 2.5513572692871094, -1.097915768623352, -0.004008627962321043, -0.52294921875, -0.821533203125, 0.223876953125, 0, 
341, 1009597109, 0.015979446470737457, -0.6772685647010803, -0.08285008370876312, -0.7308934330940247, 9.737496376037598, 0.7980930209159851, 0.6949806809425354, 2.2499160766601562, -0.8050810098648071, 0.08856121450662613, -0.52587890625, -0.820556640625, 0.220703125, 0, 
342, 1009605442, 0.016058070585131645, -0.6772535443305969, -0.08291269838809967, -0.7308984398841858, 9.734823226928711, 0.837950587272644, 0.6251164078712463, 2.0477683544158936, -0.46377134323120117, 0.0736793503165245, -0.52490234375, -0.8232421875, 0.2216796875, 0, 
343, 1009613775, 0.016164658591151237, -0.6772433519363403, -0.08302368968725204, -0.7308930158615112, 9.72329330444336, 0.8465393781661987, 0.6471641659736633, 2.7973690032958984, -0.5849010348320007, 0.009413231164216995, -0.523193359375, -0.821044921875, 0.2197265625, 0, 
344, 1009622108, 0.01624409668147564, -0.6772488355636597, -0.08312340080738068, -0.7308747172355652, 9.741435050964355, 0.9264115691184998, 0.6497594118118286, 2.451961040496826, -0.8952942490577698, -0.23682920634746552, -0.524169921875, -0.82080078125, 0.219482421875, 0, 
345, 1009630441, 0.016305582597851753, -0.6772469282150269, -0.08321383595466614, -0.7308648824691772, 9.766111373901367, 0.9738863706588745, 0.6646226644515991, 2.1736366748809814, -0.7571567296981812, -0.2421569675207138, -0.52587890625, -0.823486328125, 0.223876953125, 0, 
346, 1009638774, 0.016355572268366814, -0.6772515177726746, -0.08326765149831772, -0.7308534383773804, 9.708393096923828, 1.0054587125778198, 0.6078137755393982, 1.7088663578033447, -0.8441171050071716, -0.10734925419092178, -0.5234375, -0.819580078125, 0.223388671875, 0, 
347, 1009647107, 0.016389982774853706, -0.6772812008857727, -0.08331963419914246, -0.7308192253112793, 9.6843900680542, 0.9964519739151001, 0.6332508325576782, 1.5562056303024292, -1.324512004852295, -0.11357350647449493, -0.525390625, -0.81884765625, 0.22216796875, 0, 
348, 1009655440, 0.01638699881732464, -0.6772956252098083, -0.08332215249538422, -0.7308055758476257, 9.731407165527344, 0.9879363775253296, 0.6545923948287964, 0.7030466794967651, -1.0134016275405884, -0.1507909893989563, -0.523681640625, -0.822509765625, 0.222900390625, 0, 
349, 1009663773, 0.01633738912642002, -0.6772944331169128, -0.0832742378115654, -0.730813205242157, 9.716093063354492, 0.9565568566322327, 0.6800565719604492, -0.2719463109970093, -0.6981415152549744, -0.07261635363101959, -0.521484375, -0.82080078125, 0.2216796875, 0, 
350, 1009672106, 0.01630784571170807, -0.677302360534668, -0.08322961628437042, -0.730811595916748, 9.735077857971191, 0.9538172483444214, 0.677388608455658, -0.03483536094427109, -0.8554130792617798, 0.013127296231687069, -0.522216796875, -0.820068359375, 0.22314453125, 0, 
351, 1009680439, 0.016283757984638214, -0.6773123145103455, -0.08320652693510056, -0.7308055758476257, 9.727128028869629, 0.8897634744644165, 0.65214604139328, 0.22913214564323425, -0.9126096367835999, -0.03153112530708313, -0.5263671875, -0.819580078125, 0.22265625, 0, 
352, 1009688772, 0.016251031309366226, -0.6773162484169006, -0.08317101001739502, -0.7308065891265869, 9.718862533569336, 0.871001660823822, 0.6871951818466187, 0.02122139371931553, -0.7966026663780212, -0.11037173867225647, -0.52587890625, -0.82080078125, 0.22314453125, 0, 
353, 1009697105, 0.016247451305389404, -0.6773179769515991, -0.08315843343734741, -0.7308065295219421, 9.715472221374512, 0.9073315262794495, 0.678461492061615, 0.5208269953727722, -0.7550820112228394, 0.0656108558177948, -0.524658203125, -0.818115234375, 0.223876953125, 0, 
354, 1009705438, 0.016266241669654846, -0.6773238778114319, -0.08316796272993088, -0.7307996153831482, 9.70856761932373, 0.9592391848564148, 0.6944265961647034, 0.9653365612030029, -0.8410433530807495, -0.004738633520901203, -0.521484375, -0.8232421875, 0.222412109375, 0, 
355, 1009713771, 0.01629595085978508, -0.6773287653923035, -0.08318723738193512, -0.7307921648025513, 9.718253135681152, 0.9623149037361145, 0.6768234372138977, 1.158288598060608, -0.8236258029937744, 0.10661926120519638, -0.527587890625, -0.82080078125, 0.220947265625, 0, 
356, 1009722104, 0.016333257779479027, -0.6773348450660706, -0.08322140574455261, -0.7307819128036499, 9.712373733520508, 0.929097592830658, 0.6760510206222534, 1.3913267850875854, -0.8569498062133789, -0.046822819858789444, -0.525634765625, -0.82080078125, 0.218505859375, 0, 
357, 1009730437, 0.016360478475689888, -0.6773427128791809, -0.08324788510799408, -0.7307709455490112, 9.696100234985352, 0.9383528828620911, 0.6594635248184204, 1.2110538482666016, -0.8925536870956421, 0.01917225681245327, -0.523681640625, -0.820556640625, 0.222412109375, 0, 
358, 1009738770, 0.016391640529036522, -0.6773523688316345, -0.08326070010662079, -0.7307599186897278, 9.699090957641602, 0.9217796921730042, 0.6357232332229614, 1.1174081563949585, -0.9022868871688843, 0.09383774548768997, -0.522216796875, -0.820556640625, 0.22314453125, 0, 
359, 1009747103, 0.016420802101492882, -0.6773670315742493, -0.08328749239444733, -0.7307426333427429, 9.720599174499512, 0.9465214014053345, 0.6361380815505981, 1.2378206253051758, -1.0169875621795654, 0.04547807201743126, -0.5224609375, -0.819580078125, 0.225830078125, 0, 
360, 1009755436, 0.016466254368424416, -0.6773709058761597, -0.08331363648176193, -0.7307349443435669, 9.728381156921387, 0.9399765729904175, 0.5958532691001892, 1.3827203512191772, -0.8008546233177185, 0.10626064985990524, -0.5244140625, -0.8193359375, 0.225830078125, 0, 
361, 1009763769, 0.01650766283273697, -0.6773713231086731, -0.08333409577608109, -0.7307313680648804, 9.724361419677734, 0.9706689715385437, 0.6386415362358093, 1.2749100923538208, -0.73000568151474, 0.20838458836078644, -0.5244140625, -0.820068359375, 0.22021484375, 0, 
362, 1009772102, 0.016535049304366112, -0.6773567795753479, -0.0833396315574646, -0.7307435870170593, 9.744696617126465, 1.017377495765686, 0.6653932332992554, 0.9902334809303284, -0.44594380259513855, 0.0914556235074997, -0.5244140625, -0.8212890625, 0.22119140625, 0, 
363, 1009780435, 0.016561003401875496, -0.6773538589477539, -0.08335067331790924, -0.730744481086731, 9.730011940002441, 1.0370835065841675, 0.6650713086128235, 1.033163070678711, -0.6700940132141113, 0.1364598274230957, -0.52099609375, -0.820556640625, 0.222412109375, 0, 
364, 1009788768, 0.01659367047250271, -0.6773520112037659, -0.08335910737514496, -0.730744481086731, 9.756728172302246, 0.9724647402763367, 0.6192073225975037, 1.0804212093353271, -0.6821070909500122, 0.13407771289348602, -0.522216796875, -0.81982421875, 0.221923828125, 0, 
365, 1009797101, 0.016617242246866226, -0.6773431301116943, -0.08336637169122696, -0.7307513952255249, 9.715155601501465, 0.9168084859848022, 0.5970191955566406, 0.9670397639274597, -0.5556623339653015, 0.13972565531730652, -0.525146484375, -0.821044921875, 0.2216796875, 0, 
366, 1009805434, 0.0166315920650959, -0.6773351430892944, -0.0833485797047615, -0.730760395526886, 9.673998832702637, 0.8904860019683838, 0.6410592198371887, 0.6375638842582703, -0.5525886416435242, 0.1868046075105667, -0.526123046875, -0.822021484375, 0.22216796875, 0, 
367, 1009813767, 0.016620710492134094, -0.6773308515548706, -0.08332736045122147, -0.7307670712471008, 9.69346809387207, 0.9115154147148132, 0.6926455497741699, 0.3588554263114929, -0.6377048492431641, 0.06326715648174286, -0.52392578125, -0.8203125, 0.222900390625, 0, 
368, 1009822100, 0.016625143587589264, -0.677331268787384, -0.08331236243247986, -0.7307682037353516, 9.72383975982666, 0.9148346185684204, 0.6497929096221924, 0.5768453478813171, -0.7223213911056519, 0.07250109314918518, -0.5244140625, -0.819091796875, 0.222412109375, 0, 
369, 1009830433, 0.016649046912789345, -0.6773337125778198, -0.08332762867212296, -0.7307636737823486, 9.744424819946289, 0.9233605265617371, 0.645808756351471, 1.0617485046386719, -0.7774432897567749, 0.08512891083955765, -0.5244140625, -0.817626953125, 0.222412109375, 0, 
370, 1009838766, 0.01667899638414383, -0.6773262023925781, -0.08334298431873322, -0.7307681441307068, 9.734890937805176, 0.8965797424316406, 0.6394640803337097, 1.1175618171691895, -0.5884101986885071, 0.03666677698493004, -0.52490234375, -0.82177734375, 0.2236328125, 0, 
371, 1009847099, 0.016710298135876656, -0.6773269176483154, -0.08336236327886581, -0.7307645678520203, 9.74083423614502, 0.9565210938453674, 0.670164167881012, 1.1701990365982056, -0.7442983984947205, 0.11799196153879166, -0.52490234375, -0.819580078125, 0.222900390625, 0, 
372, 1009855432, 0.016748784109950066, -0.6773286461830139, -0.08337489515542984, -0.7307606339454651, 9.706629753112793, 0.9747322201728821, 0.6977812647819519, 1.177998423576355, -0.7480508685112, 0.16024263203144073, -0.527099609375, -0.819091796875, 0.222412109375, 0, 
373, 1009863765, 0.01677326112985611, -0.6773370504379272, -0.0833740383386612, -0.7307524085044861, 9.678082466125488, 0.9734947681427002, 0.680178165435791, 0.9083447456359863, -0.8686299324035645, 0.24747194349765778, -0.526611328125, -0.82275390625, 0.221923828125, 0, 
374, 1009872098, 0.01680566929280758, -0.6773513555526733, -0.08337418735027313, -0.7307384610176086, 9.721779823303223, 0.925363302230835, 0.643162190914154, 1.0031942129135132, -0.9724187254905701, 0.23276935517787933, -0.52685546875, -0.820068359375, 0.22265625, 0, 
375, 1009880431, 0.016824088990688324, -0.6773596405982971, -0.083377406001091, -0.7307299971580505, 9.722180366516113, 0.9362141489982605, 0.6117039918899536, 0.8923102617263794, -0.8759299516677856, 0.14842167496681213, -0.522216796875, -0.81982421875, 0.221923828125, 0, 
376, 1009888764, 0.016875997185707092, -0.6773704290390015, -0.08340562134981155, -0.7307155132293701, 9.738300323486328, 0.9064317941665649, 0.6236947774887085, 1.4653775691986084, -0.9275170564651489, 0.16343161463737488, -0.524658203125, -0.819091796875, 0.22412109375, 0, 
377, 1009897097, 0.016946250572800636, -0.6773846745491028, -0.08345582336187363, -0.7306951284408569, 9.739788055419922, 0.8795705437660217, 0.6274673342704773, 1.8601186275482178, -0.9993137717247009, 0.24160628020763397, -0.525146484375, -0.821533203125, 0.224609375, 0, 
378, 1009905430, 0.016999412328004837, -0.677392303943634, -0.0834902673959732, -0.7306828498840332, 9.737610816955566, 0.8529640436172485, 0.6564885973930359, 1.5383394956588745, -0.8723183870315552, 0.11398334801197052, -0.525146484375, -0.8203125, 0.2236328125, 0, 
379, 1009913763, 0.017029600217938423, -0.6773985028266907, -0.08350145816802979, -0.730675220489502, 9.713489532470703, 0.8787768483161926, 0.6338635087013245, 1.0816634893417358, -0.8377007246017456, 0.1901344656944275, -0.524658203125, -0.82080078125, 0.22509765625, 0, 
380, 1009922096, 0.01704772189259529, -0.6774100065231323, -0.08349554985761642, -0.730664849281311, 9.724984169006348, 0.9506199955940247, 0.5933855175971985, 0.8078601360321045, -0.9240078330039978, 0.141787588596344, -0.525634765625, -0.822265625, 0.221923828125, 0, 
381, 1009930429, 0.017032204195857048, -0.6774207353591919, -0.08348426222801208, -0.7306565046310425, 9.720418930053711, 0.9693315029144287, 0.6499215364456177, 0.4278857707977295, -0.9368534088134766, -0.053700242191553116, -0.52587890625, -0.8212890625, 0.22607421875, 0, 
382, 1009938762, 0.017018502578139305, -0.6774338483810425, -0.0834704041481018, -0.7306461334228516, 9.734009742736816, 0.9644890427589417, 0.653090238571167, 0.43025508522987366, -0.9763889908790588, -0.10092008113861084, -0.52490234375, -0.81787109375, 0.224853515625, 0, 
383, 1009947095, 0.01699964702129364, -0.6774159669876099, -0.08345700800418854, -0.7306646108627319, 9.77807903289795, 0.8990265130996704, 0.6040862202644348, 0.35249030590057373, -0.40250205993652344, -0.10742609947919846, -0.5234375, -0.820556640625, 0.22119140625, 0, 
384, 1009955428, 0.016958797350525856, -0.6773996949195862, -0.08338995277881622, -0.7306883335113525, 9.743609428405762, 0.8784692287445068, 0.5771986842155457, -0.39046338200569153, -0.3823692798614502, 0.07931447774171829, -0.523193359375, -0.820556640625, 0.221923828125, 0, 
385, 1009963761, 0.016903935000300407, -0.6773805022239685, -0.08331719040870667, -0.7307156920433044, 9.7196044921875, 0.9165295362472534, 0.5955027937889099, -0.5883333086967468, -0.3325239419937134, 0.07969868183135986, -0.524658203125, -0.819091796875, 0.2216796875, 0, 
386, 1009972094, 0.016857456415891647, -0.677359402179718, -0.0832354798913002, -0.7307457327842712, 9.722946166992188, 0.976456344127655, 0.630272626876831, -0.5948138236999512, -0.2782474458217621, 0.1542617380619049, -0.52392578125, -0.819580078125, 0.225341796875, 0, 
387, 1009980427, 0.01680571772158146, -0.6773408651351929, -0.08316462486982346, -0.7307721376419067, 9.70410442352295, 1.002020001411438, 0.6966584920883179, -0.5406652688980103, -0.34568968415260315, 0.09422195702791214, -0.523681640625, -0.81787109375, 0.223876953125, 0, 
388, 1009988760, 0.016780123114585876, -0.6773241758346558, -0.08311357349157333, -0.7307939529418945, 9.69451904296875, 0.9949820637702942, 0.6672242283821106, -0.08386100083589554, -0.383188933134079, 0.08533382415771484, -0.522216796875, -0.8203125, 0.225341796875, 0, 
389, 1009997093, 0.01676151156425476, -0.6773187518119812, -0.08307387679815292, -0.7308037877082825, 9.711529731750488, 0.9322872161865234, 0.6585264801979065, 0.09739813208580017, -0.602293074131012, 0.15567050874233246, -0.527099609375, -0.8203125, 0.223876953125, 0, 
390, 1010005426, 0.016744384542107582, -0.6773102283477783, -0.08302325010299683, -0.730817973613739, 9.728898048400879, 0.9013440608978271, 0.6567597985267639, 0.00610899506136775, -0.5237854719161987, 0.17757068574428558, -0.523681640625, -0.81884765625, 0.221923828125, 0, 
391, 1010013759, 0.01673312857747078, -0.6772920489311218, -0.08299428224563599, -0.730838418006897, 9.727193832397461, 0.8963229656219482, 0.6354442238807678, 0.26532503962516785, -0.36787161231040955, 0.11345824599266052, -0.52685546875, -0.820068359375, 0.22265625, 0, 
392, 1010022092, 0.016735490411520004, -0.6772775650024414, -0.08296797424554825, -0.7308547496795654, 9.70340347290039, 0.8841695189476013, 0.6513093709945679, 0.42766812443733215, -0.429294615983963, 0.13978970050811768, -0.521728515625, -0.817138671875, 0.226318359375, 0, 
393, 1010030425, 0.016746515408158302, -0.6772617101669312, -0.08295328170061111, -0.7308709025382996, 9.722315788269043, 0.8566101789474487, 0.6442708969116211, 0.6214909553527832, -0.40859827399253845, 0.20830775797367096, -0.525146484375, -0.81982421875, 0.22119140625, 0, 
394, 1010038758, 0.016752326861023903, -0.6772454977035522, -0.0829235166311264, -0.730889081954956, 9.731006622314453, 0.8912799954414368, 0.6753571033477783, 0.42607998847961426, -0.3897205591201782, 0.20382526516914368, -0.525390625, -0.820068359375, 0.22314453125, 0, 
395, 1010047091, 0.01674758642911911, -0.67723548412323, -0.08289574831724167, -0.7309016585350037, 9.712159156799316, 0.9206495881080627, 0.7087966799736023, 0.3438839018344879, -0.5170745849609375, 0.17897945642471313, -0.525634765625, -0.820068359375, 0.220703125, 0, 
396, 1010055424, 0.016733938828110695, -0.6772343516349792, -0.08285894244909286, -0.7309072613716125, 9.703325271606445, 0.9183964133262634, 0.7219865322113037, 0.18330825865268707, -0.6760620474815369, 0.09404265135526657, -0.521240234375, -0.81982421875, 0.22216796875, 0, 
397, 1010063757, 0.016718147322535515, -0.6772292852401733, -0.08283562958240509, -0.7309149503707886, 9.713696479797363, 0.9271944165229797, 0.6957141160964966, 0.29106736183166504, -0.625755786895752, 0.03305517137050629, -0.525390625, -0.822021484375, 0.2236328125, 0, 
398, 1010072090, 0.016706611961126328, -0.6772217750549316, -0.0828235000371933, -0.7309234142303467, 9.706622123718262, 0.8981614112854004, 0.6768879294395447, 0.4509257972240448, -0.5899982452392578, -0.12136022746562958, -0.524658203125, -0.8193359375, 0.220703125, 0, 
399, 1010080423, 0.01670859009027481, -0.6772201061248779, -0.08282453566789627, -0.7309249043464661, 9.712101936340332, 0.8584913611412048, 0.6899846792221069, 0.7084769010543823, -0.7033668160438538, -0.010117622092366219, -0.52490234375, -0.819580078125, 0.222900390625, 0, 
400, 1010088756, 0.016716420650482178, -0.6772072315216064, -0.08282792568206787, -0.7309361696243286, 9.756585121154785, 0.885000467300415, 0.6461378931999207, 0.7848841547966003, -0.49327895045280457, -0.078277088701725, -0.52294921875, -0.8193359375, 0.22265625, 0, 
401, 1010097089, 0.016722654923796654, -0.6772003769874573, -0.08282863348722458, -0.7309423089027405, 9.720592498779297, 0.8906646370887756, 0.6493350267410278, 0.7410326600074768, -0.6011661291122437, 0.028931280598044395, -0.5244140625, -0.81982421875, 0.22314453125, 0, 
402, 1010105422, 0.016739623621106148, -0.6771978735923767, -0.08283942192792892, -0.7309430241584778, 9.727187156677246, 0.9552478790283203, 0.6448860168457031, 0.9531952738761902, -0.6859492063522339, -0.04021434485912323, -0.5234375, -0.818115234375, 0.219482421875, 0, 
403, 1010113755, 0.016752328723669052, -0.6772045493125916, -0.08284097164869308, -0.7309362888336182, 9.701858520507812, 0.9649184942245483, 0.661881148815155, 0.8200525045394897, -0.8500596880912781, 0.10472380369901657, -0.52783203125, -0.820068359375, 0.218994140625, 0, 
404, 1010122088, 0.016739988699555397, -0.6772140264511108, -0.08281726390123367, -0.7309305667877197, 9.706000328063965, 0.9650830030441284, 0.6857430338859558, 0.33909404277801514, -0.8927584886550903, 0.0012935188133269548, -0.5244140625, -0.82177734375, 0.220947265625, 0, 
405, 1010130421, 0.01670866273343563, -0.6772226095199585, -0.08279167115688324, -0.7309262752532959, 9.72632884979248, 0.9828721284866333, 0.6790122389793396, 0.1355120986700058, -0.8909398913383484, -0.08375854045152664, -0.52294921875, -0.8193359375, 0.220947265625, 0, 
406, 1010138754, 0.016704099252820015, -0.6772372722625732, -0.08276792615652084, -0.7309154272079468, 9.723337173461914, 0.9561344981193542, 0.7210922837257385, 0.4161160886287689, -0.9829207062721252, 0.0871780589222908, -0.52294921875, -0.819580078125, 0.223388671875, 0, 
407, 1010147087, 0.01668669655919075, -0.6772465705871582, -0.08274517208337784, -0.7309097647666931, 9.732531547546387, 0.9193264842033386, 0.6833898425102234, 0.2931164801120758, -0.896446943283081, 0.03136463090777397, -0.525390625, -0.82080078125, 0.22265625, 0, 
408, 1010155420, 0.01669149287045002, -0.6772597432136536, -0.08274118602275848, -0.7308979034423828, 9.731307029724121, 0.8841485977172852, 0.7215144038200378, 0.702893078327179, -0.9712662696838379, -0.003714064136147499, -0.523193359375, -0.820068359375, 0.221923828125, 0, 
409, 1010163753, 0.01671878807246685, -0.6772724986076355, -0.08276157826185226, -0.7308831214904785, 9.72998332977295, 0.8567031621932983, 0.6674103140830994, 1.153908371925354, -0.9742887020111084, 0.08418118953704834, -0.52490234375, -0.822021484375, 0.220703125, 0, 
410, 1010172086, 0.016772916540503502, -0.6772878766059875, -0.08280067145824432, -0.7308633327484131, 9.727068901062012, 0.8634610176086426, 0.6916648149490356, 1.6032590866088867, -1.0232118368148804, 0.09591250121593475, -0.523193359375, -0.820068359375, 0.221923828125, 0, 
411, 1010180419, 0.01683622971177101, -0.6772959232330322, -0.0828552395105362, -0.7308483123779297, 9.717639923095703, 0.8426810503005981, 0.6351830363273621, 1.8338385820388794, -0.8962677717208862, 0.12250006943941116, -0.525634765625, -0.820068359375, 0.218994140625, 0, 
412, 1010188752, 0.016867075115442276, -0.6773081421852112, -0.08288630098104477, -0.730832576751709, 9.710320472717285, 0.8585271239280701, 0.6073550581932068, 1.3007291555404663, -0.9763121604919434, -0.06790333241224289, -0.5263671875, -0.819091796875, 0.224853515625, 0, 
413, 1010197085, 0.0168627817183733, -0.6773062944412231, -0.08287723362445831, -0.7308354377746582, 9.732179641723633, 0.8709444403648376, 0.6341210007667542, 0.5465182065963745, -0.6927114129066467, 0.020529810339212418, -0.521240234375, -0.818115234375, 0.22216796875, 0, 
414, 1010205418, 0.016834450885653496, -0.677311897277832, -0.08284261077642441, -0.7308348417282104, 9.736207962036133, 0.9020736813545227, 0.6494138240814209, 0.0738842561841011, -0.8196811079978943, -0.06293416768312454, -0.523681640625, -0.8212890625, 0.221923828125, 0, 
415, 1010213751, 0.016791585832834244, -0.6773086190223694, -0.08278420567512512, -0.7308454513549805, 9.73292350769043, 0.9874141812324524, 0.6494781374931335, -0.3176933526992798, -0.6381274461746216, 0.09020053595304489, -0.526123046875, -0.820068359375, 0.22119140625, 0, 
416, 1010222084, 0.01674487441778183, -0.6773039102554321, -0.08270572125911713, -0.7308598160743713, 9.731385231018066, 1.0535351037979126, 0.6223331093788147, -0.5510390400886536, -0.5893834829330444, 0.14627008140087128, -0.52685546875, -0.82373046875, 0.2236328125, 0, 
417, 1010230417, 0.016679946333169937, -0.6772887706756592, -0.08262727409601212, -0.7308841943740845, 9.704891204833984, 1.0362681150436401, 0.6483265161514282, -0.7368959784507751, -0.4118000864982605, 0.03697415068745613, -0.525390625, -0.821533203125, 0.223388671875, 0, 
418, 1010238750, 0.016628824174404144, -0.6772715449333191, -0.08254778385162354, -0.7309104800224304, 9.70429801940918, 0.9637386798858643, 0.645908772945404, -0.614536702632904, -0.35491079092025757, 0.09657846391201019, -0.525390625, -0.820556640625, 0.22314453125, 0, 
419, 1010247083, 0.016579987481236458, -0.6772691607475281, -0.08247332274913788, -0.730922281742096, 9.729267120361328, 0.9575157761573792, 0.6666876673698425, -0.5361316204071045, -0.6390752196311951, 0.17795489728450775, -0.529541015625, -0.820556640625, 0.222412109375, 0, 
420, 1010255416, 0.016550539061427116, -0.6772676110267639, -0.0824178084731102, -0.7309305667877197, 9.759875297546387, 0.9639815092086792, 0.6590986847877502, -0.15222537517547607, -0.6628963947296143, 0.11315087974071503, -0.523193359375, -0.814697265625, 0.22265625, 0, 
421, 1010263749, 0.016552429646253586, -0.6772487759590149, -0.08238554000854492, -0.7309516072273254, 9.746256828308105, 0.9417862296104431, 0.6482406854629517, 0.35364291071891785, -0.3396703600883484, 0.2755963206291199, -0.5244140625, -0.823486328125, 0.221923828125, 0, 
422, 1010272082, 0.016578469425439835, -0.6772481203079224, -0.08236361294984818, -0.7309539914131165, 9.720270156860352, 0.8926178812980652, 0.6632329225540161, 0.7072218060493469, -0.6721175312995911, 0.35930368304252625, -0.525146484375, -0.81787109375, 0.2236328125, 0, 
423, 1010280415, 0.01659136265516281, -0.6772512197494507, -0.08234991133213043, -0.7309523224830627, 9.675300598144531, 0.8717459440231323, 0.6589555740356445, 0.6637032628059387, -0.7650204300880432, 0.24327121675014496, -0.52294921875, -0.821044921875, 0.220947265625, 0, 
424, 1010288748, 0.016603993251919746, -0.6772609353065491, -0.08233217149972916, -0.7309450507164001, 9.685843467712402, 0.8430412411689758, 0.6814370155334473, 0.6308401226997375, -0.8801307082176208, 0.20016242563724518, -0.527099609375, -0.8212890625, 0.218505859375, 0, 
425, 1010297081, 0.01660631038248539, -0.6772709488868713, -0.08232331275939941, -0.7309367060661316, 9.712366104125977, 0.8435061573982239, 0.6715446710586548, 0.61944180727005, -0.9089723825454712, 0.10141956061124802, -0.523193359375, -0.82080078125, 0.22021484375, 0, 
426, 1010305414, 0.01657678559422493, -0.67728191614151, -0.08228051662445068, -0.7309320569038391, 9.733467102050781, 0.8450654745101929, 0.6520889401435852, -0.014318356290459633, -0.9116874933242798, 0.009387616999447346, -0.525146484375, -0.817626953125, 0.222412109375, 0, 
427, 1010313747, 0.01654312200844288, -0.6772951483726501, -0.08223570883274078, -0.7309255599975586, 9.736713409423828, 0.8539779782295227, 0.6675032377243042, -0.0797371044754982, -0.9575625658035278, 0.0780593752861023, -0.526123046875, -0.8193359375, 0.21875, 0, 
428, 1010322080, 0.01653662510216236, -0.6773116588592529, -0.08221014589071274, -0.7309132814407349, 9.74915885925293, 0.8853357434272766, 0.7144330143928528, 0.37531256675720215, -1.0142468214035034, 0.09061035513877869, -0.5302734375, -0.821044921875, 0.2216796875, 0, 
429, 1010330413, 0.016523655503988266, -0.6773271560668945, -0.08219955116510391, -0.7309004068374634, 9.719926834106445, 0.9027817845344543, 0.6834613084793091, 0.4654490649700165, -1.0233142375946045, -0.02958444133400917, -0.52734375, -0.820556640625, 0.22265625, 0, 
430, 1010338746, 0.016498049721121788, -0.6773452162742615, -0.08216778188943863, -0.730887770652771, 9.698820114135742, 0.9191261529922485, 0.6399577856063843, 0.13400086760520935, -1.0555626153945923, -0.043108757585287094, -0.52490234375, -0.820068359375, 0.22314453125, 0, 
431, 1010347079, 0.01647685468196869, -0.677363395690918, -0.08215516060590744, -0.7308728694915771, 9.719869613647461, 0.9174665808677673, 0.6897844076156616, 0.36985671520233154, -1.0777188539505005, -0.08949613571166992, -0.525390625, -0.818603515625, 0.221435546875, 0, 
432, 1010355412, 0.01646675355732441, -0.6773782968521118, -0.08215209096670151, -0.7308595776557922, 9.7086820602417, 0.893182635307312, 0.692194938659668, 0.5733362436294556, -1.0176022052764893, -0.1573994904756546, -0.523681640625, -0.81982421875, 0.21875, 0, 
433, 1010363745, 0.016460807994008064, -0.677384078502655, -0.0821613222360611, -0.730853259563446, 9.741621017456055, 0.8843774795532227, 0.6816588044166565, 0.7237942218780518, -0.8607407212257385, -0.15583699941635132, -0.52197265625, -0.818359375, 0.220458984375, 0, 
434, 1010372078, 0.016477210447192192, -0.6773895621299744, -0.08218129724264145, -0.7308456301689148, 9.71692943572998, 0.8818027973175049, 0.6532620787620544, 1.046712875366211, -0.8447318077087402, -0.11564826965332031, -0.524169921875, -0.818115234375, 0.220947265625, 0, 
435, 1010380411, 0.01651027612388134, -0.6773861646652222, -0.08221106231212616, -0.7308446764945984, 9.718417167663574, 0.8939476013183594, 0.6607652306556702, 1.289305329322815, -0.6800323724746704, 0.03346499428153038, -0.525634765625, -0.817626953125, 0.223388671875, 0, 
436, 1010388744, 0.016532421112060547, -0.6773846745491028, -0.0822194367647171, -0.7308447360992432, 9.698847770690918, 0.8769957423210144, 0.6895769834518433, 0.9778873920440674, -0.6960412263870239, 0.03866468742489815, -0.52734375, -0.81982421875, 0.222412109375, 0, 
437, 1010397077, 0.01650886796414852, -0.6773731112480164, -0.082200787961483, -0.7308580875396729, 9.722989082336426, 0.9350485801696777, 0.6515955328941345, 0.2607657015323639, -0.5173563957214355, -0.09759023040533066, -0.5263671875, -0.82080078125, 0.22021484375, 0, 
