PacketCounter,SampleTimeFine,Quat_W,Quat_X,Quat_Y,Quat_Z,Acc_X,Acc_Y,Acc_Z,Gyr_X,Gyr_Y,Gyr_Z,Mag_X,Mag_Y,Mag_Z,Status,
0, 1031112915, -0.029165778309106827, -0.6712824106216431, -0.1301777958869934, -0.7291093468666077, 0, 0, 0, 0, 0, 0, -0.446533203125, -0.920166015625, 0.26953125, 0, 
1, 1031121248, -0.029270650818943977, -0.6713053584098816, -0.13032864034175873, -0.7290570139884949, 9.509902954101562, 2.565904378890991, 0.44963347911834717, 1.324908971786499, -1.5775036811828613, -2.4561233520507812, -0.447265625, -0.9189453125, 0.267333984375, 0, 
2, 1031129581, -0.029460662975907326, -0.6713371276855469, -0.13039980828762054, -0.7290074825286865, 9.519904136657715, 2.4474666118621826, 0.5208328366279602, -0.2593953609466553, -1.821914792060852, -2.544466733932495, -0.448974609375, -0.921142578125, 0.269287109375, 0, 
3, 1031137914, -0.029634224250912666, -0.6713571548461914, -0.13045375049114227, -0.7289724349975586, 9.48071002960205, 2.3094687461853027, 0.564724326133728, -0.3134286105632782, -1.5512365102767944, -2.248763084411621, -0.445068359375, -0.920166015625, 0.2705078125, 0, 
4, 1031146247, -0.029725786298513412, -0.6713849902153015, -0.13054721057415009, -0.7289263010025024, 9.455832481384277, 2.2477200031280518, 0.6637442111968994, 0.8668754696846008, -1.5662848949432373, -1.7696874141693115, -0.4482421875, -0.920166015625, 0.26806640625, 0, 
5, 1031154580, -0.02972242422401905, -0.6714282035827637, -0.13070207834243774, -0.7288587689399719, 9.497806549072266, 2.2277238368988037, 0.5743399858474731, 2.404062271118164, -1.7212767601013184, -1.3783531188964844, -0.44580078125, -0.919677734375, 0.26611328125, 0, 
6, 1031162913, -0.02966414764523506, -0.6714815497398376, -0.1309044361114502, -0.7287756204605103, 9.5564546585083, 2.1901843547821045, 0.567185640335083, 3.417105197906494, -1.850679636001587, -1.2431100606918335, -0.44580078125, -0.9228515625, 0.2705078125, 0, 
7, 1031171246, -0.029611758887767792, -0.6715381145477295, -0.13108977675437927, -0.728692352771759, 9.572955131530762, 2.12847900390625, 0.6282488107681274, 3.1920459270477295, -1.9015878438949585, -1.1509116888046265, -0.44921875, -0.918701171875, 0.269775390625, 0, 
8, 1031179579, -0.02955411933362484, -0.671572208404541, -0.13124969601631165, -0.7286345362663269, 9.569768905639648, 2.221761465072632, 0.6838682889938354, 2.933406114578247, -1.4412617683410645, -0.8799000978469849, -0.446533203125, -0.9208984375, 0.270263671875, 0, 
9, 1031187912, -0.029460018500685692, -0.6715798377990723, -0.13144657015800476, -0.7285957336425781, 9.527777671813965, 2.3370556831359863, 0.6088179349899292, 3.59171724319458, -0.9212927222251892, -0.9098688364028931, -0.447509765625, -0.921630859375, 0.267578125, 0, 
10, 1031196245, -0.029372025281190872, -0.6715797781944275, -0.13163095712661743, -0.72856605052948, 9.469676971435547, 2.412085771560669, 0.6415143013000488, 3.3936944007873535, -0.7734475135803223, -0.8534919619560242, -0.44775390625, -0.92236328125, 0.26708984375, 0, 
11, 1031204578, -0.029380572959780693, -0.6715734004974365, -0.1317104995250702, -0.728557288646698, 9.474431991577148, 2.6083037853240967, 0.7251450419425964, 1.4063878059387207, -0.7378692626953125, -0.8674516677856445, -0.44775390625, -0.922119140625, 0.269287109375, 0, 
12, 1031212911, -0.029358886182308197, -0.6715375185012817, -0.13179928064346313, -0.7285751104354858, 9.423844337463379, 2.6382572650909424, 0.48532363772392273, 1.7230055332183838, -0.13460280001163483, -0.6801347732543945, -0.448486328125, -0.921142578125, 0.26953125, 0, 
13, 1031221244, -0.029284952208399773, -0.6715025305747986, -0.1319447159767151, -0.7285841107368469, 9.433008193969727, 2.449341297149658, 0.39712223410606384, 2.7893004417419434, -0.11065348982810974, -0.6942481994628906, -0.44775390625, -0.919677734375, 0.2685546875, 0, 
14, 1031229577, -0.02934333123266697, -0.671467661857605, -0.13202743232250214, -0.7285988330841064, 9.472550392150879, 2.211946964263916, 0.5826390981674194, 0.9292716979980469, -0.3221246004104614, -1.4265079498291016, -0.444091796875, -0.922607421875, 0.26904296875, 0, 
15, 1031237910, -0.029447639361023903, -0.6714121699333191, -0.13207709789276123, -0.7286368608474731, 9.521893501281738, 2.1590142250061035, 0.5977702140808105, 0.12093761563301086, 0.003086515236645937, -1.6202795505523682, -0.447265625, -0.92333984375, 0.2724609375, 0, 
16, 1031246243, -0.029474399983882904, -0.6713533401489258, -0.1321527361869812, -0.7286762595176697, 9.476816177368164, 2.0987157821655273, 0.6393000483512878, 1.0946370363235474, 0.19867680966854095, -1.0774627923965454, -0.447021484375, -0.92236328125, 0.270751953125, 0, 
17, 1031254576, -0.029506970196962357, -0.6713036298751831, -0.13218916952610016, -0.7287139892578125, 9.455872535705566, 2.098050355911255, 0.7282023429870605, 0.6546870470046997, 0.0682235136628151, -0.7693235278129578, -0.442626953125, -0.91748046875, 0.270751953125, 0, 
18, 1031262909, -0.029584920033812523, -0.6712619066238403, -0.13214802742004395, -0.7287566661834717, 9.458248138427734, 2.3615753650665283, 0.8058826327323914, -0.5465822219848633, -0.08076168596744537, -0.4798571467399597, -0.448974609375, -0.919921875, 0.271728515625, 0, 
19, 1031271242, -0.029631245881319046, -0.6712263822555542, -0.13210639357566833, -0.7287951707839966, 9.473103523254395, 2.608842134475708, 0.584744930267334, -0.25068655610084534, -0.12696976959705353, -0.16003775596618652, -0.44677734375, -0.92236328125, 0.26953125, 0, 
20, 1031279575, -0.029582561925053596, -0.671229362487793, -0.13217793405056, -0.7287814021110535, 9.487201690673828, 2.576601266860962, 0.3598281145095825, 1.871939778327942, -0.7742798924446106, -0.1931697577238083, -0.44580078125, -0.920654296875, 0.2744140625, 0, 
21, 1031287908, -0.029472138732671738, -0.6712830066680908, -0.1323433667421341, -0.7287063598632812, 9.534270286560059, 2.425014019012451, 0.3566400706768036, 3.5147080421447754, -1.6978265047073364, -0.38450801372528076, -0.448486328125, -0.9228515625, 0.272705078125, 0, 
22, 1031296241, -0.029378898441791534, -0.6713078618049622, -0.1324683129787445, -0.7286645770072937, 9.525495529174805, 2.2166545391082764, 0.6006629467010498, 2.879155397415161, -1.147876501083374, -0.21047218143939972, -0.448486328125, -0.924072265625, 0.271240234375, 0, 
23, 1031304574, -0.029330912977457047, -0.6713352203369141, -0.13250578939914703, -0.7286344766616821, 9.443696975708008, 2.0852043628692627, 0.8183659911155701, 1.5655547380447388, -1.18496572971344, 0.14235109090805054, -0.445556640625, -0.9208984375, 0.27392578125, 0, 
24, 1031312907, -0.029180236160755157, -0.6713603138923645, -0.132648766040802, -0.7285914421081543, 9.423952102661133, 2.0257797241210938, 0.8343276977539062, 3.59179425239563, -1.051182508468628, 0.1973704844713211, -0.447021484375, -0.9208984375, 0.273193359375, 0, 
25, 1031321240, -0.02894221432507038, -0.6714093089103699, -0.13290727138519287, -0.7285087704658508, 9.419461250305176, 1.9948843717575073, 0.7537839412689209, 5.6398701667785645, -1.4508544206619263, 0.023385796695947647, -0.44775390625, -0.92138671875, 0.276611328125, 0, 
26, 1031329573, -0.028724031522870064, -0.6714511513710022, -0.13316962122917175, -0.7284308671951294, 9.495796203613281, 1.994528889656067, 0.6742589473724365, 5.481395244598389, -1.3707586526870728, -0.20994706451892853, -0.446044921875, -0.92041015625, 0.275390625, 0, 
27, 1031337906, -0.028562184423208237, -0.6714855432510376, -0.13339385390281677, -0.7283645272254944, 9.580230712890625, 2.0118765830993652, 0.7453509569168091, 4.553775787353516, -1.3083367347717285, -0.4443429708480835, -0.449462890625, -0.919921875, 0.274658203125, 0, 
28, 1031346239, -0.028426306322216988, -0.671514093875885, -0.13360847532749176, -0.7283042669296265, 9.596222877502441, 2.0930864810943604, 0.8015561103820801, 4.206152439117432, -1.2445956468582153, -0.6118728518486023, -0.4501953125, -0.918701171875, 0.275146484375, 0, 
29, 1031354572, -0.02825072593986988, -0.6715313196182251, -0.13386407494544983, -0.7282482385635376, 9.575087547302246, 2.162381649017334, 0.6800963878631592, 4.969379425048828, -1.0030021667480469, -0.6246799230575562, -0.447021484375, -0.920166015625, 0.275634765625, 0, 
30, 1031362905, -0.028095237910747528, -0.6715471148490906, -0.13410313427448273, -0.72819584608078, 9.488563537597656, 2.2028043270111084, 0.683338463306427, 4.612457752227783, -0.9986606240272522, -0.6606808304786682, -0.44873046875, -0.922119140625, 0.273681640625, 0, 
31, 1031371238, -0.028049185872077942, -0.6715659499168396, -0.13427133858203888, -0.728148877620697, 9.500142097473145, 2.29535174369812, 0.6909948587417603, 2.8802695274353027, -1.2096961736679077, -1.1089555025100708, -0.448486328125, -0.91845703125, 0.279052734375, 0, 
32, 1031379571, -0.028074927628040314, -0.6715821623802185, -0.13439026474952698, -0.7281110286712646, 9.494070053100586, 2.3686704635620117, 0.6427412033081055, 1.709340214729309, -1.248040795326233, -1.3602056503295898, -0.448974609375, -0.922119140625, 0.275390625, 0, 
33, 1031387904, -0.028142547234892845, -0.6715874075889587, -0.13446980714797974, -0.7280889749526978, 9.525235176086426, 2.402233123779297, 0.6499119997024536, 0.8945387005805969, -1.0861459970474243, -1.4419533014297485, -0.44482421875, -0.924072265625, 0.279052734375, 0, 
34, 1031396237, -0.028240753337740898, -0.6715866923332214, -0.13448458909988403, -0.7280831336975098, 9.503059387207031, 2.407031774520874, 0.6063894033432007, -0.0689535140991211, -0.9565891623497009, -1.143368124961853, -0.44921875, -0.92041015625, 0.27587890625, 0, 
35, 1031404570, -0.028311394155025482, -0.6716046333312988, -0.13452067971229553, -0.7280571460723877, 9.498845100402832, 2.2932498455047607, 0.47668343782424927, 0.4421529173851013, -1.2739111185073853, -1.0487619638442993, -0.44580078125, -0.923583984375, 0.275146484375, 0, 
36, 1031412903, -0.028293926268815994, -0.6716622114181519, -0.13467755913734436, -0.7279756665229797, 9.46098518371582, 2.1340417861938477, 0.44714808464050293, 2.58530855178833, -1.9702467918395996, -1.2189302444458008, -0.450439453125, -0.923828125, 0.275390625, 0, 
37, 1031421236, -0.028218254446983337, -0.6717349290847778, -0.13490734994411469, -0.7278689742088318, 9.487114906311035, 2.122974157333374, 0.6307134032249451, 3.905569314956665, -2.2210617065429688, -1.303892731666565, -0.444580078125, -0.921875, 0.27392578125, 0, 
38, 1031429569, -0.028182502835989, -0.6718128323554993, -0.13506655395030975, -0.7277688980102539, 9.48010540008545, 2.148224115371704, 0.766883909702301, 2.819397211074829, -2.31019926071167, -1.0265929698944092, -0.446533203125, -0.919189453125, 0.2802734375, 0, 
39, 1031437902, -0.028101323172450066, -0.6718651652336121, -0.13523204624652863, -0.7276931405067444, 9.43425464630127, 2.185983419418335, 0.6797390580177307, 3.2441325187683105, -1.7461222410202026, -0.6807751059532166, -0.4462890625, -0.92333984375, 0.2802734375, 0, 
40, 1031446235, -0.027912922203540802, -0.6719288229942322, -0.1355416476726532, -0.7275841236114502, 9.429071426391602, 2.211168050765991, 0.6276311874389648, 5.745965480804443, -1.9090933799743652, -0.9189748764038086, -0.44775390625, -0.919921875, 0.279052734375, 0, 
41, 1031454568, -0.02769811823964119, -0.6719949841499329, -0.1359243541955948, -0.7274596691131592, 9.466724395751953, 2.20047664642334, 0.6323750019073486, 6.75056791305542, -2.000523090362549, -1.3437228202819824, -0.447265625, -0.922119140625, 0.27685546875, 0, 
42, 1031462901, -0.027582364156842232, -0.6720240712165833, -0.13622039556503296, -0.7273818254470825, 9.489285469055176, 2.24247145652771, 0.7060107588768005, 4.869637489318848, -1.4166464805603027, -1.5733287334442139, -0.4501953125, -0.921875, 0.28369140625, 0, 
43, 1031471234, -0.027473006397485733, -0.6720197796821594, -0.13651026785373688, -0.7273356914520264, 9.451096534729004, 2.2639710903167725, 0.5682039260864258, 4.673176288604736, -0.8054652810096741, -1.6426151990890503, -0.447509765625, -0.9228515625, 0.281982421875, 0, 
44, 1031479567, -0.02740505151450634, -0.6720245480537415, -0.13683339953422546, -0.7272732853889465, 9.414599418640137, 2.213921308517456, 0.5534005761146545, 4.659267902374268, -1.1082255840301514, -2.3414742946624756, -0.44775390625, -0.92529296875, 0.281005859375, 0, 
45, 1031487900, -0.02749648317694664, -0.6720322966575623, -0.13705042004585266, -0.7272214293479919, 9.449014663696289, 2.3824424743652344, 0.6619442701339722, 2.1036970615386963, -1.3844366073608398, -2.9563052654266357, -0.4482421875, -0.921875, 0.2822265625, 0, 
46, 1031496233, -0.027740348130464554, -0.6720259189605713, -0.1371014565229416, -0.7272084355354309, 9.487831115722656, 2.699587345123291, 0.6953847408294678, -1.0408473014831543, -1.2308794260025024, -2.9473659992218018, -0.447998046875, -0.925048828125, 0.281982421875, 0, 
47, 1031504566, -0.028103379532694817, -0.6719903945922852, -0.13695475459098816, -0.7272549867630005, 9.51436996459961, 2.972665548324585, 0.7298139929771423, -4.244240760803223, -0.6940049529075623, -2.356548309326172, -0.4443359375, -0.9248046875, 0.279296875, 0, 
48, 1031512899, -0.028609052300453186, -0.671940803527832, -0.13666068017482758, -0.7273364663124084, 9.508978843688965, 3.113891124725342, 0.6499608159065247, -7.106362819671631, -0.5531138181686401, -2.4211089611053467, -0.44677734375, -0.925048828125, 0.2783203125, 0, 
49, 1031521232, -0.029185660183429718, -0.6719122529029846, -0.13629475235939026, -0.7274087071418762, 9.534454345703125, 2.9712893962860107, 0.5025393962860107, -8.453210830688477, -1.0099180936813354, -2.442624807357788, -0.4462890625, -0.921875, 0.277587890625, 0, 
50, 1031529565, -0.02985065057873726, -0.6718791723251343, -0.1358402818441391, -0.727497398853302, 9.581476211547852, 2.527047872543335, 0.38285091519355774, -10.189165115356445, -1.013837218284607, -2.498720407485962, -0.444580078125, -0.92333984375, 0.280517578125, 0, 
51, 1031537898, -0.030541473999619484, -0.6718247532844543, -0.13532063364982605, -0.727615475654602, 9.565499305725098, 2.119331121444702, 0.4274289309978485, -11.148903846740723, -0.6050594449043274, -2.193603277206421, -0.44384765625, -0.921875, 0.278564453125, 0, 
52, 1031546231, -0.031162898987531662, -0.6717572212219238, -0.13486464321613312, -0.727736234664917, 9.509370803833008, 1.8567241430282593, 0.5549125671386719, -9.876209259033203, -0.2911314368247986, -2.0995991230010986, -0.4453125, -0.925537109375, 0.2763671875, 0, 
53, 1031554564, -0.03163159638643265, -0.6716804504394531, -0.13459350168704987, -0.7278369665145874, 9.467809677124023, 1.7235504388809204, 0.6046860218048096, -6.579118728637695, -0.023027196526527405, -2.31475830078125, -0.4443359375, -0.922607421875, 0.278564453125, 0, 
54, 1031562897, -0.03194001317024231, -0.6716339588165283, -0.13453811407089233, -0.727876603603363, 9.439604759216309, 1.665206789970398, 0.6443279981613159, -2.817206859588623, -0.4967624247074127, -2.663419008255005, -0.446044921875, -0.924072265625, 0.274169921875, 0, 
55, 1031571230, -0.032194945961236954, -0.6716545224189758, -0.13459578156471252, -0.7278358340263367, 9.476698875427246, 1.6787643432617188, 0.8125452399253845, -1.0152456760406494, -1.7671257257461548, -3.0952236652374268, -0.445068359375, -0.925048828125, 0.277587890625, 0, 
56, 1031579563, -0.032449401915073395, -0.6716811060905457, -0.13468973338603973, -0.727782666683197, 9.646042823791504, 1.6752492189407349, 0.9535055756568909, -0.6197106838226318, -1.9222967624664307, -3.409791946411133, -0.443359375, -0.923583984375, 0.27392578125, 0, 
57, 1031587896, -0.032748691737651825, -0.6717208623886108, -0.1347043812274933, -0.7277299165725708, 9.632890701293945, 1.5857152938842773, 1.0741651058197021, -1.819763422012329, -2.1678097248077393, -3.112257719039917, -0.442626953125, -0.92578125, 0.277099609375, 0, 
58, 1031596229, -0.03312857449054718, -0.6717567443847656, -0.13467556238174438, -0.7276849150657654, 9.76671028137207, 1.5296868085861206, 1.0703717470169067, -3.0165884494781494, -2.227260112762451, -3.509124755859375, -0.441650390625, -0.92626953125, 0.27685546875, 0, 
59, 1031604562, -0.033721815794706345, -0.6716426610946655, -0.13450239598751068, -0.7277949452400208, 9.86144733428955, 1.462026596069336, 1.0011345148086548, -6.785979270935059, 0.24493610858917236, -4.531003952026367, -0.44384765625, -0.92529296875, 0.27490234375, 0, 
60, 1031612895, -0.034589361399412155, -0.6714103817939758, -0.13415995240211487, -0.7280317544937134, 9.79295539855957, 1.420630931854248, 0.8603613972663879, -11.305817604064941, 2.0134713649749756, -5.859129428863525, -0.444091796875, -0.929931640625, 0.275146484375, 0, 
61, 1031621228, -0.03531161695718765, -0.6711599826812744, -0.13406792283058167, -0.7282447218894958, 9.692033767700195, 1.5254980325698853, 0.9300263524055481, -7.422468185424805, 2.3581621646881104, -6.77724552154541, -0.43798828125, -0.928466796875, 0.27587890625, 0, 
62, 1031629561, -0.03570865839719772, -0.6709551811218262, -0.134395033121109, -0.72835373878479, 9.617816925048828, 1.5912179946899414, 1.0968767404556274, -0.0085551543161273, 1.7478002309799194, -7.339606285095215, -0.4404296875, -0.930908203125, 0.273193359375, 0, 
63, 1031637894, -0.03612525761127472, -0.6708168387413025, -0.13487094640731812, -0.7283729314804077, 9.505475997924805, 1.5652750730514526, 0.9005800485610962, 1.497215986251831, 0.29014524817466736, -8.845722198486328, -0.440673828125, -0.932373046875, 0.2724609375, 0, 
64, 1031646227, -0.03671351820230484, -0.6707459092140198, -0.13543656468391418, -0.7283037304878235, 9.57024097442627, 1.5817666053771973, 0.6587686538696289, 1.0114678144454956, -1.4729465246200562, -11.294648170471191, -0.435302734375, -0.93212890625, 0.2744140625, 0, 
65, 1031654560, -0.037235014140605927, -0.6706718802452087, -0.13634347915649414, -0.7281761169433594, 9.829257011413574, 1.4295446872711182, 0.9957942962646484, 5.150883197784424, -1.6891825199127197, -13.828591346740723, -0.436279296875, -0.9306640625, 0.2734375, 0, 
66, 1031662893, -0.03751743584871292, -0.6705840826034546, -0.1377541571855545, -0.72797691822052, 9.922983169555664, 1.0066940784454346, 1.5782966613769531, 12.53011703491211, -1.4996626377105713, -16.123807907104492, -0.435791015625, -0.931640625, 0.2783203125, 0, 
67, 1031671226, -0.03760657459497452, -0.670518159866333, -0.13954128324985504, -0.7276926040649414, 9.889620780944824, 0.44902366399765015, 1.8074058294296265, 18.253522872924805, -1.9459145069122314, -17.681673049926758, -0.4345703125, -0.937744140625, 0.28076171875, 0, 
68, 1031679559, -0.037842269986867905, -0.6704124808311462, -0.14128218591213226, -0.727441668510437, 9.879647254943848, 0.29124346375465393, 1.1548259258270264, 16.35506820678711, -1.5423874855041504, -18.763202667236328, -0.43115234375, -0.935546875, 0.281005859375, 0, 
69, 1031687892, -0.03841352462768555, -0.6701604723930359, -0.142782524228096, -0.7273510694503784, 10.22783374786377, 0.284079909324646, 0.5618118047714233, 10.46796703338623, 0.616240382194519, -20.123884201049805, -0.429931640625, -0.93603515625, 0.28076171875, 0, 
70, 1031696225, -0.038867488503456116, -0.6699017882347107, -0.14448276162147522, -0.7272294759750366, 10.58596134185791, 0.4551728069782257, 1.101011037826538, 13.604368209838867, 0.740021288394928, -20.802547454833984, -0.4267578125, -0.940185546875, 0.287109375, 0, 
71, 1031704558, -0.0393543615937233, -0.6696455478668213, -0.14615358412265778, -0.727105438709259, 11.054250717163086, 0.42220693826675415, 1.7848750352859497, 13.01414966583252, 0.6033307909965515, -20.878917694091797, -0.4287109375, -0.9423828125, 0.290283203125, 0, 
72, 1031712891, -0.04045092687010765, -0.6692098379135132, -0.14757947623729706, -0.7271583676338196, 11.588403701782227, 0.9525507092475891, 1.264591097831726, 4.496773719787598, 2.677572727203369, -24.96236801147461, -0.426513671875, -0.943603515625, 0.289794921875, 0, 
73, 1031721224, -0.04153130203485489, -0.6687309741973877, -0.14961011707782745, -0.7271231412887573, 11.883365631103516, 1.6853524446487427, 1.0627391338348389, 10.850186347961426, 2.6590030193328857, -30.52939796447754, -0.423583984375, -0.94482421875, 0.2919921875, 0, 
74, 1031729557, -0.042507387697696686, -0.6683722138404846, -0.15208637714385986, -0.7268827557563782, 11.924356460571289, 1.907401442527771, 1.560860514640808, 16.753021240234375, 0.04670760780572891, -33.42612838745117, -0.420166015625, -0.950439453125, 0.290771484375, 0, 
75, 1031737890, -0.04394279420375824, -0.667995274066925, -0.1544230729341507, -0.7266512513160706, 11.963236808776855, 1.976701259613037, 1.5023236274719238, 11.110431671142578, -0.7388435006141663, -36.79901885986328, -0.4140625, -0.953369140625, 0.29736328125, 0, 
76, 1031746223, -0.04541851952672005, -0.667579174041748, -0.15701289474964142, -0.7263879179954529, 11.500974655151367, 1.3081941604614258, 2.0018439292907715, 13.30977725982666, -0.5641287565231323, -39.59810256958008, -0.41064453125, -0.95751953125, 0.295654296875, 0, 
77, 1031754556, -0.047223180532455444, -0.6674050688743591, -0.15959103405475616, -0.7258709073066711, 11.254364013671875, 0.13523942232131958, 2.8809657096862793, 10.872428894042969, -6.038847923278809, -42.44690704345703, -0.406494140625, -0.9619140625, 0.30078125, 0, 
78, 1031762889, -0.04952654987573624, -0.6672228574752808, -0.16206158697605133, -0.7253373265266418, 11.746980667114258, -0.4933518171310425, 3.1430106163024902, 5.252682685852051, -7.263008117675781, -46.430782318115234, -0.4033203125, -0.9638671875, 0.3037109375, 0, 
79, 1031771222, -0.05175231397151947, -0.6670244336128235, -0.16502833366394043, -0.7246951460838318, 12.10927963256836, -0.7728066444396973, 3.154271125793457, 11.147252082824707, -7.598813533782959, -50.35919189453125, -0.400146484375, -0.968505859375, 0.31298828125, 0, 
80, 1031779555, -0.0539092943072319, -0.667080819606781, -0.16852599382400513, -0.723680317401886, 12.633245468139648, -0.9854339957237244, 3.1510496139526367, 18.093975067138672, -13.010188102722168, -54.19203567504883, -0.396728515625, -0.9736328125, 0.3115234375, 0, 
81, 1031787888, -0.05600655823945999, -0.6674409508705139, -0.1725972443819046, -0.7222281694412231, 13.39397144317627, -1.0268924236297607, 3.5617573261260986, 25.5850830078125, -19.501922607421875, -58.52287292480469, -0.38818359375, -0.975830078125, 0.319091796875, 0, 
82, 1031796221, -0.05790102481842041, -0.6681365966796875, -0.17742028832435608, -0.720264196395874, 14.146846771240234, -1.4207143783569336, 3.1717793941497803, 36.3907585144043, -26.45157814025879, -62.963687896728516, -0.38427734375, -0.98046875, 0.328125, 0, 
83, 1031804554, -0.05972114950418472, -0.6690247058868408, -0.18279238045215607, -0.7179440855979919, 14.967443466186523, -2.283690929412842, 2.771000862121582, 43.53551483154297, -31.031654357910156, -67.13871002197266, -0.37744140625, -0.98291015625, 0.34228515625, 0, 
84, 1031812887, -0.06203896552324295, -0.6699416041374207, -0.18797434866428375, -0.7155505418777466, 14.974031448364258, -2.721222162246704, 4.120286464691162, 37.28529739379883, -33.37954330444336, -70.23707580566406, -0.37353515625, -0.98779296875, 0.351318359375, 0, 
85, 1031821220, -0.06436590850353241, -0.6707395911216736, -0.19335052371025085, -0.7131609916687012, 14.420795440673828, -1.930001974105835, 4.226644515991211, 39.006778717041016, -32.05303955078125, -72.48223114013672, -0.369140625, -0.992431640625, 0.362060546875, 0, 
86, 1031829553, -0.06650970876216888, -0.6716176271438599, -0.1991613656282425, -0.7105340361595154, 13.64612102508545, -0.7544169425964355, 3.4019205570220947, 45.65584182739258, -34.132564544677734, -74.63124084472656, -0.361572265625, -0.995361328125, 0.375244140625, 0, 
87, 1031837886, -0.06916873902082443, -0.6725097894668579, -0.2049943506717682, -0.7077717781066895, 13.749573707580566, 0.6500926613807678, 2.1358728408813477, 41.495758056640625, -36.94318771362305, -80.02777099609375, -0.357666015625, -1.001220703125, 0.38232421875, 0, 
88, 1031846219, -0.07269278168678284, -0.6734106540679932, -0.211146280169487, -0.7047470211982727, 14.293745040893555, 3.3999297618865967, 1.2592803239822388, 37.34998321533203, -41.55889129638672, -91.55044555664062, -0.349365234375, -1.005615234375, 0.3955078125, 0, 
89, 1031854552, -0.07714677602052689, -0.6745629906654358, -0.21810023486614227, -0.701043963432312, 14.313405990600586, 6.3951263427734375, -1.1213443279266357, 38.73213577270508, -52.212825775146484, -108.01585388183594, -0.339111328125, -1.010498046875, 0.40576171875, 0, 
90, 1031862885, -0.08313342183828354, -0.6763231158256531, -0.22556950151920319, -0.6962842345237732, 14.64160442352295, 8.572503089904785, -1.8510397672653198, 33.297061920166016, -71.88737487792969, -126.79061889648438, -0.3310546875, -1.015380859375, 0.428466796875, 0, 
91, 1031871218, -0.09029592573642731, -0.6787874698638916, -0.2334108054637909, -0.6903845071792603, 14.572395324707031, 9.04726791381836, -2.6388473510742188, 30.264339447021484, -92.493408203125, -140.7121124267578, -0.316650390625, -1.02294921875, 0.443115234375, 0, 
92, 1031879551, -0.09909054636955261, -0.6812638640403748, -0.24009160697460175, -0.6844222545623779, 13.933747291564941, 8.854551315307617, -1.2955385446548462, 4.227002143859863, -99.83307647705078, -145.3309326171875, -0.3046875, -1.02880859375, 0.46435546875, 0, 
93, 1031887884, -0.10755601525306702, -0.6837077736854553, -0.2470405250787735, -0.6782063245773315, 13.422698974609375, 9.507587432861328, -2.8512415885925293, 10.627216339111328, -100.4881820678711, -145.27777099609375, -0.2900390625, -1.03662109375, 0.48095703125, 0, 
94, 1031896217, -0.11647041141986847, -0.6862953901290894, -0.25389644503593445, -0.6715558767318726, 12.784866333007812, 10.150066375732422, -3.9263412952423096, 7.228257656097412, -107.54033660888672, -148.66575622558594, -0.27734375, -1.043701171875, 0.5, 0, 
95, 1031904550, -0.1260107308626175, -0.6889071464538574, -0.26041164994239807, -0.6646286845207214, 12.00409984588623, 10.34996509552002, -3.091543197631836, -0.8240360021591187, -113.1401138305664, -151.66493225097656, -0.261474609375, -1.047607421875, 0.5185546875, 0, 
96, 1031912883, -0.13603255152702332, -0.6914768815040588, -0.26651182770729065, -0.6575284600257874, 11.68151569366455, 10.379770278930664, -3.263181447982788, -8.628640174865723, -116.80529022216797, -152.50978088378906, -0.23779296875, -1.052734375, 0.53125, 0, 
97, 1031921216, -0.14654932916164398, -0.6938427686691284, -0.27225568890571594, -0.6503841280937195, 12.049208641052246, 10.264366149902344, -3.3937292098999023, -16.78162384033203, -117.8922119140625, -154.4962615966797, -0.225830078125, -1.0595703125, 0.54931640625, 0, 
98, 1031929549, -0.1570344865322113, -0.6959844827651978, -0.27795839309692383, -0.6431968212127686, 11.916102409362793, 9.288232803344727, -3.0317859649658203, -17.134136199951172, -116.23173522949219, -154.67691040039062, -0.203857421875, -1.0634765625, 0.564697265625, 0, 
99, 1031937882, -0.1673828810453415, -0.6978701949119568, -0.2835651934146881, -0.6360569596290588, 11.06232738494873, 8.363367080688477, -2.8900210857391357, -17.414655685424805, -113.22570037841797, -153.4927215576172, -0.19091796875, -1.0673828125, 0.58203125, 0, 
100, 1031946215, -0.1771795004606247, -0.6996172070503235, -0.28943967819213867, -0.6287968754768372, 10.004199981689453, 7.91807222366333, -3.110772132873535, -9.623196601867676, -110.37046813964844, -151.98614501953125, -0.164794921875, -1.07373046875, 0.59326171875, 0, 
101, 1031954548, -0.1863403618335724, -0.7013619542121887, -0.29563698172569275, -0.62127685546875, 9.27800464630127, 7.718238830566406, -3.678257703781128, 0.30896833539009094, -109.56077575683594, -150.30186462402344, -0.143310546875, -1.072265625, 0.608154296875, 0, 
102, 1031962881, -0.19491229951381683, -0.7031471729278564, -0.30199673771858215, -0.6135216355323792, 8.679337501525879, 7.812234878540039, -3.1192290782928467, 8.443624496459961, -109.33880615234375, -147.20960998535156, -0.125, -1.0791015625, 0.6240234375, 0, 
103, 1031971214, -0.2029048502445221, -0.7049378752708435, -0.3082372546195984, -0.6057222485542297, 8.16257381439209, 8.014310836791992, -2.6542837619781494, 13.229035377502441, -107.74610900878906, -141.3289337158203, -0.107177734375, -1.08056640625, 0.64306640625, 0, 
104, 1031979547, -0.21021172404289246, -0.7067470550537109, -0.31420889496803284, -0.5980047583580017, 7.499963283538818, 8.28787612915039, -2.7261335849761963, 17.350305557250977, -104.92898559570312, -132.63807678222656, -0.0908203125, -1.079833984375, 0.654296875, 0, 
105, 1031987880, -0.2171555906534195, -0.7085798978805542, -0.3196799159049988, -0.5904066562652588, 6.941996097564697, 8.35505485534668, -2.4857068061828613, 16.304418563842773, -103.86244201660156, -124.40457153320312, -0.073486328125, -1.08154296875, 0.67041015625, 0, 
106, 1031996213, -0.22380070388317108, -0.7103952765464783, -0.32454314827919006, -0.5830444097518921, 6.837404727935791, 8.657295227050781, -2.593146562576294, 13.199689865112305, -101.90230560302734, -115.36521911621094, -0.058349609375, -1.077880859375, 0.6845703125, 0, 
107, 1032004546, -0.2297700047492981, -0.7122214436531067, -0.3290715515613556, -0.5759129524230957, 6.93231725692749, 8.708407402038574, -3.2490086555480957, 16.109525680541992, -97.77437591552734, -105.97682189941406, -0.043212890625, -1.07861328125, 0.6982421875, 0, 
108, 1032012879, -0.23520971834659576, -0.7139813303947449, -0.3332030773162842, -0.5691221952438354, 7.066250801086426, 8.066755294799805, -3.104858160018921, 16.413713455200195, -92.7442626953125, -97.05701446533203, -0.0263671875, -1.076416015625, 0.709716796875, 0, 
109, 1032021212, -0.2402745932340622, -0.7156065106391907, -0.3368627429008484, -0.5627756118774414, 7.150437831878662, 7.556386947631836, -2.525020122528076, 13.916688919067383, -87.15914154052734, -88.73242950439453, -0.011962890625, -1.07373046875, 0.720458984375, 0, 
110, 1032029545, -0.2446400374174118, -0.717106282711029, -0.3403528332710266, -0.5568547248840332, 7.051358222961426, 7.223250389099121, -2.821990966796875, 17.115449905395508, -79.29804992675781, -80.76432037353516, -0.0029296875, -1.071533203125, 0.72802734375, 0, 
111, 1032037878, -0.248500794172287, -0.7184654474258423, -0.34352657198905945, -0.5514179468154907, 6.688876628875732, 6.807687759399414, -2.4451584815979004, 16.916297912597656, -72.16814422607422, -72.8697738647461, 0.005126953125, -1.07421875, 0.744140625, 0, 
112, 1032046211, -0.2518048584461212, -0.7197583913803101, -0.34634244441986084, -0.5464493036270142, 6.323570251464844, 6.714234352111816, -2.390087842941284, 17.27849578857422, -65.614990234375, -63.76590347290039, 0.017578125, -1.070556640625, 0.748046875, 0, 
113, 1032054544, -0.25411954522132874, -0.7210659384727478, -0.34899047017097473, -0.5419503450393677, 5.960359573364258, 6.559178352355957, -2.94317889213562, 23.60880470275879, -56.96658706665039, -53.03396224975586, 0.028564453125, -1.066162109375, 0.756591796875, 0, 
114, 1032062877, -0.2555774450302124, -0.7223577499389648, -0.35135188698768616, -0.5380043983459473, 5.585049629211426, 6.636994361877441, -3.2581958770751953, 27.273754119873047, -48.232730865478516, -41.89080047607422, 0.034912109375, -1.064208984375, 0.76318359375, 0, 
115, 1032071210, -0.25617870688438416, -0.723592221736908, -0.3535271883010864, -0.5346240401268005, 5.309157371520996, 6.887091159820557, -3.585232973098755, 31.457361221313477, -38.72969055175781, -32.05018997192383, 0.03662109375, -1.060546875, 0.772216796875, 0, 
116, 1032079543, -0.25591859221458435, -0.7247757315635681, -0.3554929494857788, -0.5318347215652466, 4.573133945465088, 6.705521583557129, -3.2308828830718994, 35.44912338256836, -29.000789642333984, -21.73992919921875, 0.03857421875, -1.0595703125, 0.777587890625, 0, 
117, 1032087876, -0.25523877143859863, -0.725948691368103, -0.3568459153175354, -0.5296506285667419, 3.868133306503296, 6.254721641540527, -2.4405903816223145, 32.13883590698242, -23.021015167236328, -10.543333053588867, 0.040283203125, -1.054443359375, 0.787841796875, 0, 
118, 1032096209, -0.25411856174468994, -0.7271016836166382, -0.35762566328048706, -0.5280795693397522, 3.7423205375671387, 6.214405059814453, -2.5581185817718506, 29.297653198242188, -16.58146858215332, 0.4973648190498352, 0.040771484375, -1.055419921875, 0.79052734375, 0, 
119, 1032104542, -0.25240808725357056, -0.7282585501670837, -0.35789695382118225, -0.5271212458610535, 3.5088043212890625, 6.01662015914917, -2.7888782024383545, 28.4925479888916, -9.378867149353027, 11.972784042358398, 0.040283203125, -1.051025390625, 0.796630859375, 0, 
120, 1032112875, -0.25019553303718567, -0.7294566631317139, -0.35754141211509705, -0.5267607569694519, 3.237326145172119, 5.816572666168213, -2.8957622051239014, 26.1933650970459, -3.3740901947021484, 24.222116470336914, 0.035400390625, -1.049560546875, 0.79638671875, 0, 
121, 1032121208, -0.24733921885490417, -0.7307363748550415, -0.3565753996372223, -0.5269906520843506, 2.9154770374298096, 5.578671932220459, -2.5062971115112305, 25.588397979736328, 2.9947574138641357, 37.38920211791992, 0.02685546875, -1.0439453125, 0.79833984375, 0, 
122, 1032129541, -0.24381545186042786, -0.7320974469184875, -0.3549940884113312, -0.5278107523918152, 2.8272886276245117, 5.291595935821533, -2.35219669342041, 25.238508224487305, 9.543648719787598, 50.867698669433594, 0.02197265625, -1.041748046875, 0.80078125, 0, 
123, 1032137874, -0.23970648646354675, -0.7335529923439026, -0.3528232276439667, -0.5291256308555603, 2.720021963119507, 4.876523971557617, -1.8941593170166016, 24.730979919433594, 14.694180488586426, 63.11945343017578, 0.011962890625, -1.04052734375, 0.801025390625, 0, 
124, 1032146207, -0.2351895272731781, -0.7350761294364929, -0.3499491810798645, -0.5309444069862366, 2.720024824142456, 4.8012919425964355, -1.6852495670318604, 21.52935791015625, 18.969459533691406, 75.2226791381836, 0.000244140625, -1.03857421875, 0.798828125, 0, 
125, 1032154540, -0.22997337579727173, -0.7366234660148621, -0.3465261161327362, -0.5333247184753418, 2.802048444747925, 4.774957180023193, -2.0461971759796143, 21.945743560791016, 26.03875160217285, 87.75731658935547, -0.012451171875, -1.0341796875, 0.794921875, 0, 
126, 1032162873, -0.22430454194545746, -0.7381691932678223, -0.3424392342567444, -0.53623366355896, 2.958095073699951, 4.6142120361328125, -1.8849595785140991, 19.15614128112793, 31.484088897705078, 99.51859283447266, -0.024169921875, -1.030029296875, 0.790771484375, 0, 
127, 1032171206, -0.21813911199569702, -0.7396380305290222, -0.33770492672920227, -0.5397442579269409, 3.1903159618377686, 4.485520839691162, -1.92216157913208, 16.336820602416992, 38.47860336303711, 111.19575500488281, -0.04638671875, -1.030517578125, 0.78857421875, 0, 
128, 1032179539, -0.21139749884605408, -0.740979790687561, -0.33242377638816833, -0.5438492298126221, 3.329188823699951, 4.161127090454102, -1.815694808959961, 15.013693809509277, 46.52324676513672, 122.2786636352539, -0.062255859375, -1.029296875, 0.783447265625, 0, 
129, 1032187872, -0.20407915115356445, -0.742172122001648, -0.3265976309776306, -0.5485283732414246, 3.198639392852783, 3.6313693523406982, -1.6601014137268066, 13.735950469970703, 54.52309036254883, 133.08143615722656, -0.08349609375, -1.023681640625, 0.775146484375, 0, 
130, 1032196205, -0.19624486565589905, -0.7431908249855042, -0.3202390968799591, -0.5537323355674744, 2.92350172996521, 2.9220712184906006, -1.2437173128128052, 12.160555839538574, 62.033267974853516, 143.15184020996094, -0.100341796875, -1.021240234375, 0.766357421875, 0, 
131, 1032204538, -0.18784227967262268, -0.7440293431282043, -0.3134327530860901, -0.5593863129615784, 2.8935976028442383, 2.496234893798828, -1.2817332744598389, 12.073506355285645, 69.2785873413086, 152.42466735839844, -0.12109375, -1.016845703125, 0.75927734375, 0, 
132, 1032212871, -0.17878662049770355, -0.7446898818016052, -0.3063526749610901, -0.5653652548789978, 2.643590211868286, 1.917807698249817, -1.1192152500152588, 14.807168960571289, 76.10252380371094, 160.37335205078125, -0.14453125, -1.01025390625, 0.74560546875, 0, 
133, 1032221204, -0.16911475360393524, -0.7451803684234619, -0.2990344166755676, -0.5715786218643188, 2.321415424346924, 1.574681043624878, -1.0188257694244385, 17.8442325592041, 81.81473541259766, 167.414794921875, -0.1689453125, -1.0087890625, 0.73583984375, 0, 
134, 1032229537, -0.15879109501838684, -0.7454805374145508, -0.291635662317276, -0.577936053276062, 2.0608294010162354, 1.3384151458740234, -0.9108425974845886, 22.872142791748047, 87.2998275756836, 172.96473693847656, -0.195068359375, -1.002685546875, 0.7177734375, 0, 
135, 1032237870, -0.14788125455379486, -0.7455381751060486, -0.28420838713645935, -0.5844202637672424, 1.974564552307129, 1.2295558452606201, -0.7753797769546509, 27.597700119018555, 92.7965087890625, 177.16993713378906, -0.22021484375, -0.992919921875, 0.708251953125, 0, 
136, 1032246203, -0.13650722801685333, -0.7453209757804871, -0.2767442762851715, -0.591009795665741, 1.7224887609481812, 1.0689648389816284, -0.3863951861858368, 31.10713005065918, 97.84534454345703, 180.4693145751953, -0.2431640625, -0.98388671875, 0.693603515625, 0, 
137, 1032254536, -0.12479344755411148, -0.7448409795761108, -0.2692147195339203, -0.5976446270942688, 1.446245789527893, 0.9942024350166321, -0.10659762471914291, 33.37823486328125, 101.59461975097656, 182.9351348876953, -0.26513671875, -0.977783203125, 0.67822265625, 0, 
138, 1032262869, -0.11284485459327698, -0.7440751791000366, -0.2616161108016968, -0.604311466217041, 1.2944782972335815, 1.1434930562973022, -0.0803954228758812, 34.6219596862793, 105.0433578491211, 184.62063598632812, -0.289794921875, -0.96484375, 0.6650390625, 0, 
139, 1032271202, -0.10073654353618622, -0.7429829835891724, -0.25404906272888184, -0.6109867691993713, 1.1543736457824707, 1.2955812215805054, 0.07564033567905426, 35.96711730957031, 108.44725799560547, 184.41261291503906, -0.313720703125, -0.960205078125, 0.646728515625, 0, 
140, 1032279535, -0.08856237679719925, -0.7414991855621338, -0.24660512804985046, -0.6176882982254028, 1.086950421333313, 1.4928981065750122, 0.21946166455745697, 37.05447006225586, 112.42546844482422, 182.42660522460938, -0.335205078125, -0.94873046875, 0.634033203125, 0, 
141, 1032287868, -0.07620598375797272, -0.7395692467689514, -0.23938459157943726, -0.624453604221344, 0.8702927827835083, 1.5978364944458008, 0.20788420736789703, 40.032005310058594, 117.73387145996094, 180.21400451660156, -0.35888671875, -0.938232421875, 0.61181640625, 0, 
142, 1032296201, -0.06378515809774399, -0.7371838092803955, -0.23231925070285797, -0.631297767162323, 0.4045056402683258, 1.7017624378204346, 0.2894343435764313, 41.301780700683594, 122.84166717529297, 177.8195343017578, -0.3779296875, -0.9296875, 0.593505859375, 0, 
143, 1032304534, -0.0514436811208725, -0.7343630194664001, -0.22528216242790222, -0.6382239460945129, -0.01208262238651514, 1.7905186414718628, 0.4652719795703888, 40.089107513427734, 127.20783233642578, 175.47628784179688, -0.3994140625, -0.91796875, 0.57568359375, 0, 
144, 1032312867, -0.03893481194972992, -0.731174886226654, -0.21836978197097778, -0.645135223865509, -0.3478311598300934, 1.9214880466461182, 0.5110786557197571, 42.6704216003418, 130.90731811523438, 174.5876007080078, -0.41552734375, -0.90869140625, 0.5576171875, 0, 
145, 1032321200, -0.02624354138970375, -0.7276970744132996, -0.2114894688129425, -0.6519647836685181, -0.617534339427948, 2.3818302154541016, 0.14274811744689941, 44.86785125732422, 133.1984100341797, 174.92291259765625, -0.43310546875, -0.89697265625, 0.5361328125, 0, 
146, 1032329533, -0.013503422960639, -0.7240257263183594, -0.20453527569770813, -0.6586253643035889, -0.6669482588768005, 3.3367722034454346, -0.45412278175354004, 45.126853942871094, 133.3793487548828, 175.5220184326172, -0.445556640625, -0.887451171875, 0.512939453125, 0, 
147, 1032337866, -0.0006181588396430016, -0.7200735211372375, -0.19756777584552765, -0.6651902198791504, -0.5677856206893921, 4.362627983093262, -1.224522590637207, 46.65843963623047, 135.35569763183594, 176.118408203125, -0.466796875, -0.872802734375, 0.491943359375, 0, 
148, 1032346199, 0.011999120935797691, -0.7158598303794861, -0.1903093457221985, -0.6717146039009094, -0.6821016669273376, 4.985000133514404, -1.3274425268173218, 41.46247863769531, 136.6352081298828, 175.8810577392578, -0.4794921875, -0.86279296875, 0.46728515625, 0, 
149, 1032354532, 0.023497601971030235, -0.7114967107772827, -0.18218766152858734, -0.6782662868499756, -0.5086690783500671, 5.512227535247803, -0.9449526071548462, 22.41888999938965, 135.4816131591797, 173.61204528808594, -0.494873046875, -0.852783203125, 0.44287109375, 0, 
150, 1032362865, 0.034018583595752716, -0.7070208191871643, -0.1733812391757965, -0.6847776770591736, -0.08577368408441544, 5.879633903503418, -1.0223444700241089, 6.61290979385376, 133.92889404296875, 170.9607391357422, -0.5068359375, -0.83935546875, 0.41796875, 0, 
151, 1032371198, 0.043598808348178864, -0.7024135589599609, -0.16383914649486542, -0.69129478931427, 0.21472620964050293, 5.979797840118408, -0.9642249345779419, -9.420456886291504, 133.30755615234375, 168.90892028808594, -0.513427734375, -0.8271484375, 0.390869140625, 0, 
152, 1032379531, 0.052127644419670105, -0.6977090835571289, -0.15333643555641174, -0.6978468298912048, 0.2948857545852661, 5.990293979644775, -0.9458600878715515, -28.722673416137695, 132.79205322265625, 167.98422241210938, -0.525634765625, -0.8212890625, 0.365478515625, 0, 
153, 1032387864, 0.060197196900844574, -0.69290691614151, -0.1423785239458084, -0.70427405834198, 0.4663102924823761, 5.921217918395996, -1.4005959033966064, -37.165771484375, 131.87472534179688, 167.8044891357422, -0.533447265625, -0.807373046875, 0.337158203125, 0, 
154, 1032396197, 0.0683918297290802, -0.6878848075866699, -0.1315605193376541, -0.7105254530906677, 0.8922572135925293, 5.3908772468566895, -2.1405110359191895, -34.09185028076172, 132.47218322753906, 167.41983032226562, -0.5400390625, -0.794677734375, 0.30712890625, 0, 
155, 1032404530, 0.0765814259648323, -0.6827174425125122, -0.12090176343917847, -0.7165417671203613, 1.408467411994934, 4.7828850746154785, -2.185749053955078, -32.02248764038086, 131.49961853027344, 165.81109619140625, -0.54931640625, -0.785400390625, 0.2734375, 0, 
156, 1032412863, 0.08486569672822952, -0.6773915886878967, -0.11057629436254501, -0.7223078608512878, 2.2147629261016846, 4.614063262939453, -2.371953248977661, -27.264297485351562, 130.5279998779297, 163.62464904785156, -0.549560546875, -0.767822265625, 0.247314453125, 0, 
157, 1032421196, 0.09323649108409882, -0.6719143986701965, -0.10080238431692123, -0.7278007864952087, 2.8030567169189453, 4.55406379699707, -2.1457433700561523, -20.388080596923828, 128.96678161621094, 159.4327850341797, -0.554931640625, -0.754638671875, 0.215576171875, 0, 
158, 1032429529, 0.101596400141716, -0.6663517951965332, -0.09156158566474915, -0.732998788356781, 3.471820592880249, 4.794317245483398, -2.2780439853668213, -14.634286880493164, 126.40446472167969, 154.65992736816406, -0.5595703125, -0.74658203125, 0.19140625, 0, 
159, 1032437862, 0.10986924916505814, -0.6607781648635864, -0.0827631801366806, -0.7378811836242676, 4.226484298706055, 5.0807342529296875, -2.7547731399536133, -10.56209945678711, 122.89506530761719, 150.1584930419922, -0.56005859375, -0.73486328125, 0.164306640625, 0, 
160, 1032446195, 0.11829560995101929, -0.6552037596702576, -0.07447139918804169, -0.7424189448356628, 4.909096717834473, 5.405436992645264, -2.5519888401031494, -3.631765365600586, 119.18087005615234, 147.62901306152344, -0.56494140625, -0.720458984375, 0.139404296875, 0, 
161, 1032454528, 0.12668639421463013, -0.649515688419342, -0.06628657132387161, -0.7467954754829407, 5.6358819007873535, 6.072401523590088, -2.7716262340545654, -2.5063416957855225, 118.6798095703125, 146.45968627929688, -0.5615234375, -0.707763671875, 0.119384765625, 0, 
162, 1032462861, 0.13546983897686005, -0.6436612606048584, -0.058971524238586426, -0.7509247660636902, 6.758998394012451, 6.7708659172058105, -4.495615482330322, 10.445775032043457, 117.0220947265625, 142.99073791503906, -0.5625, -0.695556640625, 0.091796875, 0, 
163, 1032471194, 0.1438130885362625, -0.637743353843689, -0.052123621106147766, -0.7549183368682861, 8.530786514282227, 6.889572620391846, -3.749450445175171, 11.600625038146973, 115.25308990478516, 134.53164672851562, -0.565185546875, -0.683837890625, 0.07373046875, 0, 
164, 1032479527, 0.15117478370666504, -0.6317932605743408, -0.045307546854019165, -0.7589125633239746, 10.768125534057617, 6.814694881439209, -3.421483039855957, 3.3859288692474365, 114.82238006591797, 124.01704406738281, -0.562744140625, -0.669189453125, 0.044921875, 0, 
165, 1032487860, 0.1578725427389145, -0.6257506608963013, -0.03844146430492401, -0.7629234194755554, 12.5101318359375, 6.462378978729248, -2.9137444496154785, -2.717773675918579, 115.63542938232422, 117.46524047851562, -0.556884765625, -0.6650390625, 0.025634765625, 0, 
166, 1032496193, 0.16425761580467224, -0.6196828484535217, -0.03142745792865753, -0.7668393850326538, 13.76498794555664, 6.064643383026123, -2.081399917602539, -6.859832763671875, 115.2244873046875, 115.6144790649414, -0.5556640625, -0.650390625, 0.005126953125, 0, 
167, 1032504526, 0.17035654187202454, -0.6138824224472046, -0.024263080209493637, -0.77042555809021, 14.00765609741211, 5.352836608886719, -0.9509665966033936, -11.343658447265625, 109.83503723144531, 114.78678131103516, -0.547119140625, -0.63916015625, -0.014404296875, 0, 
168, 1032512859, 0.17582525312900543, -0.6085972785949707, -0.016960622742772102, -0.7735790014266968, 13.72713565826416, 4.704399585723877, 0.1258433610200882, -19.190837860107422, 100.81185913085938, 110.41427612304688, -0.54638671875, -0.6318359375, -0.036865234375, 0, 
169, 1032521192, 0.1806928813457489, -0.603825569152832, -0.010069172829389572, -0.7763121128082275, 13.890250205993652, 4.531534671783447, 0.12817977368831635, -20.99454689025879, 90.72828674316406, 101.77394104003906, -0.541015625, -0.622802734375, -0.054931640625, 0, 
170, 1032529525, 0.18511970341205597, -0.5995927453041077, -0.0038918200880289078, -0.7786021828651428, 14.31767463684082, 3.982102394104004, 0.0398697704076767, -18.3076114654541, 79.429443359375, 92.2557144165039, -0.535400390625, -0.606201171875, -0.072509765625, 0, 
171, 1032537858, 0.18886807560920715, -0.59608393907547, 0.001962515525519848, -0.7804011702537537, 14.946550369262695, 2.86922550201416, 1.4069302082061768, -22.260923385620117, 66.8056869506836, 83.6877212524414, -0.53125, -0.59912109375, -0.08447265625, 0, 
172, 1032546191, 0.1920650154352188, -0.5933871269226074, 0.007213852368295193, -0.7816442251205444, 15.815610885620117, 1.3670233488082886, 2.2650680541992188, -22.4320125579834, 51.948829650878906, 74.17854309082031, -0.52783203125, -0.593505859375, -0.1015625, 0, 
173, 1032554524, 0.19496718049049377, -0.5914604067802429, 0.011294635012745857, -0.782337486743927, 16.41384506225586, 0.0602247528731823, 2.7949657440185547, -14.346857070922852, 36.16064453125, 62.915531158447266, -0.525634765625, -0.58203125, -0.104736328125, 0, 
174, 1032562857, 0.19746002554893494, -0.5904302000999451, 0.014181173406541348, -0.7824435234069824, 16.444589614868164, -0.8594440817832947, 3.200998544692993, -7.319042205810547, 18.564294815063477, 50.150386810302734, -0.526123046875, -0.574951171875, -0.110107421875, 0, 
175, 1032571190, 0.1992371678352356, -0.5901752710342407, 0.01597757078707218, -0.7821507453918457, 16.853546142578125, -1.509507179260254, 3.043170690536499, -3.5875978469848633, 4.2040181159973145, 34.62244415283203, -0.527099609375, -0.57080078125, -0.117919921875, 0, 
176, 1032579523, 0.20051473379135132, -0.5906062722206116, 0.01626874879002571, -0.7814926505088806, 17.108863830566406, -2.672302484512329, 2.940720319747925, 6.591057777404785, -10.194330215454102, 17.792678833007812, -0.527099609375, -0.567626953125, -0.116455078125, 0, 
177, 1032587856, 0.20096120238304138, -0.5915737748146057, 0.015263556502759457, -0.7806661128997803, 16.650175094604492, -3.5005500316619873, 3.4674556255340576, 12.253779411315918, -20.671478271484375, -1.2277804613113403, -0.530517578125, -0.567138671875, -0.115478515625, 0, 
178, 1032596189, 0.19999432563781738, -0.5931810140609741, 0.01338763814419508, -0.7797287702560425, 15.814866065979004, -3.91200590133667, 3.969308614730835, 8.315558433532715, -30.594606399536133, -23.406654357910156, -0.532958984375, -0.5693359375, -0.10791015625, 0, 
179, 1032604522, 0.1977456510066986, -0.5952845811843872, 0.01029131468385458, -0.7787453532218933, 14.873727798461914, -4.035038471221924, 3.0667262077331543, 9.568805694580078, -39.36237335205078, -46.97377014160156, -0.536865234375, -0.573486328125, -0.09912109375, 0, 
180, 1032612855, 0.19478006660938263, -0.5977582335472107, 0.005406025797128677, -0.7776464819908142, 14.619574546813965, -4.226449489593506, 1.4952123165130615, 21.838027954101562, -49.08500671386719, -69.13082122802734, -0.538330078125, -0.58203125, -0.090087890625, 0, 
181, 1032621188, 0.1907685399055481, -0.600777804851532, -0.00060289166867733, -0.7763314247131348, 14.473991394042969, -4.953000068664551, 1.3701695203781128, 23.778200149536133, -59.57956314086914, -88.9146728515625, -0.541015625, -0.589599609375, -0.078857421875, 0, 
182, 1032629521, 0.1850886195898056, -0.6045928597450256, -0.006716256029903889, -0.7747141718864441, 14.231672286987305, -5.694084167480469, 2.8322741985321045, 9.024462699890137, -70.90982818603516, -106.8896713256836, -0.542724609375, -0.6025390625, -0.067138671875, 0, 
183, 1032637854, 0.17760694026947021, -0.6091094613075256, -0.012735116295516491, -0.7728496789932251, 14.036026000976562, -6.024142742156982, 4.544126510620117, -8.724414825439453, -80.3051986694336, -124.50806427001953, -0.55126953125, -0.614013671875, -0.0439453125, 0, 
184, 1032646187, 0.1685565561056137, -0.6139134168624878, -0.019008992239832878, -0.7709442973136902, 13.593465805053711, -5.960106372833252, 5.304678916931152, -19.848690032958984, -84.65865325927734, -143.26345825195312, -0.552978515625, -0.626708984375, -0.029296875, 0, 
185, 1032654520, 0.15823695063591003, -0.6187959909439087, -0.026259835809469223, -0.7690126299858093, 12.991500854492188, -5.7853288650512695, 5.574620246887207, -20.38446807861328, -88.25402069091797, -164.79441833496094, -0.551513671875, -0.64013671875, -0.00927734375, 0, 
186, 1032662853, 0.14701756834983826, -0.6237541437149048, -0.035027507692575455, -0.7668814063072205, 12.745939254760742, -5.215153694152832, 5.459672927856445, -12.089261054992676, -94.43496704101562, -186.84986877441406, -0.55419921875, -0.661865234375, 0.01318359375, 0, 
187, 1032671186, 0.1352912336587906, -0.6288672089576721, -0.04555471986532211, -0.7643066048622131, 13.048150062561035, -4.5130743980407715, 4.781613826751709, 2.015601873397827, -103.62077331542969, -206.23204040527344, -0.552734375, -0.68505859375, 0.032958984375, 0, 
188, 1032679519, 0.1228608787059784, -0.6339726448059082, -0.05719602853059769, -0.7614001631736755, 14.018158912658691, -3.7100534439086914, 3.7028040885925293, 7.862407684326172, -108.97884368896484, -222.7430419921875, -0.5537109375, -0.708740234375, 0.061767578125, 0, 
189, 1032687852, 0.10957948863506317, -0.63890141248703, -0.06956496834754944, -0.7582713961601257, 15.360898971557617, -3.4011151790618896, 2.665872097015381, 8.535052299499512, -110.9150619506836, -237.6808319091797, -0.548828125, -0.73193359375, 0.089599609375, 0, 
190, 1032696185, 0.09547609835863113, -0.6435598731040955, -0.0823943167924881, -0.7549461722373962, 16.017318725585938, -3.2259974479675293, 3.0772507190704346, 6.706839561462402, -111.3533706665039, -250.34283447265625, -0.541259765625, -0.7587890625, 0.113525390625, 0, 
191, 1032704518, 0.0803966373205185, -0.6478978395462036, -0.09524192661046982, -0.7514725923538208, 15.455668449401855, -2.5641531944274902, 4.085751533508301, -1.1553220748901367, -110.42130279541016, -260.7311706542969, -0.532958984375, -0.78369140625, 0.143310546875, 0, 
192, 1032712851, 0.06504729390144348, -0.6520658135414124, -0.10855616629123688, -0.7475371956825256, 15.011922836303711, -1.409837007522583, 3.9217112064361572, 2.057988166809082, -113.69799041748047, -267.46905517578125, -0.52392578125, -0.812255859375, 0.17236328125, 0, 
193, 1032721184, 0.050094518810510635, -0.6561140418052673, -0.12294895201921463, -0.7429039478302002, 15.092665672302246, -0.6882994771003723, 3.434685707092285, 17.848613739013672, -119.0511703491211, -272.5466003417969, -0.51220703125, -0.83740234375, 0.205810546875, 0, 
194, 1032729517, 0.035069145262241364, -0.6600987911224365, -0.1379186362028122, -0.7375878095626831, 15.785776138305664, -0.5217484831809998, 3.224336624145508, 24.288230895996094, -125.13285064697266, -278.2030944824219, -0.498291015625, -0.863525390625, 0.237060546875, 0, 
195, 1032737850, 0.01975027099251747, -0.6638652682304382, -0.1529814451932907, -0.7317833304405212, 16.490041732788086, 0.013728341087698936, 2.82578706741333, 23.595060348510742, -127.90675354003906, -282.1361083984375, -0.48095703125, -0.885498046875, 0.270263671875, 0, 
196, 1032746183, 0.004748323000967503, -0.6673473715782166, -0.168532133102417, -0.7254235744476318, 16.88435173034668, -0.07295344024896622, 2.062913417816162, 32.64970016479492, -129.62802124023438, -283.9205322265625, -0.461669921875, -0.91162109375, 0.30126953125, 0, 
197, 1032754516, -0.0092264823615551, -0.6708556413650513, -0.1847963035106659, -0.7181469798088074, 17.602895736694336, -1.6535073518753052, 3.3802573680877686, 51.311767578125, -135.9253692626953, -280.03472900390625, -0.44287109375, -0.933349609375, 0.3369140625, 0, 
198, 1032762849, -0.022999156266450882, -0.6740244626998901, -0.20071791112422943, -0.7105572819709778, 18.001754760742188, -2.3700504302978516, 4.674450397491455, 50.552616119384766, -135.03292846679688, -275.8435974121094, -0.423828125, -0.952880859375, 0.376708984375, 0, 
199, 1032771182, -0.03663863241672516, -0.6765171885490417, -0.21659617125988007, -0.7029122114181519, 17.284639358520508, -1.4849687814712524, 4.152616500854492, 51.2923469543457, -128.54660034179688, -275.9684753417969, -0.397216796875, -0.96875, 0.412353515625, 0, 
200, 1032779515, -0.05064140260219574, -0.6785071492195129, -0.23198850452899933, -0.6951705813407898, 17.249797821044922, 0.3656250238418579, 3.3313076496124268, 43.25849151611328, -125.95308685302734, -276.5624084472656, -0.375732421875, -0.98486328125, 0.445068359375, 0, 
201, 1032787848, -0.06453566998243332, -0.680287778377533, -0.24699847400188446, -0.6870610117912292, 17.2264347076416, 2.020012378692627, 2.2628657817840576, 41.636722564697266, -127.27015686035156, -272.8369140625, -0.346923828125, -1.000732421875, 0.47607421875, 0, 
202, 1032796181, -0.07842672616243362, -0.6821674108505249, -0.26138660311698914, -0.6783741116523743, 17.587724685668945, 2.404801368713379, 2.66890811920166, 37.84718704223633, -134.18215942382812, -267.2066955566406, -0.3212890625, -1.014404296875, 0.511474609375, 0, 
203, 1032804514, -0.09312795847654343, -0.6838027834892273, -0.2744631767272949, -0.669647753238678, 17.660615921020508, 2.35197377204895, 1.8580759763717651, 17.87966537475586, -136.5723419189453, -263.3488464355469, -0.290283203125, -1.0234375, 0.539794921875, 0, 
204, 1032812847, -0.10830086469650269, -0.6850404739379883, -0.2866624593734741, -0.6609330177307129, 17.14152717590332, 2.3623409271240234, 1.4205907583236694, 4.822195529937744, -135.73085021972656, -260.9607849121094, -0.2626953125, -1.037109375, 0.567626953125, 0, 
205, 1032821180, -0.12325285375118256, -0.6858096718788147, -0.29865744709968567, -0.6521463394165039, 16.865638732910156, 2.561112403869629, 1.8032594919204712, 4.623149394989014, -131.56324768066406, -258.9604797363281, -0.22802734375, -1.04833984375, 0.58984375, 0, 
206, 1032829513, -0.13747599720954895, -0.686218798160553, -0.31076890230178833, -0.6431517004966736, 16.818586349487305, 3.028104543685913, 1.0392022132873535, 12.793539047241211, -127.12446594238281, -255.37335205078125, -0.195068359375, -1.05322265625, 0.616455078125, 0, 
207, 1032837846, -0.15185095369815826, -0.6862188577651978, -0.32207363843917847, -0.6342955827713013, 16.24253273010254, 4.049408912658691, 0.19949869811534882, 2.8482303619384766, -124.36207580566406, -250.5778350830078, -0.16552734375, -1.064208984375, 0.640869140625, 0, 
208, 1032846179, -0.1667006015777588, -0.6857808232307434, -0.33230480551719666, -0.625704824924469, 15.488967895507812, 5.343421936035156, -0.3838116526603699, -13.07542610168457, -122.39159393310547, -245.98497009277344, -0.129638671875, -1.070556640625, 0.6591796875, 0, 
209, 1032854512, -0.18119387328624725, -0.685168445110321, -0.3420978784561157, -0.6170084476470947, 14.674215316772461, 5.715245723724365, -0.03998440504074097, -13.407756805419922, -121.2549819946289, -239.82579040527344, -0.09375, -1.074462890625, 0.677490234375, 0, 
210, 1032862845, -0.19548751413822174, -0.6843917965888977, -0.35127902030944824, -0.6082868576049805, 14.45501708984375, 5.432563304901123, 0.8562263250350952, -17.002986907958984, -120.69161224365234, -233.2001190185547, -0.06201171875, -1.08251953125, 0.69482421875, 0, 
211, 1032871178, -0.20989945530891418, -0.6833092570304871, -0.359785795211792, -0.5996683835983276, 14.963706016540527, 5.611916542053223, 0.9383419752120972, -25.086162567138672, -119.54248809814453, -229.05120849609375, -0.026611328125, -1.080078125, 0.704833984375, 0, 
212, 1032879511, -0.22414977848529816, -0.6818245649337769, -0.36787304282188416, -0.5912350416183472, 15.142961502075195, 5.9061126708984375, 0.7400439381599426, -29.095407485961914, -114.90345764160156, -225.22265625, 0.0078125, -1.0859375, 0.719970703125, 0, 
213, 1032887844, -0.23821403086185455, -0.6801474690437317, -0.3754020929336548, -0.5828757286071777, 14.553431510925293, 6.18194055557251, 1.1654013395309448, -32.86574935913086, -113.42830657958984, -219.23922729492188, 0.043212890625, -1.08251953125, 0.72900390625, 0, 
214, 1032896177, -0.25159069895744324, -0.6785309910774231, -0.38255947828292847, -0.5744243264198303, 13.936784744262695, 6.3570451736450195, 0.9497772455215454, -28.73027992248535, -112.43630981445312, -210.2196807861328, 0.0751953125, -1.0908203125, 0.740234375, 0, 
215, 1032904510, -0.2638217806816101, -0.6772466897964478, -0.3895358741283417, -0.5656980276107788, 13.314337730407715, 6.207728385925293, 0.9941296577453613, -16.88030433654785, -112.23628234863281, -198.71682739257812, 0.107666015625, -1.08837890625, 0.749267578125, 0, 
216, 1032912843, -0.2754523754119873, -0.6761758327484131, -0.39597752690315247, -0.5568944811820984, 13.371553421020508, 6.443575859069824, 0.48572587966918945, -14.254377365112305, -113.32685089111328, -188.16964721679688, 0.141357421875, -1.089111328125, 0.7607421875, 0, 
217, 1032921176, -0.28616243600845337, -0.6753529906272888, -0.40219706296920776, -0.5479637980461121, 13.321870803833008, 6.845100402832031, -0.33188003301620483, -5.7671051025390625, -112.2591781616211, -178.2270050048828, 0.176513671875, -1.083740234375, 0.767822265625, 0, 
218, 1032929509, -0.29550161957740784, -0.674858033657074, -0.4084947109222412, -0.5388829112052917, 12.993112564086914, 6.983542442321777, -1.3290410041809082, 9.678397178649902, -108.21283721923828, -167.35545349121094, 0.196044921875, -1.0830078125, 0.779541015625, 0, 
219, 1032937842, -0.3039746880531311, -0.6745663285255432, -0.41448473930358887, -0.5298862457275391, 12.351107597351074, 6.968816757202148, -1.2777464389801025, 15.784553527832031, -105.35070037841797, -156.65359497070312, 0.22412109375, -1.076416015625, 0.787109375, 0, 
220, 1032946175, -0.3117811679840088, -0.674404501914978, -0.41989758610725403, -0.5212241411209106, 11.95069408416748, 7.342097759246826, -1.9218233823776245, 16.402761459350586, -101.77772521972656, -144.24826049804688, 0.246337890625, -1.0712890625, 0.796630859375, 0, 
221, 1032954508, -0.31825268268585205, -0.6746081113815308, -0.42499840259552, -0.5128477811813354, 11.197318077087402, 7.5424675941467285, -1.960045576095581, 26.461706161499023, -95.40851593017578, -128.51588439941406, 0.268798828125, -1.066162109375, 0.805419921875, 0, 
222, 1032962841, -0.32333892583847046, -0.6750714182853699, -0.4297132194042206, -0.505068838596344, 10.537678718566895, 7.740454196929932, -2.2125000953674316, 34.237701416015625, -85.25727081298828, -110.96528625488281, 0.287109375, -1.062255859375, 0.816162109375, 0, 
223, 1032971174, -0.3274446725845337, -0.6756649613380432, -0.4337366223335266, -0.49814337491989136, 9.730208396911621, 8.233697891235352, -2.436474084854126, 34.07101821899414, -75.5602798461914, -93.2510986328125, 0.30615234375, -1.0537109375, 0.826416015625, 0, 
224, 1032979507, -0.3305828273296356, -0.6765540838241577, -0.43687522411346436, -0.49208447337150574, 8.953047752380371, 9.153233528137207, -3.3210320472717285, 33.16361999511719, -67.70596313476562, -72.65760040283203, 0.321044921875, -1.047607421875, 0.8330078125, 0, 
225, 1032987840, -0.332244873046875, -0.6778826713562012, -0.43947163224220276, -0.4867960214614868, 8.44791316986084, 9.54509162902832, -4.136866092681885, 40.59310531616211, -57.15311050415039, -51.570404052734375, 0.323974609375, -1.046142578125, 0.836669921875, 0, 
226, 1032996173, -0.33328691124916077, -0.6792205572128296, -0.44116461277008057, -0.4826700985431671, 8.563446044921875, 9.756783485412598, -3.4940545558929443, 33.34556198120117, -46.71323013305664, -33.54316711425781, 0.33056640625, -1.041015625, 0.850830078125, 0, 
227, 1033004506, -0.33342406153678894, -0.6804196238517761, -0.44226041436195374, -0.4798755347728729, 8.924909591674805, 10.037142753601074, -4.1486101150512695, 29.115215301513672, -30.65349578857422, -16.79291534423828, 0.331787109375, -1.03466796875, 0.849853515625, 0, 
228, 1033012839, -0.3328428566455841, -0.681448757648468, -0.442495733499527, -0.47860005497932434, 8.29060173034668, 10.169183731079102, -3.3949437141418457, 20.1457462310791, -14.847091674804688, 2.023768901824951, 0.335693359375, -1.03515625, 0.853271484375, 0, 
229, 1033021172, -0.3316638469696045, -0.6826167702674866, -0.44156011939048767, -0.4786182641983032, 7.18485689163208, 10.625667572021484, -3.730368137359619, 10.799083709716797, -5.4110107421875, 23.59504508972168, 0.33203125, -1.034423828125, 0.855712890625, 0, 
230, 1033029505, -0.3299561142921448, -0.6841335296630859, -0.4397299289703369, -0.4793175160884857, 6.529260635375977, 10.867865562438965, -4.140169620513916, 7.337093353271484, -2.1300830841064453, 40.798736572265625, 0.32470703125, -1.03369140625, 0.852783203125, 0, 
231, 1033037838, -0.3281458020210266, -0.6859438419342041, -0.43670183420181274, -0.48073938488960266, 5.957991123199463, 11.00143051147461, -3.4912400245666504, -2.639695405960083, -2.139909267425537, 57.69151306152344, 0.319091796875, -1.033935546875, 0.855224609375, 0, 
232, 1033046171, -0.3257483243942261, -0.6878868341445923, -0.4325627386569977, -0.483328640460968, 5.492499351501465, 11.004582405090332, -3.6948208808898926, -10.850595474243164, 6.5633769035339355, 78.22367095947266, 0.30712890625, -1.03662109375, 0.848876953125, 0, 
233, 1033054504, -0.3223448097705841, -0.6900649070739746, -0.4275325536727905, -0.4869677424430847, 4.50702428817749, 9.885518074035645, -4.064970016479492, -12.455918312072754, 16.8699951171875, 99.3319091796875, 0.29248046875, -1.0419921875, 0.84326171875, 0, 
234, 1033062837, -0.31795570254325867, -0.6926089525222778, -0.4216335415840149, -0.4913651645183563, 3.8683154582977295, 8.385701179504395, -4.049782752990723, -11.749444007873535, 23.613155364990234, 119.79949951171875, 0.277099609375, -1.044921875, 0.837646484375, 0, 
235, 1033071170, -0.3122119605541229, -0.6955820322036743, -0.4151129722595215, -0.4963746666908264, 3.409181594848633, 7.5560994148254395, -4.296085357666016, -4.728909492492676, 31.626651763916016, 139.92652893066406, 0.253173828125, -1.045166015625, 0.832763671875, 0, 
236, 1033079503, -0.30495360493659973, -0.6989943981170654, -0.4081209599971771, -0.5018614530563354, 3.2197563648223877, 7.034177780151367, -4.339940071105957, 5.7113037109375, 39.871463775634766, 159.441650390625, 0.229248046875, -1.05078125, 0.82421875, 0, 
237, 1033087836, -0.2962827980518341, -0.7027788162231445, -0.4006282687187195, -0.5077723264694214, 3.1547904014587402, 6.621429443359375, -4.1839919090271, 15.0001220703125, 47.15113067626953, 177.76058959960938, 0.20068359375, -1.052001953125, 0.822021484375, 0, 
238, 1033096169, -0.2863481342792511, -0.7067447900772095, -0.392597496509552, -0.514199435710907, 3.0497405529022217, 6.767309665679932, -3.5986006259918213, 21.36557388305664, 55.69976806640625, 195.0009307861328, 0.172607421875, -1.056640625, 0.812255859375, 0, 
239, 1033104502, -0.27537843585014343, -0.7106612920761108, -0.38392794132232666, -0.5212907195091248, 2.9223179817199707, 7.170440673828125, -3.5270185470581055, 23.109867095947266, 65.52313232421875, 210.77003479003906, 0.13818359375, -1.05126953125, 0.808349609375, 0, 
240, 1033112835, -0.2633027732372284, -0.714410662651062, -0.3747297525405884, -0.5290406942367554, 2.783080816268921, 7.638539791107178, -4.3072099685668945, 26.037179946899414, 77.05089569091797, 225.58592224121094, 0.099609375, -1.056884765625, 0.794921875, 0, 
241, 1033121168, -0.2503454387187958, -0.7179352641105652, -0.365050733089447, -0.5372629761695862, 2.392029285430908, 6.976869583129883, -3.9404284954071045, 27.932165145874023, 86.08048248291016, 237.1707763671875, 0.06298828125, -1.052734375, 0.7880859375, 0, 
242, 1033129501, -0.23664183914661407, -0.7211276888847351, -0.3547951281070709, -0.5459974408149719, 2.016604423522949, 5.864004611968994, -3.4739677906036377, 27.3453311920166, 95.4020767211914, 248.58224487304688, 0.020263671875, -1.052490234375, 0.77685546875, 0, 
243, 1033137834, -0.22203737497329712, -0.7239347100257874, -0.34402725100517273, -0.5552302002906799, 2.0118749141693115, 5.382809638977051, -3.428755044937134, 28.728059768676758, 105.92012786865234, 260.0656433105469, -0.015869140625, -1.048095703125, 0.765869140625, 0, 
244, 1033146167, -0.20653270184993744, -0.7263519167900085, -0.3329162299633026, -0.564749002456665, 1.9606789350509644, 5.177592754364014, -3.4840786457061768, 32.54600143432617, 115.00187683105469, 269.4895324707031, -0.052978515625, -1.04248046875, 0.75048828125, 0, 
245, 1033154500, -0.1904154121875763, -0.7283780574798584, -0.3215252757072449, -0.5743223428726196, 1.8817970752716064, 5.256697177886963, -3.1134402751922607, 35.108482360839844, 120.55382537841797, 275.3094787597656, -0.0966796875, -1.03271484375, 0.739501953125, 0, 
246, 1033162833, -0.17390672862529755, -0.7299279570579529, -0.3099386692047119, -0.5838810205459595, 1.858931064605713, 5.512109756469727, -2.9231369495391846, 36.3237419128418, 125.42802429199219, 278.3174133300781, -0.1376953125, -1.027587890625, 0.720458984375, 0, 
247, 1033171166, -0.15710756182670593, -0.7310183048248291, -0.29815250635147095, -0.5933396220207214, 1.5270015001296997, 5.347667217254639, -2.472360134124756, 36.941688537597656, 128.8356170654297, 280.3594055175781, -0.174072265625, -1.0146484375, 0.70361328125, 0, 
248, 1033179499, -0.14034265279769897, -0.7316523790359497, -0.28604304790496826, -0.6026488542556763, 1.2323836088180542, 5.139659404754639, -1.9899959564208984, 33.610443115234375, 130.25880432128906, 281.2325439453125, -0.21484375, -1.009765625, 0.68115234375, 0, 
249, 1033187832, -0.12377843260765076, -0.7319008708000183, -0.2736945152282715, -0.6116442680358887, 1.182703971862793, 5.00637149810791, -1.8420534133911133, 30.076318740844727, 129.00999450683594, 279.7596130371094, -0.2529296875, -0.994384765625, 0.65771484375, 0, 
250, 1033196165, -0.10772882401943207, -0.7317633032798767, -0.2611950933933258, -0.6202511787414551, 1.2856462001800537, 4.662537574768066, -1.469730019569397, 24.456043243408203, 126.18799591064453, 274.9277038574219, -0.285888671875, -0.978271484375, 0.635009765625, 0, 
251, 1033204498, -0.09224474430084229, -0.7311909794807434, -0.24857237935066223, -0.6285537481307983, 1.196498155593872, 4.391831874847412, -1.457401990890503, 18.140718460083008, 124.58866119384766, 269.241943359375, -0.32080078125, -0.96533203125, 0.610595703125, 0, 
252, 1033212831, -0.07722540199756622, -0.7301375269889832, -0.23600196838378906, -0.6365971565246582, 0.9696092009544373, 4.262439250946045, -1.706434726715088, 14.216910362243652, 124.64745330810547, 262.8126220703125, -0.3515625, -0.951171875, 0.5859375, 0, 
253, 1033221164, -0.06253322958946228, -0.7287577986717224, -0.2237776815891266, -0.6441602110862732, 0.2736775577068329, 3.4445438385009766, -0.94091796875, 15.154922485351562, 121.95894622802734, 254.8215789794922, -0.377685546875, -0.93408203125, 0.562744140625, 0, 
254, 1033229497, -0.04857608303427696, -0.7271541357040405, -0.21158556640148163, -0.6512572765350342, -0.5982688665390015, 2.4950876235961914, 0.5981243848800659, 9.333839416503906, 117.0677490234375, 246.97877502441406, -0.405029296875, -0.919921875, 0.5361328125, 0, 
255, 1033237830, -0.0349307507276535, -0.7253634333610535, -0.19958505034446716, -0.6578838229179382, -1.1357710361480713, 2.0246355533599854, 0.8932313919067383, 9.158252716064453, 113.23224639892578, 241.3319854736328, -0.42822265625, -0.90087890625, 0.510986328125, 0, 
256, 1033246163, -0.021200817078351974, -0.7233948111534119, -0.18810859322547913, -0.6639902591705322, -1.328157901763916, 1.780630111694336, 0.23715496063232422, 16.103073120117188, 110.16046905517578, 236.20947265625, -0.44873046875, -0.88330078125, 0.484375, 0, 
257, 1033254496, -0.0075277844443917274, -0.7211765646934509, -0.1773630976676941, -0.6696323156356812, -1.3569936752319336, 1.6905280351638794, -0.4077269732952118, 23.326953887939453, 107.86392211914062, 227.56150817871094, -0.470703125, -0.869873046875, 0.460693359375, 0, 
258, 1033262829, 0.005938457325100899, -0.7186763882637024, -0.1674538552761078, -0.6748672127723694, -1.2900923490524292, 1.4689149856567383, -0.10131200402975082, 29.95256233215332, 106.02593231201172, 216.70797729492188, -0.486328125, -0.8515625, 0.439208984375, 0, 
259, 1033271162, 0.019219718873500824, -0.7158089876174927, -0.15824322402477264, -0.679871141910553, -1.1896427869796753, 1.5793200731277466, 0.26562511920928955, 35.160465240478516, 106.64629364013672, 207.186767578125, -0.503173828125, -0.830322265625, 0.416748046875, 0, 
260, 1033279495, 0.032495178282260895, -0.7124677300453186, -0.14970813691616058, -0.6847910284996033, -1.1569311618804932, 2.2283213138580322, -0.5529738068580627, 41.737030029296875, 110.07852935791016, 199.54615783691406, -0.51953125, -0.81689453125, 0.396484375, 0, 
261, 1033287828, 0.04565069451928139, -0.7086976170539856, -0.1418258249759674, -0.689613401889801, -1.187078595161438, 3.0140583515167236, -1.830317735671997, 47.09063720703125, 112.60179138183594, 191.11209106445312, -0.533203125, -0.79931640625, 0.375, 0, 
262, 1033296161, 0.05789220333099365, -0.7047674059867859, -0.134251207113266, -0.6942230463027954, -1.1553534269332886, 3.306657075881958, -0.9901465773582458, 41.62784194946289, 110.09281921386719, 179.33387756347656, -0.546630859375, -0.7822265625, 0.353271484375, 0, 
263, 1033304494, 0.06907321512699127, -0.7006202340126038, -0.12677711248397827, -0.6987882852554321, -0.6638168096542358, 3.3827621936798096, -0.3813452422618866, 32.552188873291016, 109.6749496459961, 167.80690002441406, -0.5537109375, -0.76708984375, 0.329833984375, 0, 
264, 1033312827, 0.07950374484062195, -0.6962333917617798, -0.11960994452238083, -0.7033128142356873, -0.3169209957122803, 3.238173723220825, -0.49195292592048645, 28.581510543823242, 110.00542449951172, 157.32066345214844, -0.56103515625, -0.75634765625, 0.308837890625, 0, 
265, 1033321160, 0.08877772837877274, -0.6917242407798767, -0.11223993450403214, -0.7078529000282288, -0.0007890025153756142, 3.274264097213745, -0.5350618362426758, 15.647425651550293, 109.6380844116211, 147.80267333984375, -0.568115234375, -0.739990234375, 0.2919921875, 0, 
266, 1033329493, 0.09708011150360107, -0.6871876120567322, -0.10480703413486481, -0.7123072147369385, 0.23903363943099976, 3.9678306579589844, -1.0712990760803223, 5.965935230255127, 107.68482208251953, 139.0602569580078, -0.569580078125, -0.729736328125, 0.2666015625, 0, 
267, 1033337826, 0.10486957430839539, -0.6825631260871887, -0.09774363785982132, -0.7166405320167542, 0.2784704864025116, 4.351851463317871, -1.5699944496154785, 5.024549961090088, 106.15296936035156, 130.52870178222656, -0.57421875, -0.715576171875, 0.240478515625, 0, 
268, 1033346159, 0.11183624714612961, -0.6779741644859314, -0.09067770093679428, -0.7208597660064697, 0.029597043991088867, 4.132247447967529, -1.2851847410202026, -2.6149141788482666, 103.6476821899414, 122.7066421508789, -0.57861328125, -0.7109375, 0.22119140625, 0, 
269, 1033354492, 0.11821707338094711, -0.6734820008277893, -0.08346486836671829, -0.7249122262001038, -0.21975348889827728, 4.133455276489258, -1.038041591644287, -9.482412338256836, 100.61041259765625, 118.60380554199219, -0.57958984375, -0.69775390625, 0.199462890625, 0, 
270, 1033362825, 0.12443661689758301, -0.6689539551734924, -0.07629695534706116, -0.7288430333137512, -0.24498338997364044, 4.300504684448242, -1.4200291633605957, -10.324211120605469, 99.60023498535156, 116.7782974243164, -0.580322265625, -0.688232421875, 0.1796875, 0, 
271, 1033371158, 0.1306995451450348, -0.6644458174705505, -0.06955160945653915, -0.7325360774993896, 0.004485900513827801, 4.318179130554199, -1.6776729822158813, -5.476891994476318, 96.52195739746094, 113.71998596191406, -0.57958984375, -0.67822265625, 0.158203125, 0, 
272, 1033379491, 0.13661186397075653, -0.6600262522697449, -0.06295858323574066, -0.7360405921936035, 0.7437383532524109, 4.336557388305664, -1.0168081521987915, -7.1202473640441895, 93.31227111816406, 109.25296783447266, -0.57861328125, -0.669921875, 0.138916015625, 0, 
273, 1033387824, 0.1420670598745346, -0.6555992960929871, -0.05635305121541023, -0.7394917011260986, 1.6493619680404663, 4.9283905029296875, -1.290455937385559, -11.337750434875488, 92.51902770996094, 104.80851745605469, -0.5771484375, -0.6591796875, 0.118896484375, 0, 
274, 1033396157, 0.14774465560913086, -0.6510224938392639, -0.05047883838415146, -0.7428392767906189, 2.065110921859741, 5.445804595947266, -2.333153009414673, -1.5236749649047852, 91.86286163330078, 100.58788299560547, -0.57958984375, -0.652099609375, 0.098876953125, 0, 
275, 1033404490, 0.1527615785598755, -0.6465980410575867, -0.04443834349513054, -0.746068000793457, 2.2622599601745605, 5.608006477355957, -1.5204410552978516, -9.362336158752441, 89.11563110351562, 95.65972137451172, -0.579833984375, -0.64404296875, 0.08349609375, 0, 
276, 1033412823, 0.15726621448993683, -0.64229816198349, -0.038164906203746796, -0.7491870522499084, 2.3154616355895996, 5.670461654663086, -0.7953767776489258, -16.501123428344727, 87.04444885253906, 92.7966537475586, -0.57470703125, -0.634521484375, 0.06298828125, 0, 
277, 1033421156, 0.16163909435272217, -0.6381590962409973, -0.031957030296325684, -0.7520785331726074, 2.6333892345428467, 5.732813358306885, -0.5970456600189209, -17.2196102142334, 83.16258239746094, 91.43325805664062, -0.572509765625, -0.627197265625, 0.051025390625, 0, 
278, 1033429489, 0.16591978073120117, -0.6341124176979065, -0.025870278477668762, -0.7547982931137085, 3.3025267124176025, 5.691224575042725, -0.8730902671813965, -16.904666900634766, 80.39384460449219, 89.84182739257812, -0.5712890625, -0.615966796875, 0.02685546875, 0, 
279, 1033437822, 0.16987693309783936, -0.630307137966156, -0.01969132199883461, -0.7572875618934631, 4.396512985229492, 5.476784706115723, -0.5194737911224365, -21.150829315185547, 75.97383117675781, 87.91008758544922, -0.571044921875, -0.61181640625, 0.01611328125, 0, 
280, 1033446155, 0.17355529963970184, -0.6266083717346191, -0.013569644652307034, -0.7596538662910461, 5.918402671813965, 5.606276035308838, -1.2490661144256592, -23.187170028686523, 73.59089660644531, 84.81560516357422, -0.56494140625, -0.60205078125, -0.000732421875, 0, 
281, 1033454488, 0.1771308332681656, -0.622944176197052, -0.00785486027598381, -0.7619192004203796, 7.584597110748291, 5.7901201248168945, -2.062407970428467, -19.887269973754883, 71.37007141113281, 80.50501251220703, -0.561279296875, -0.591064453125, -0.01220703125, 0, 
282, 1033462821, 0.18071211874485016, -0.6192703247070312, -0.0026689255610108376, -0.7641057968139648, 9.090629577636719, 5.405561923980713, -2.244283676147461, -14.264638900756836, 69.50806427001953, 76.20425415039062, -0.55810546875, -0.58349609375, -0.031494140625, 0, 
283, 1033471154, 0.18404370546340942, -0.6157736778259277, 0.002688482403755188, -0.7661336660385132, 10.077556610107422, 4.788960933685303, -0.9750591516494751, -18.628520965576172, 66.717041015625, 75.47686004638672, -0.55517578125, -0.578369140625, -0.04541015625, 0, 
284, 1033479487, 0.18709644675254822, -0.6123917102813721, 0.008673095144331455, -0.7680584192276001, 10.609554290771484, 4.083119869232178, 0.23756319284439087, -27.889728546142578, 66.22750091552734, 78.07300567626953, -0.55419921875, -0.568603515625, -0.055908203125, 0, 
285, 1033487820, 0.1903965324163437, -0.6089398860931396, 0.014566102996468544, -0.7699004411697388, 11.059616088867188, 3.645073890686035, 0.085654616355896, -24.673694610595703, 66.01679992675781, 80.18366241455078, -0.548583984375, -0.5654296875, -0.071533203125, 0, 
286, 1033496153, 0.19423989951610565, -0.6053008437156677, 0.019709698855876923, -0.7716933488845825, 11.718462944030762, 3.0618999004364014, -0.2274836003780365, -11.70566177368164, 65.50605773925781, 79.7750473022461, -0.54541015625, -0.553955078125, -0.08544921875, 0, 
287, 1033504486, 0.1985234171152115, -0.601577639579773, 0.024043221026659012, -0.7733899354934692, 12.57282829284668, 2.500431776046753, 0.2089443802833557, 0.746917724609375, 63.328067779541016, 78.04962921142578, -0.54150390625, -0.54638671875, -0.10107421875, 0, 
288, 1033512819, 0.20296858251094818, -0.5978651642799377, 0.028012964874505997, -0.7749797701835632, 13.65973949432373, 2.3613874912261963, 0.8368035554885864, 5.896574974060059, 61.268157958984375, 76.98185729980469, -0.540771484375, -0.536865234375, -0.109375, 0, 
289, 1033521152, 0.2075566202402115, -0.5940167307853699, 0.03151116520166397, -0.7765878438949585, 14.981514930725098, 2.360746383666992, 0.6710684895515442, 12.473352432250977, 61.51964569091797, 74.70598602294922, -0.53515625, -0.532470703125, -0.120849609375, 0, 
290, 1033529485, 0.21230795979499817, -0.5901681780815125, 0.03440307080745697, -0.7781134247779846, 16.133193969726562, 2.2750236988067627, 0.9800671935081482, 20.25460433959961, 59.02272415161133, 71.65583801269531, -0.534912109375, -0.523193359375, -0.1318359375, 0, 
291, 1033537818, 0.21671758592128754, -0.5867932438850403, 0.03718132525682449, -0.7793217301368713, 16.874757766723633, 2.188917398452759, 2.108375072479248, 17.15974235534668, 51.24070739746094, 67.86986541748047, -0.5283203125, -0.52001953125, -0.142822265625, 0, 
292, 1033546151, 0.22040553390979767, -0.5841509103775024, 0.040021106600761414, -0.780131459236145, 17.335926055908203, 1.6852957010269165, 2.800058126449585, 8.292121887207031, 40.6917724609375, 61.3553581237793, -0.525390625, -0.51123046875, -0.148681640625, 0, 
293, 1033554484, 0.2232610136270523, -0.5822527408599854, 0.04292168468236923, -0.780583918094635, 17.73520278930664, 0.921118438243866, 3.1421871185302734, -1.5049692392349243, 30.522985458374023, 53.69139099121094, -0.522705078125, -0.507568359375, -0.158203125, 0, 
294, 1033562817, 0.22545216977596283, -0.5809223055839539, 0.045837871730327606, -0.7807794809341431, 18.068405151367188, 0.14384958148002625, 3.1491293907165527, -8.878043174743652, 22.77199363708496, 47.033851623535156, -0.5234375, -0.50341796875, -0.161376953125, 0, 
295, 1033571150, 0.22710570693016052, -0.5801100134849548, 0.0485614538192749, -0.7807396650314331, 18.019515991210938, -0.9624939560890198, 3.3798556327819824, -12.867332458496094, 15.114486694335938, 40.24729537963867, -0.51953125, -0.4970703125, -0.165771484375, 0, 
296, 1033579483, 0.22841838002204895, -0.5800575017929077, 0.05065334960818291, -0.7802627086639404, 18.09470558166504, -2.600281000137329, 3.1619977951049805, -11.46358585357666, 1.6805132627487183, 32.284942626953125, -0.522216796875, -0.490966796875, -0.166259765625, 0, 
297, 1033587816, 0.22973375022411346, -0.580460786819458, 0.051180921494960785, -0.7795419692993164, 18.487667083740234, -5.337957859039307, 2.2943899631500244, 3.7344934940338135, -10.019218444824219, 20.41864013671875, -0.52099609375, -0.488525390625, -0.16845703125, 0, 
298, 1033596149, 0.23034434020519257, -0.5811384320259094, 0.05030886083841324, -0.7789134383201599, 18.191242218017578, -8.236251831054688, 4.2279744148254395, 12.318953514099121, -16.200471878051758, 1.07286536693573, -0.523193359375, -0.48486328125, -0.165771484375, 0, 
299, 1033604482, 0.22887371480464935, -0.5827724933624268, 0.04905625432729721, -0.7782056331634521, 16.69597625732422, -9.523721694946289, 7.313052177429199, -3.3300845623016357, -26.7864990234375, -24.530494689941406, -0.52587890625, -0.488525390625, -0.161865234375, 0, 
300, 1033612815, 0.22587494552135468, -0.5852000713348389, 0.04656696692109108, -0.7774125933647156, 15.358867645263672, -9.169625282287598, 7.539499759674072, -4.888891696929932, -38.8803596496582, -51.20267105102539, -0.52685546875, -0.490234375, -0.153564453125, 0, 
301, 1033621148, 0.2226000726222992, -0.5877543687820435, 0.041441626846790314, -0.7767201066017151, 14.607442855834961, -8.672545433044434, 5.41032600402832, 20.735158920288086, -47.37696075439453, -75.623779296875, -0.530517578125, -0.496826171875, -0.14453125, 0, 
302, 1033629481, 0.2190321683883667, -0.5904301404953003, 0.03388378024101257, -0.7760712504386902, 13.48111343383789, -8.136590957641602, 4.092432022094727, 44.008216857910156, -55.659908294677734, -98.75294494628906, -0.5341796875, -0.510986328125, -0.1328125, 0, 
303, 1033637814, 0.21408617496490479, -0.5941246747970581, 0.025397542864084244, -0.7749548554420471, 12.293354988098145, -7.696564674377441, 4.065028667449951, 39.436222076416016, -72.42504119873047, -119.93809509277344, -0.539306640625, -0.527099609375, -0.118408203125, 0, 
304, 1033646147, 0.20659154653549194, -0.5992055535316467, 0.01773422583937645, -0.7732887864112854, 11.749984741210938, -7.270925521850586, 5.083851337432861, 5.574546813964844, -88.43731689453125, -139.3702392578125, -0.543701171875, -0.544677734375, -0.1015625, 0, 
305, 1033654480, 0.19606754183769226, -0.6052881479263306, 0.01113920658826828, -0.771412193775177, 11.875834465026855, -6.938881874084473, 6.5709710121154785, -33.65199661254883, -96.99057006835938, -162.30442810058594, -0.552978515625, -0.558349609375, -0.08251953125, 0, 
306, 1033662813, 0.18306289613246918, -0.6118042469024658, 0.004443012177944183, -0.7695329785346985, 12.162497520446777, -7.208455562591553, 6.547677993774414, -54.38975143432617, -101.56561279296875, -189.6481475830078, -0.55810546875, -0.57666015625, -0.061279296875, 0, 
307, 1033671146, 0.16887272894382477, -0.6183512210845947, -0.0037782909348607063, -0.7675460577011108, 13.058869361877441, -7.4392991065979, 5.396792888641357, -48.314395904541016, -106.5108642578125, -214.64141845703125, -0.56005859375, -0.59765625, -0.038330078125, 0, 
308, 1033679479, 0.15431034564971924, -0.6246758103370667, -0.013963530771434307, -0.765369713306427, 14.348528861999512, -7.3768744468688965, 4.870591163635254, -30.219444274902344, -110.41092681884766, -234.96026611328125, -0.56298828125, -0.6220703125, -0.01318359375, 0, 
309, 1033687812, 0.13901826739311218, -0.6307343244552612, -0.02543139085173607, -0.7630326747894287, 15.28234577178955, -7.334387302398682, 5.078305721282959, -22.394380569458008, -111.8062973022461, -253.26358032226562, -0.561767578125, -0.651123046875, 0.015625, 0, 
310, 1033696145, 0.12229637801647186, -0.6366249322891235, -0.03732433170080185, -0.7605109214782715, 15.685039520263672, -7.103451728820801, 5.309983730316162, -29.94805145263672, -113.00579071044922, -271.7706604003906, -0.562255859375, -0.68017578125, 0.044189453125, 0, 
311, 1033704478, 0.10412250459194183, -0.6422054171562195, -0.04975883662700653, -0.7578073143959045, 15.617060661315918, -6.38550329208374, 5.8131537437438965, -36.385581970214844, -112.97135162353516, -291.4555358886719, -0.55322265625, -0.709716796875, 0.070068359375, 0, 
312, 1033712811, 0.08520108461380005, -0.6471940875053406, -0.06360231339931488, -0.7548857927322388, 15.013046264648438, -4.562406063079834, 5.0067830085754395, -27.304763793945312, -111.29951477050781, -311.8848571777344, -0.547607421875, -0.7392578125, 0.09765625, 0, 
313, 1033721144, 0.06693486869335175, -0.6515892744064331, -0.07995156943798065, -0.7513829469680786, 15.273048400878906, -2.4449234008789062, 3.99367618560791, 5.74462366104126, -112.63935089111328, -327.13885498046875, -0.5322265625, -0.778564453125, 0.127685546875, 0, 
314, 1033729477, 0.04972805082798004, -0.6555813550949097, -0.09812773019075394, -0.7470800280570984, 16.02999496459961, -1.033097505569458, 3.171388864517212, 35.36860656738281, -116.19759368896484, -332.3581848144531, -0.523193359375, -0.809326171875, 0.162109375, 0, 
315, 1033737810, 0.033277593553066254, -0.6593145728111267, -0.11708115041255951, -0.7419611215591431, 16.820911407470703, -0.555978000164032, 3.102799892425537, 51.44556427001953, -120.37496948242188, -331.30657958984375, -0.50634765625, -0.843994140625, 0.2001953125, 0, 
316, 1033746143, 0.017455877736210823, -0.6626698970794678, -0.13659226894378662, -0.7361546754837036, 17.07842254638672, -0.5616900324821472, 3.2565243244171143, 64.124755859375, -122.02738189697266, -330.3218688964844, -0.486328125, -0.8740234375, 0.236083984375, 0, 
317, 1033754476, 0.0026817768812179565, -0.6656714677810669, -0.15712961554527283, -0.7295218706130981, 16.312528610229492, -0.9097352027893066, 3.2817575931549072, 85.69464874267578, -124.22453308105469, -329.4607238769531, -0.466552734375, -0.905517578125, 0.275146484375, 0, 
318, 1033762809, -0.011225245893001556, -0.6684505939483643, -0.17843331396579742, -0.7219604253768921, 15.975064277648926, -1.0437670946121216, 3.054885149002075, 103.34056854248047, -128.68215942382812, -328.2999572753906, -0.44482421875, -0.93115234375, 0.31884765625, 0, 
319, 1033771142, -0.024818038567900658, -0.6708410978317261, -0.19968385994434357, -0.7137925624847412, 16.59662437438965, -0.47303348779678345, 2.135194778442383, 107.12841796875, -129.60398864746094, -325.6716613769531, -0.421630859375, -0.95556640625, 0.361083984375, 0, 
320, 1033779475, -0.03812222182750702, -0.6728881001472473, -0.22040458023548126, -0.7051293253898621, 16.900728225708008, -0.22751177847385406, 0.4388783276081085, 105.83454132080078, -130.2200469970703, -319.1277770996094, -0.39306640625, -0.975830078125, 0.40478515625, 0, 
321, 1033787808, -0.05148531496524811, -0.674899160861969, -0.24000252783298492, -0.6958999633789062, 16.61248779296875, 0.2002619057893753, 0.6437935829162598, 96.09207153320312, -135.85116577148438, -309.65850830078125, -0.36474609375, -0.991455078125, 0.443603515625, 0, 
322, 1033796141, -0.06534332782030106, -0.6769648194313049, -0.25831884145736694, -0.686103343963623, 16.541351318359375, 1.356431484222412, 1.1705328226089478, 81.1494369506836, -144.20425415039062, -302.7744445800781, -0.3369140625, -1.008544921875, 0.486572265625, 0, 
323, 1033804474, -0.07992343604564667, -0.6788787841796875, -0.2751438021659851, -0.6760542392730713, 16.285621643066406, 3.6371068954467773, 0.961458683013916, 61.110652923583984, -149.00587463378906, -296.42572021484375, -0.307861328125, -1.02001953125, 0.522216796875, 0, 
324, 1033812807, -0.09402426332235336, -0.6806577444076538, -0.2913927137851715, -0.6655614972114563, 15.838565826416016, 5.024641513824463, -0.5969079732894897, 61.76423263549805, -150.73565673828125, -287.63037109375, -0.27294921875, -1.029296875, 0.5634765625, 0, 
325, 1033821140, -0.10726428031921387, -0.6823105812072754, -0.3072724938392639, -0.6546356081962585, 15.619860649108887, 5.054685592651367, -0.7328506708145142, 68.0079574584961, -150.6416473388672, -277.3328857421875, -0.244384765625, -1.04052734375, 0.596435546875, 0, 
326, 1033829473, -0.12129274755716324, -0.6835115551948547, -0.32154983282089233, -0.6439902186393738, 15.494571685791016, 4.747461318969727, -0.4289948344230652, 44.338104248046875, -149.65721130371094, -270.9156494140625, -0.209228515625, -1.042236328125, 0.6328125, 0, 
327, 1033837806, -0.1364271640777588, -0.6839941740036011, -0.33428776264190674, -0.6338839530944824, 15.236063003540039, 4.812824249267578, -1.2529315948486328, 16.719289779663086, -145.66773986816406, -268.4975280761719, -0.17333984375, -1.05078125, 0.65869140625, 0, 
328, 1033846139, -0.1520915925502777, -0.6838365793228149, -0.34610068798065186, -0.6240734457969666, 14.87105941772461, 5.0932769775390625, -1.101989507675171, 1.1150387525558472, -141.49371337890625, -266.8227844238281, -0.1396484375, -1.056884765625, 0.685546875, 0, 
329, 1033854472, -0.16809111833572388, -0.6830569505691528, -0.3571978211402893, -0.6144964694976807, 14.526034355163574, 5.533315658569336, -0.8132800459861755, -10.600850105285645, -137.03903198242188, -265.431884765625, -0.09814453125, -1.06787109375, 0.702880859375, 0, 
330, 1033862805, -0.18365478515625, -0.6817920804023743, -0.36809372901916504, -0.6049420833587646, 14.134905815124512, 5.760934352874756, -1.1422849893569946, -9.430594444274902, -131.0620574951172, -262.19647216796875, -0.06201171875, -1.065673828125, 0.724609375, 0, 
331, 1033871138, -0.19894391298294067, -0.6801885366439819, -0.3785988688468933, -0.5953531861305237, 13.70813274383545, 5.486898899078369, -0.882243275642395, -10.798728942871094, -128.1612091064453, -258.05352783203125, -0.024169921875, -1.069580078125, 0.7431640625, 0, 
332, 1033879471, -0.2139960676431656, -0.678325891494751, -0.38876184821128845, -0.5856291055679321, 13.686031341552734, 5.463839530944824, -1.2012443542480469, -11.378296852111816, -127.01112365722656, -254.62606811523438, 0.015869140625, -1.0703125, 0.76025390625, 0, 
333, 1033887804, -0.2286178022623062, -0.6761040687561035, -0.3986705541610718, -0.5759308934211731, 13.58708667755127, 5.373459815979004, -0.7107237577438354, -10.61823844909668, -122.32553100585938, -250.6490936279297, 0.0556640625, -1.072998046875, 0.773193359375, 0, 
334, 1033896137, -0.2426164299249649, -0.67371666431427, -0.4082612693309784, -0.566200852394104, 13.419498443603516, 4.942266941070557, -0.35172975063323975, -7.677008152008057, -118.8886947631836, -243.74945068359375, 0.09423828125, -1.073974609375, 0.78662109375, 0, 
335, 1033904470, -0.25519707798957825, -0.6713346242904663, -0.4176722466945648, -0.5565531849861145, 12.969316482543945, 4.489227294921875, -0.47883665561676025, 3.605783700942993, -110.81676483154297, -230.76400756835938, 0.135009765625, -1.070556640625, 0.798095703125, 0, 
336, 1033912803, -0.26652902364730835, -0.6691965460777283, -0.4265930652618408, -0.5469681024551392, 12.237086296081543, 4.5724196434021, 0.26565033197402954, 11.889440536499023, -106.64350891113281, -215.02914428710938, 0.171875, -1.06298828125, 0.81103515625, 0, 
337, 1033921136, -0.2764633297920227, -0.6675263047218323, -0.435081422328949, -0.5373064875602722, 11.954545021057129, 5.440342426300049, -0.6512255668640137, 23.65163803100586, -104.27210235595703, -198.1214141845703, 0.202392578125, -1.0595703125, 0.82373046875, 0, 
338, 1033929469, -0.2846323549747467, -0.6664361953735352, -0.44348037242889404, -0.5274372696876526, 11.52541732788086, 5.997947692871094, -1.8984543085098267, 42.6539306640625, -100.22102355957031, -181.52395629882812, 0.23388671875, -1.052734375, 0.83544921875, 0, 
339, 1033937802, -0.2915848195552826, -0.6658287644386292, -0.45131075382232666, -0.5176739692687988, 10.971790313720703, 6.222114562988281, -1.3266645669937134, 50.914188385009766, -97.58773040771484, -164.19558715820312, 0.25537109375, -1.042724609375, 0.851806640625, 0, 
340, 1033946135, -0.29769277572631836, -0.6656145453453064, -0.45788049697875977, -0.5086249113082886, 10.670286178588867, 7.109480857849121, -1.2257248163223267, 46.825313568115234, -93.62911987304688, -141.27182006835938, 0.28515625, -1.037109375, 0.86279296875, 0, 
341, 1033954468, -0.3022773861885071, -0.6658822894096375, -0.46364256739616394, -0.5002822875976562, 10.59865951538086, 8.058052062988281, -2.6993300914764404, 52.632816314697266, -84.28499603271484, -117.37610626220703, 0.30419921875, -1.02734375, 0.875, 0, 
342, 1033962801, -0.305477499961853, -0.6667114496231079, -0.46866676211357117, -0.4924922287464142, 10.244598388671875, 8.678411483764648, -2.618250608444214, 59.056739807128906, -77.29077911376953, -95.13700866699219, 0.31982421875, -1.019287109375, 0.889892578125, 0, 
343, 1033971134, -0.30763280391693115, -0.6679186820983887, -0.4727625250816345, -0.48555096983909607, 10.558374404907227, 8.983640670776367, -3.635448932647705, 58.453243255615234, -69.28424072265625, -73.63976287841797, 0.3330078125, -1.01220703125, 0.899169921875, 0, 
344, 1033979467, -0.3083818256855011, -0.6694033741950989, -0.476216197013855, -0.4796201288700104, 10.847010612487793, 9.140168190002441, -3.854506492614746, 61.69832229614258, -55.38050842285156, -52.18130874633789, 0.34033203125, -1.003662109375, 0.9091796875, 0, 
345, 1033987800, -0.30828461050987244, -0.6708419919013977, -0.4787636995315552, -0.4751151502132416, 11.428143501281738, 9.981142044067383, -4.285595893859863, 53.967918395996094, -40.31011962890625, -32.61899948120117, 0.345703125, -0.997802734375, 0.920654296875, 0, 
346, 1033996133, -0.3074808716773987, -0.6721566319465637, -0.4805397093296051, -0.47197461128234863, 11.550443649291992, 10.990011215209961, -5.169506072998047, 45.94690704345703, -25.474742889404297, -15.811515808105469, 0.349609375, -0.993896484375, 0.92919921875, 0, 
347, 1034004466, -0.30647775530815125, -0.6734219193458557, -0.48089510202407837, -0.470458984375, 10.071077346801758, 11.777445793151855, -3.8669826984405518, 27.60983657836914, -14.893549919128418, 5.0346360206604, 0.345947265625, -0.98828125, 0.9365234375, 0, 
348, 1034012799, -0.30561119318008423, -0.6750150322914124, -0.47951969504356384, -0.47014307975769043, 9.244086265563965, 13.100186347961426, -4.38737154006958, 8.609002113342285, -14.033114433288574, 27.527307510375977, 0.343505859375, -0.9892578125, 0.93408203125, 0, 
349, 1034021132, -0.30476510524749756, -0.6767439246177673, -0.4770735502243042, -0.47069549560546875, 9.044839859008789, 12.953788757324219, -5.185863494873047, -3.6713454723358154, -11.557162284851074, 41.74211502075195, 0.33740234375, -0.988525390625, 0.931884765625, 0, 
350, 1034029465, -0.3040420413017273, -0.6784769296646118, -0.4733906090259552, -0.4723837673664093, 8.032816886901855, 11.983848571777344, -4.0211710929870605, -20.241456985473633, -6.931312084197998, 57.37769317626953, 0.3291015625, -0.992431640625, 0.928466796875, 0, 
351, 1034037798, -0.3026176989078522, -0.6803776025772095, -0.4685022234916687, -0.4754280745983124, 6.7960333824157715, 11.072383880615234, -4.471835136413574, -29.673036575317383, 4.07847785949707, 79.7979965209961, 0.3212890625, -0.99267578125, 0.923583984375, 0, 
352, 1034046131, -0.2998316287994385, -0.682750403881073, -0.46278640627861023, -0.4793734848499298, 5.042569637298584, 9.150032997131348, -5.652892112731934, -26.167192459106445, 14.828767776489258, 103.37810516357422, 0.309814453125, -1, 0.916748046875, 0, 
353, 1034054464, -0.29571977257728577, -0.6858006715774536, -0.45651260018348694, -0.4835711419582367, 4.125119686126709, 7.481870174407959, -5.3869733810424805, -16.223857879638672, 18.789554595947266, 122.55553436279297, 0.2939453125, -1.0048828125, 0.90869140625, 0, 
354, 1034062797, -0.2900243103504181, -0.6894128918647766, -0.44996145367622375, -0.4880041778087616, 4.089809894561768, 7.089035987854004, -5.186623573303223, -2.3115599155426025, 26.16502571105957, 140.34104919433594, 0.266845703125, -1.01220703125, 0.904296875, 0, 
355, 1034071130, -0.2825417220592499, -0.6934764981269836, -0.44327181577682495, -0.4927351474761963, 3.9856550693511963, 6.9799909591674805, -5.683530807495117, 13.637346267700195, 36.388641357421875, 157.4732666015625, 0.243896484375, -1.01318359375, 0.894287109375, 0, 
356, 1034079463, -0.273525595664978, -0.6979308128356934, -0.4362925589084625, -0.497737318277359, 3.9564969539642334, 7.041845321655273, -5.185898303985596, 26.18577003479004, 44.628761291503906, 174.2179718017578, 0.211669921875, -1.01708984375, 0.89599609375, 0, 
357, 1034087796, -0.26319363713264465, -0.7025362253189087, -0.42880842089653015, -0.5033015608787537, 4.015673637390137, 7.425008773803711, -4.8426032066345215, 32.52629852294922, 54.908172607421875, 190.93670654296875, 0.18310546875, -1.017822265625, 0.890380859375, 0, 
358, 1034096129, -0.2518906593322754, -0.7069817781448364, -0.4207468628883362, -0.5096244215965271, 3.8864290714263916, 7.609908103942871, -4.537484645843506, 32.888824462890625, 67.05603790283203, 205.19708251953125, 0.14990234375, -1.015625, 0.88818359375, 0, 
359, 1034104462, -0.2399134337902069, -0.7110907435417175, -0.41195258498191833, -0.5168210864067078, 3.4890615940093994, 7.889306545257568, -4.173924446105957, 28.05217742919922, 79.20024871826172, 217.97122192382812, 0.11328125, -1.016845703125, 0.878662109375, 0, 
360, 1034112795, -0.22729402780532837, -0.7148066759109497, -0.40239429473876953, -0.5248668193817139, 3.261310338973999, 8.034713745117188, -4.4015936851501465, 22.829410552978516, 91.49036407470703, 230.73553466796875, 0.078857421875, -1.016845703125, 0.869140625, 0, 
361, 1034121128, -0.2138839215040207, -0.718143880367279, -0.39227813482284546, -0.5335339307785034, 2.7431650161743164, 7.407193660736084, -4.2043328285217285, 21.913911819458008, 102.89028930664062, 241.62313842773438, 0.038330078125, -1.01708984375, 0.857421875, 0, 
362, 1034129461, -0.19988298416137695, -0.7211179733276367, -0.3816753029823303, -0.5425653457641602, 2.533827543258667, 6.498578071594238, -3.123518466949463, 21.185422897338867, 110.9823226928711, 250.03082275390625, -0.00244140625, -1.016357421875, 0.84423828125, 0, 
363, 1034137794, -0.18507300317287445, -0.7236566543579102, -0.3707049787044525, -0.5519640445709229, 2.156022787094116, 5.914041996002197, -2.847259759902954, 23.301952362060547, 121.04598236083984, 258.2869567871094, -0.0380859375, -1.01123046875, 0.83203125, 0, 
364, 1034146127, -0.16976779699325562, -0.7256624698638916, -0.3592891991138458, -0.5617132782936096, 1.3620470762252808, 5.416355133056641, -2.1722419261932373, 21.744945526123047, 130.03416442871094, 264.8076477050781, -0.07861328125, -1.007080078125, 0.811767578125, 0, 
365, 1034154460, -0.1541208028793335, -0.7271078824996948, -0.3474479913711548, -0.571715235710144, 0.7516413927078247, 5.312027931213379, -2.0380187034606934, 19.275108337402344, 137.52328491210938, 269.3697509765625, -0.12060546875, -0.99853515625, 0.791015625, 0, 
366, 1034162793, -0.13802838325500488, -0.7280194759368896, -0.3355388045310974, -0.5816932916641235, 0.42981332540512085, 5.355773448944092, -1.721283197402954, 22.215486526489258, 143.52552795410156, 271.0971374511719, -0.161865234375, -0.993896484375, 0.772705078125, 0, 
367, 1034171126, -0.12179641425609589, -0.7284240126609802, -0.3235854506492615, -0.5915014147758484, -0.3191612660884857, 4.467426300048828, -1.3687126636505127, 23.04581069946289, 146.38453674316406, 269.8531799316406, -0.199951171875, -0.985107421875, 0.75048828125, 0, 
368, 1034179459, -0.1055113822221756, -0.7283936738967896, -0.3116762340068817, -0.6009870171546936, -1.0831522941589355, 4.0807695388793945, -0.8732683062553406, 24.677860260009766, 147.05772399902344, 267.50604248046875, -0.23876953125, -0.976318359375, 0.72900390625, 0, 
369, 1034187792, -0.08919711410999298, -0.7279137372970581, -0.29986268281936646, -0.6101518869400024, -1.5849910974502563, 3.4258763790130615, -0.1471206396818161, 26.453285217285156, 147.7729034423828, 264.2646179199219, -0.2734375, -0.96337890625, 0.705810546875, 0, 
370, 1034196125, -0.07303190976381302, -0.7269663214683533, -0.28801655769348145, -0.6190721392631531, -2.495147943496704, 3.054918050765991, -0.5272603034973145, 25.1546688079834, 148.6424560546875, 261.24383544921875, -0.305419921875, -0.953857421875, 0.6787109375, 0, 
371, 1034204458, -0.05741613730788231, -0.72568279504776, -0.27619343996047974, -0.6275526881217957, -3.3240621089935303, 3.3538622856140137, -0.8492016196250916, 21.231290817260742, 144.90853881835938, 254.43829345703125, -0.339599609375, -0.93798828125, 0.65478515625, 0, 
372, 1034212791, -0.042665764689445496, -0.7241935729980469, -0.26454153656959534, -0.635420024394989, -3.683873414993286, 3.788889169692993, -0.7757096290588379, 16.26799964904785, 137.45802307128906, 244.11904907226562, -0.365966796875, -0.925048828125, 0.628662109375, 0, 
373, 1034221124, -0.02909449115395546, -0.7224040627479553, -0.25294795632362366, -0.6429002285003662, -3.822038173675537, 3.58160400390625, -0.0910036712884903, 6.241697311401367, 131.92733764648438, 231.79725646972656, -0.392333984375, -0.916015625, 0.6005859375, 0, 
374, 1034229457, -0.01658586412668228, -0.7203460335731506, -0.24129034578800201, -0.6500945687294006, -4.089357852935791, 2.779208183288574, 0.12176725268363953, -3.9691169261932373, 127.78067016601562, 222.10519409179688, -0.414794921875, -0.90185546875, 0.575439453125, 0, 
375, 1034237790, -0.004751652479171753, -0.7179297804832458, -0.2296302318572998, -0.6571463942527771, -3.8835418224334717, 1.9986644983291626, -0.09628608077764511, -10.298128128051758, 127.2970199584961, 214.77291870117188, -0.438232421875, -0.8896484375, 0.5478515625, 0, 
376, 1034246123, 0.006497420370578766, -0.7151380777359009, -0.21820618212223053, -0.6640320420265198, -3.3737399578094482, 1.5379234552383423, -0.12025342136621475, -13.424053192138672, 127.25508880615234, 206.06289672851562, -0.45263671875, -0.8740234375, 0.522216796875, 0, 
377, 1034254456, 0.017091834917664528, -0.7119865417480469, -0.20716232061386108, -0.6707342863082886, -2.804356575012207, 1.4712601900100708, 0.2748667597770691, -15.823554039001465, 126.70114135742188, 195.18362426757812, -0.469482421875, -0.862548828125, 0.4931640625, 0, 
378, 1034262789, 0.027463041245937347, -0.7083847522735596, -0.1965637356042862, -0.6773606538772583, -2.249840021133423, 2.0449635982513428, -0.4656853675842285, -13.564894676208496, 129.40609741210938, 187.5965576171875, -0.483154296875, -0.852294921875, 0.4658203125, 0, 
379, 1034271122, 0.038131315261125565, -0.7042195796966553, -0.18678030371665955, -0.6839234232902527, -2.1659090518951416, 2.532635450363159, -1.9194427728652954, -2.704036235809326, 134.49630737304688, 180.8348846435547, -0.494140625, -0.8388671875, 0.438720703125, 0, 
380, 1034279455, 0.048004068434238434, -0.6998025178909302, -0.17728307843208313, -0.690333366394043, -2.551391124725342, 2.569528102874756, -0.4197416305541992, -7.179965019226074, 133.22494506835938, 170.10279846191406, -0.51025390625, -0.8291015625, 0.41259765625, 0, 
381, 1034287788, 0.056829020380973816, -0.6953837275505066, -0.16780716180801392, -0.6964697241783142, -2.5875244140625, 2.772465944290161, 0.4483427405357361, -16.40363311767578, 128.0093536376953, 160.04251098632812, -0.5185546875, -0.818359375, 0.381103515625, 0, 
382, 1034296121, 0.06568998098373413, -0.6910821795463562, -0.15899696946144104, -0.7020168900489807, -2.5322377681732178, 2.86662220954895, 0.9355699419975281, -8.404316902160645, 120.84307861328125, 154.83547973632812, -0.529541015625, -0.808349609375, 0.35595703125, 0, 
383, 1034304454, 0.07439859956502914, -0.686866044998169, -0.150268092751503, -0.7071893811225891, -2.0484206676483154, 3.447105884552002, 0.39066141843795776, -8.333272933959961, 116.0266342163086, 153.0410614013672, -0.53271484375, -0.790771484375, 0.33740234375, 0, 
384, 1034312787, 0.08321437984704971, -0.6826738715171814, -0.1418255716562271, -0.7119935154914856, -1.6023547649383545, 4.45058536529541, -1.440540075302124, -3.792102336883545, 112.26737213134766, 151.88101196289062, -0.54248046875, -0.78515625, 0.307373046875, 0, 
385, 1034321120, 0.09163141250610352, -0.6788218021392822, -0.13348840177059174, -0.7162423133850098, -1.5459353923797607, 5.195897102355957, -0.7028722763061523, -5.815558910369873, 102.79920196533203, 148.21861267089844, -0.546875, -0.772216796875, 0.286865234375, 0, 
386, 1034329453, 0.09890235960483551, -0.675342857837677, -0.12454268336296082, -0.7201645970344543, -0.9378414750099182, 6.05640172958374, -0.10030829161405563, -22.373310089111328, 94.76327514648438, 143.7736053466797, -0.551025390625, -0.76318359375, 0.26123046875, 0, 
387, 1034337786, 0.10646791756153107, -0.6718872785568237, -0.11625295877456665, -0.7236952185630798, -0.334172785282135, 5.903279781341553, -0.46286317706108093, -12.5037202835083, 90.48507690429688, 141.11972045898438, -0.560546875, -0.751708984375, 0.2412109375, 0, 
388, 1034346119, 0.11358897387981415, -0.6684556603431702, -0.10767786204814911, -0.7271090745925903, 0.48705539107322693, 5.315117835998535, 0.15137358009815216, -19.297338485717773, 88.89823150634766, 139.593994140625, -0.562255859375, -0.736572265625, 0.22119140625, 0, 
389, 1034354452, 0.11908173561096191, -0.6650673151016235, -0.09747190028429031, -0.7307679057121277, 1.241816520690918, 5.593117713928223, -0.6241624355316162, -51.00395202636719, 90.82950592041016, 137.94967651367188, -0.56640625, -0.723388671875, 0.19677734375, 0, 
390, 1034362785, 0.12382787466049194, -0.6620354652404785, -0.08683662116527557, -0.73406583070755, 2.0617117881774902, 6.563841342926025, -1.1406164169311523, -62.24561309814453, 83.67279052734375, 135.4794921875, -0.568115234375, -0.709228515625, 0.180419921875, 0, 
391, 1034371118, 0.12769536674022675, -0.6591557860374451, -0.07604433596134186, -0.7371854186058044, 3.4531826972961426, 7.254688262939453, -2.4578917026519775, -71.87271118164062, 79.71048736572266, 128.50181579589844, -0.57080078125, -0.697509765625, 0.154296875, 0, 
392, 1034379451, 0.13041403889656067, -0.6563899517059326, -0.06531506776809692, -0.740199863910675, 4.167416572570801, 6.873672962188721, -2.2258517742156982, -81.7397689819336, 76.31288146972656, 116.6093521118164, -0.57373046875, -0.687255859375, 0.135009765625, 0, 
393, 1034387784, 0.13177011907100677, -0.6538273692131042, -0.054309360682964325, -0.7431111931800842, 4.411746978759766, 5.467957496643066, -0.5899920463562012, -97.12799072265625, 72.56657409667969, 105.6009292602539, -0.573974609375, -0.671875, 0.1162109375, 0, 
394, 1034396117, 0.1323777288198471, -0.651319682598114, -0.043141573667526245, -0.7459322810173035, 4.33531379699707, 3.6798365116119385, 0.2491436004638672, -105.54190826416016, 70.94526672363281, 99.61567687988281, -0.572265625, -0.6640625, 0.09326171875, 0, 
395, 1034404450, 0.13327950239181519, -0.6487444639205933, -0.03237759321928024, -0.7485561370849609, 4.361562252044678, 2.009079933166504, -0.1539337933063507, -98.52801513671875, 69.30255889892578, 99.35151672363281, -0.572998046875, -0.6513671875, 0.072998046875, 0, 
396, 1034412783, 0.13519427180290222, -0.6461198925971985, -0.022509174421429634, -0.7508412003517151, 4.710946083068848, 0.7692673206329346, -0.07932242006063461, -80.02852630615234, 65.607177734375, 102.3729019165039, -0.57177734375, -0.642333984375, 0.05419921875, 0, 
397, 1034421116, 0.13884180784225464, -0.6432844996452332, -0.014248935505747795, -0.7528097629547119, 5.410723686218262, -0.07357767224311829, -0.4421851933002472, -47.54108810424805, 62.507118225097656, 106.52342987060547, -0.572509765625, -0.628662109375, 0.038818359375, 0, 
398, 1034429449, 0.1445004940032959, -0.6401602029800415, -0.008010078221559525, -0.7544983625411987, 6.376617908477783, 0.07067364454269409, -1.1007086038589478, -8.215072631835938, 59.56764602661133, 109.91248321533203, -0.57080078125, -0.617431640625, 0.0224609375, 0, 
399, 1034437782, 0.15157708525657654, -0.636708676815033, -0.0033645769581198692, -0.7560638189315796, 7.779721736907959, 1.5099488496780396, -1.3324172496795654, 21.46063995361328, 58.86046600341797, 110.83736419677734, -0.57080078125, -0.60498046875, 0.00927734375, 0, 
400, 1034446115, 0.1599770486354828, -0.6325533986091614, -0.0006385957822203636, -0.7578262686729431, 9.422764778137207, 3.565878391265869, -2.9705042839050293, 54.465576171875, 63.97014617919922, 107.31710815429688, -0.56884765625, -0.59912109375, -0.004638671875, 0, 
401, 1034454448, 0.16807352006435394, -0.6276135444641113, 0.0012905774638056755, -0.7601763606071472, 11.138859748840332, 4.914333343505859, -3.8057141304016113, 77.73090362548828, 71.96165466308594, 99.47930908203125, -0.563720703125, -0.586181640625, -0.01806640625, 0, 
402, 1034462781, 0.1762697994709015, -0.6219490170478821, 0.0022914521396160126, -0.7629683017730713, 13.688708305358887, 5.956594944000244, -3.0814714431762695, 74.09956359863281, 84.74405670166016, 87.9455337524414, -0.56494140625, -0.58251953125, -0.03125, 0, 
403, 1034471114, 0.18356820940971375, -0.6152826547622681, 0.003648051992058754, -0.7666381001472473, 14.375099182128906, 6.438299179077148, -3.109135389328003, 65.1410903930664, 103.67000579833984, 79.52619171142578, -0.56201171875, -0.57861328125, -0.042724609375, 0, 
404, 1034479447, 0.1900932490825653, -0.608849287033081, 0.00626800674945116, -0.7701591849327087, 13.110419273376465, 6.5588788986206055, -0.8153497576713562, 44.686580657958984, 103.16751861572266, 82.3711166381836, -0.5498046875, -0.57177734375, -0.060791015625, 0, 
405, 1034487780, 0.19589513540267944, -0.6033950448036194, 0.010292149148881435, -0.7729493975639343, 12.78399658203125, 6.1120781898498535, 1.324157476425171, 21.12652587890625, 90.4476318359375, 88.37403106689453, -0.5478515625, -0.569580078125, -0.079345703125, 0, 
406, 1034496113, 0.2012578248977661, -0.5987622141838074, 0.015049241483211517, -0.7750932574272156, 13.04355525970459, 4.982820987701416, 2.282526969909668, 7.397575855255127, 78.35314178466797, 91.33403778076172, -0.544921875, -0.559326171875, -0.09326171875, 0, 
407, 1034504446, 0.20605425536632538, -0.5950040817260742, 0.020349424332380295, -0.7766050100326538, 13.99064826965332, 3.7622368335723877, 2.9784340858459473, -5.615113258361816, 65.48950958251953, 91.44703674316406, -0.5390625, -0.551025390625, -0.105712890625, 0, 
408, 1034512779, 0.21011844277381897, -0.5917613506317139, 0.0261515025049448, -0.7778191566467285, 15.51349925994873, 2.7269365787506104, 3.004141092300415, -18.499008178710938, 59.133628845214844, 88.32342529296875, -0.536376953125, -0.540283203125, -0.122314453125, 0, 
409, 1034521112, 0.21370430290699005, -0.5889135003089905, 0.03187339007854462, -0.7787894010543823, 16.245527267456055, 1.1987017393112183, 2.777784585952759, -22.778867721557617, 52.91252899169922, 83.2490005493164, -0.532470703125, -0.53125, -0.132568359375, 0, 
410, 1034529445, 0.21723923087120056, -0.5868334174156189, 0.036728113889694214, -0.7791677117347717, 16.62334632873535, -0.9405766725540161, 2.969949960708618, -16.40467071533203, 37.32314682006836, 76.95158386230469, -0.53125, -0.521240234375, -0.137939453125, 0, 
411, 1034537778, 0.22063815593719482, -0.5855603814125061, 0.040489859879016876, -0.7789837718009949, 17.221349716186523, -3.1124486923217773, 3.7524805068969727, -8.50484848022461, 20.9947509765625, 68.10063934326172, -0.527587890625, -0.511962890625, -0.150634765625, 0, 
412, 1034546111, 0.2237074077129364, -0.5848385691642761, 0.04318331182003021, -0.7785058617591858, 17.559457778930664, -4.808682441711426, 4.385427474975586, -1.5334649085998535, 9.612692832946777, 56.3980827331543, -0.530517578125, -0.504150390625, -0.151611328125, 0, 
413, 1034554444, 0.22636599838733673, -0.5843874216079712, 0.04452969506382942, -0.7780001163482666, 17.881698608398438, -5.865220546722412, 4.293415069580078, 8.720686912536621, 2.650360107421875, 41.25645446777344, -0.52734375, -0.49755859375, -0.15234375, 0, 
414, 1034562777, 0.22881782054901123, -0.5838731527328491, 0.04421417415142059, -0.7776870131492615, 18.122282028198242, -6.164302349090576, 3.6738927364349365, 25.166948318481445, -0.23255188763141632, 24.965003967285156, -0.530517578125, -0.494384765625, -0.154296875, 0, 
415, 1034571110, 0.23129504919052124, -0.5831189751625061, 0.0421261265873909, -0.7776359915733337, 17.76759147644043, -5.963683128356934, 2.930701732635498, 45.22900390625, -1.087492823600769, 10.49222469329834, -0.529052734375, -0.493896484375, -0.153564453125, 0, 
416, 1034579443, 0.23372603952884674, -0.5822186470031738, 0.03855156898498535, -0.7777693867683411, 17.245058059692383, -5.651351451873779, 2.453287124633789, 61.339332580566406, -2.8146424293518066, -2.590158700942993, -0.52783203125, -0.49609375, -0.150634765625, 0, 
417, 1034587776, 0.2358873337507248, -0.5812519788742065, 0.03364796191453934, -0.7780672907829285, 16.71184730529785, -5.611416339874268, 2.236145257949829, 73.68186950683594, -4.837605953216553, -16.440223693847656, -0.53076171875, -0.504150390625, -0.150634765625, 0, 
418, 1034596109, 0.23756559193134308, -0.5805318355560303, 0.02731340378522873, -0.7783424258232117, 15.45539379119873, -6.251143932342529, 2.257438898086548, 84.33583068847656, -12.155887603759766, -33.25556564331055, -0.5283203125, -0.51123046875, -0.144775390625, 0, 
419, 1034604442, 0.23820455372333527, -0.580617368221283, 0.019709067419171333, -0.7783129811286926, 13.87050724029541, -7.293542861938477, 3.2816030979156494, 86.86991882324219, -26.87497329711914, -53.65537643432617, -0.52978515625, -0.521240234375, -0.13720703125, 0, 
420, 1034612775, 0.23677027225494385, -0.5821331143379211, 0.01164916343986988, -0.7777804732322693, 12.411858558654785, -8.029722213745117, 5.439620494842529, 70.38424682617188, -47.22111129760742, -78.39138793945312, -0.532470703125, -0.53076171875, -0.127685546875, 0, 
421, 1034621108, 0.2323666661977768, -0.5855361223220825, 0.0038405004888772964, -0.7766310572624207, 11.17678165435791, -8.017755508422852, 7.067534446716309, 37.67558670043945, -70.94752502441406, -106.26940155029297, -0.53955078125, -0.54296875, -0.112548828125, 0, 
422, 1034629441, 0.22502370178699493, -0.5906814336776733, -0.0038402918726205826, -0.7748950719833374, 10.631064414978027, -7.510516166687012, 6.816067218780518, 7.051856994628906, -93.82101440429688, -135.01376342773438, -0.542724609375, -0.558837890625, -0.094482421875, 0, 
423, 1034637774, 0.21542517840862274, -0.5968149304389954, -0.012098878622055054, -0.7728356122970581, 11.216733932495117, -6.791693687438965, 5.691734313964844, -8.161688804626465, -108.78567504882812, -162.54037475585938, -0.549560546875, -0.57470703125, -0.0703125, 0, 
424, 1034646107, 0.20407766103744507, -0.603376030921936, -0.020969629287719727, -0.7706279158592224, 11.93890380859375, -6.329457759857178, 5.0059285163879395, -17.242843627929688, -116.7535171508789, -185.7946319580078, -0.556640625, -0.593994140625, -0.047119140625, 0, 
425, 1034654440, 0.1905757337808609, -0.6104676723480225, -0.02964412048459053, -0.7682113647460938, 12.89958381652832, -6.333404064178467, 5.073428153991699, -38.637596130371094, -124.08822631835938, -206.12030029296875, -0.5595703125, -0.617431640625, -0.024169921875, 0, 
426, 1034662773, 0.17462217807769775, -0.6180536150932312, -0.03763487935066223, -0.765583336353302, 14.04642105102539, -6.411835670471191, 5.27122688293457, -67.64368438720703, -130.3863983154297, -225.66786193847656, -0.562744140625, -0.635986328125, 0.003173828125, 0, 
427, 1034671106, 0.15654981136322021, -0.6257800459861755, -0.045667145401239395, -0.7627733945846558, 14.591432571411133, -6.643123149871826, 5.387467861175537, -85.46983337402344, -134.52650451660156, -247.69033813476562, -0.56640625, -0.6630859375, 0.02880859375, 0, 
428, 1034679439, 0.136389821767807, -0.633338212966919, -0.0540773868560791, -0.7598510384559631, 15.04422378540039, -5.923508644104004, 6.672867774963379, -99.03048706054688, -135.93812561035156, -272.8403015136719, -0.56005859375, -0.684326171875, 0.056640625, 0, 
429, 1034687772, 0.11485560238361359, -0.6401413679122925, -0.06348169595003128, -0.7569773197174072, 16.13368797302246, -4.1288533210754395, 6.41513729095459, -99.243896484375, -130.4394073486328, -296.3953552246094, -0.55517578125, -0.716064453125, 0.088134765625, 0, 
430, 1034696105, 0.09422507882118225, -0.6456478238105774, -0.07569188624620438, -0.7540217041969299, 16.622953414916992, -2.617001533508301, 3.5354409217834473, -59.94745635986328, -121.37715148925781, -312.8122253417969, -0.552001953125, -0.74658203125, 0.112060546875, 0, 
431, 1034704438, 0.07553872466087341, -0.6503971219062805, -0.09109342843294144, -0.7503312230110168, 16.948211669921875, -2.176845073699951, 1.8880544900894165, -7.857661247253418, -122.10296630859375, -320.71435546875, -0.539306640625, -0.78125, 0.1435546875, 0, 
432, 1034712771, 0.05780673772096634, -0.6549882292747498, -0.10781360417604446, -0.7456824779510498, 17.39380645751953, -2.2506814002990723, 3.2078144550323486, 15.664859771728516, -129.27772521972656, -321.9757385253906, -0.52587890625, -0.81201171875, 0.178955078125, 0, 
433, 1034721104, 0.040331967175006866, -0.6593499779701233, -0.1247297152876854, -0.7403315901756287, 16.937376022338867, -2.6190173625946045, 3.6245384216308594, 21.20184326171875, -132.96273803710938, -320.78192138671875, -0.5068359375, -0.84375, 0.21337890625, 0, 
434, 1034729437, 0.023457441478967667, -0.6632733345031738, -0.14220677316188812, -0.7343793511390686, 16.51552391052246, -3.4905142784118652, 3.0349063873291016, 33.64152908325195, -133.29673767089844, -320.27740478515625, -0.491455078125, -0.872802734375, 0.25146484375, 0, 
435, 1034737770, 0.0068823425099253654, -0.6665269136428833, -0.15971405804157257, -0.7281506657600403, 16.2309627532959, -3.1091740131378174, 2.96537446975708, 37.4251708984375, -128.41839599609375, -318.6585998535156, -0.473876953125, -0.900146484375, 0.286376953125, 0, 
436, 1034746103, -0.008996635675430298, -0.6693321466445923, -0.17749683558940887, -0.7214055061340332, 15.619478225708008, -2.0650689601898193, 3.210947036743164, 47.7528190612793, -127.21871948242188, -315.2403259277344, -0.449951171875, -0.9267578125, 0.3193359375, 0, 
437, 1034754436, -0.022600539028644562, -0.6721940636634827, -0.1968964785337448, -0.7133678793907166, 15.745743751525879, -1.838529109954834, 3.770852565765381, 87.88243865966797, -133.87338256835938, -307.5029296875, -0.423095703125, -0.949462890625, 0.36328125, 0, 
438, 1034762769, -0.03510483726859093, -0.6747748255729675, -0.21666255593299866, -0.7046429514884949, 15.99613094329834, -0.9536407589912415, 3.0005130767822266, 103.4330825805664, -134.4279022216797, -301.1484375, -0.401611328125, -0.969970703125, 0.403076171875, 0, 
439, 1034771102, -0.04823177307844162, -0.6767817139625549, -0.2352910190820694, -0.6959137320518494, 15.79401683807373, 1.376833200454712, 1.848762035369873, 86.35194396972656, -131.269287109375, -298.2850341796875, -0.376220703125, -0.98388671875, 0.44189453125, 0, 
440, 1034779435, -0.06200375780463219, -0.6782914400100708, -0.25246158242225647, -0.6872825026512146, 14.742226600646973, 3.440781593322754, 0.6438970565795898, 65.76136779785156, -128.69268798828125, -292.480712890625, -0.346435546875, -0.998046875, 0.47998046875, 0, 
