PacketCounter,SampleTimeFine,Quat_W,Quat_X,Quat_Y,Quat_Z,Acc_X,Acc_Y,Acc_Z,Gyr_X,Gyr_Y,Gyr_Z,Mag_X,Mag_Y,Mag_Z,Status,
0, 3629242319, 0.4568246304988861, 0.5767366886138916, -0.3936334550380707, 0.551142692565918, 0, 0, 0, 0, 0, 0, -0.512451171875, -0.6748046875, -0.049560546875, 0, 
1, 3629250652, 0.4568660259246826, 0.5767021775245667, -0.39368095993995667, 0.5511106252670288, 9.733380317687988, 0.9565072059631348, 0.2884097099304199, -0.40149030089378357, -0.7662882208824158, 0.05268847942352295, -0.51171875, -0.676025390625, -0.05029296875, 0, 
2, 3629258985, 0.4568958580493927, 0.5766738653182983, -0.3937245011329651, 0.5510844588279724, 9.706586837768555, 0.9459420442581177, 0.3307832181453705, -0.2124316543340683, -0.7637011408805847, 0.059245720505714417, -0.51318359375, -0.676025390625, -0.05126953125, 0, 
3, 3629267318, 0.4568973183631897, 0.5766772627830505, -0.393751859664917, 0.5510600209236145, 9.718466758728027, 0.9395185112953186, 0.32880184054374695, 0.3467142879962921, -1.083520531654358, 0.0365259014070034, -0.509765625, -0.67578125, -0.04931640625, 0, 
4, 3629275651, 0.4568931758403778, 0.5766899585723877, -0.3937670588493347, 0.5510392785072327, 9.739039421081543, 0.9661559462547302, 0.3238449692726135, 0.5570327043533325, -1.0380297899246216, -0.09534899145364761, -0.51513671875, -0.676025390625, -0.051025390625, 0, 
5, 3629283984, 0.45691052079200745, 0.5766861438751221, -0.3937879800796509, 0.5510140061378479, 9.751821517944336, 0.9753044247627258, 0.3297174572944641, 0.22161434590816498, -0.9058345556259155, -0.09990832954645157, -0.514404296875, -0.6767578125, -0.052490234375, 0, 
6, 3629292317, 0.45692178606987, 0.5766810774803162, -0.39380455017089844, 0.5509981513023376, 9.741377830505371, 1.00641930103302, 0.3197535276412964, 0.33992648124694824, -0.7900326251983643, -0.07478076219558716, -0.511474609375, -0.675537109375, -0.04931640625, 0, 
7, 3629300650, 0.4569346010684967, 0.5766740441322327, -0.39381498098373413, 0.5509871244430542, 9.739460945129395, 0.9957329630851746, 0.3454394042491913, 0.394151896238327, -0.7293782234191895, -0.04125173017382622, -0.513916015625, -0.676025390625, -0.052001953125, 0, 
8, 3629308983, 0.4569590091705322, 0.5766540169715881, -0.3938392996788025, 0.5509704947471619, 9.7103910446167, 1.0200239419937134, 0.2678167223930359, 0.07886622846126556, -0.65973299741745, -0.037050988525152206, -0.513916015625, -0.67919921875, -0.050537109375, 0, 
9, 3629317316, 0.45697325468063354, 0.5766439437866211, -0.3938615322113037, 0.5509533286094666, 9.71810245513916, 1.013100028038025, 0.2643619179725647, 0.24042800068855286, -0.8205776214599609, 0.019300324842333794, -0.51171875, -0.67724609375, -0.05224609375, 0, 
10, 3629325649, 0.4569753110408783, 0.5766376852989197, -0.3938673436641693, 0.5509539842605591, 9.717000961303711, 0.9949818849563599, 0.27803099155426025, 0.5754749774932861, -0.6319160461425781, 0.019364360719919205, -0.511962890625, -0.677001953125, -0.05419921875, 0, 
11, 3629333982, 0.4569796025753021, 0.5766282081604004, -0.39387503266334534, 0.5509551167488098, 9.695693016052246, 0.99721360206604, 0.31786519289016724, 0.5340567827224731, -0.6433398723602295, 0.09131474047899246, -0.514892578125, -0.675048828125, -0.052978515625, 0, 
12, 3629342315, 0.45698651671409607, 0.5766274333000183, -0.39388707280158997, 0.5509414672851562, 9.698604583740234, 0.9869921803474426, 0.30702146887779236, 0.44721171259880066, -0.7987799048423767, -0.08870209008455276, -0.513916015625, -0.679443359375, -0.053955078125, 0, 
13, 3629350648, 0.4569797217845917, 0.5766371488571167, -0.3938896358013153, 0.5509350895881653, 9.70913314819336, 0.9866202473640442, 0.3060200810432434, 0.739662230014801, -0.8772234320640564, -0.016892587766051292, -0.51611328125, -0.6748046875, -0.047607421875, 0, 
14, 3629358981, 0.456964910030365, 0.5766484141349792, -0.3938833475112915, 0.5509401559829712, 9.67888355255127, 0.951435387134552, 0.31404557824134827, 0.9361490607261658, -0.7440038323402405, -0.015560646541416645, -0.51123046875, -0.677490234375, -0.051513671875, 0, 
15, 3629367314, 0.4569513499736786, 0.5766609907150269, -0.39386802911758423, 0.5509492754936218, 9.706143379211426, 0.9591240882873535, 0.3296172320842743, 1.0300893783569336, -0.6987563371658325, -0.02471773698925972, -0.513916015625, -0.67822265625, -0.056396484375, 0, 
16, 3629375647, 0.45694494247436523, 0.5766754150390625, -0.3938615918159485, 0.550943911075592, 9.715091705322266, 0.9625008702278137, 0.3399460017681122, 0.8392375111579895, -0.8458588719367981, -0.11193420737981796, -0.510009765625, -0.679931640625, -0.05224609375, 0, 
17, 3629383980, 0.4569311738014221, 0.576696515083313, -0.3938531279563904, 0.5509394407272339, 9.722387313842773, 0.9647682905197144, 0.34846505522727966, 0.953131377696991, -0.8755585551261902, -0.1536213755607605, -0.512451171875, -0.675537109375, -0.050048828125, 0, 
18, 3629392313, 0.45691362023353577, 0.5767239332199097, -0.39386266469955444, 0.5509184002876282, 9.774402618408203, 0.9381096363067627, 0.3272783160209656, 0.7976272702217102, -1.1893328428268433, -0.12111690640449524, -0.51171875, -0.67724609375, -0.0546875, 0, 
19, 3629400646, 0.45690983533859253, 0.5767419338226318, -0.39386916160583496, 0.5508979558944702, 9.768221855163574, 0.952572226524353, 0.3188951015472412, 0.6612442135810852, -1.0579702854156494, -0.14156986773014069, -0.51513671875, -0.677978515625, -0.051025390625, 0, 
20, 3629408979, 0.45686304569244385, 0.5767844915390015, -0.39383307099342346, 0.5509180426597595, 9.753393173217773, 0.9241265654563904, 0.36158323287963867, 1.692319631576538, -0.8489581346511841, -0.0857052281498909, -0.5126953125, -0.673583984375, -0.05126953125, 0, 
21, 3629417312, 0.4568173587322235, 0.5768306255340576, -0.3937932848930359, 0.5509361624717712, 9.73687744140625, 0.9089151620864868, 0.3698929250240326, 1.7311638593673706, -0.9019924402236938, -0.10157325118780136, -0.5146484375, -0.678955078125, -0.049560546875, 0, 
22, 3629425645, 0.45682111382484436, 0.5768455266952515, -0.39377275109291077, 0.5509321689605713, 9.716285705566406, 1.0047885179519653, 0.25057125091552734, 0.8690654635429382, -0.654815137386322, -0.3456769287586212, -0.51416015625, -0.677490234375, -0.050537109375, 0, 
23, 3629433978, 0.4568244516849518, 0.576862633228302, -0.3937503397464752, 0.5509275197982788, 9.70391845703125, 1.0697720050811768, 0.23815390467643738, 0.9024662971496582, -0.705249547958374, -0.3204980790615082, -0.51123046875, -0.67822265625, -0.052001953125, 0, 
24, 3629442311, 0.4567979872226715, 0.576900839805603, -0.39371708035469055, 0.550933301448822, 9.685220718383789, 1.0254381895065308, 0.27127140760421753, 1.4052995443344116, -0.8374958038330078, -0.2833062708377838, -0.511962890625, -0.677001953125, -0.05126953125, 0, 
25, 3629450644, 0.45678550004959106, 0.5769302248954773, -0.3936954140663147, 0.5509282350540161, 9.739733695983887, 0.973301351070404, 0.33615490794181824, 1.0968782901763916, -0.8930530548095703, -0.26488959789276123, -0.51220703125, -0.67578125, -0.048095703125, 0, 
26, 3629458977, 0.4567860960960388, 0.5769389867782593, -0.39370784163475037, 0.5509097576141357, 9.72271728515625, 0.9964771866798401, 0.2886172831058502, 0.5281015038490295, -0.946625292301178, -0.11695459485054016, -0.51171875, -0.676513671875, -0.05029296875, 0, 
27, 3629467310, 0.45679301023483276, 0.5769479870796204, -0.39372286200523376, 0.5508838295936584, 9.749247550964355, 0.990497350692749, 0.2879735231399536, 0.4252474904060364, -1.028962254524231, -0.14237670600414276, -0.513916015625, -0.677978515625, -0.052001953125, 0, 
28, 3629475643, 0.45682084560394287, 0.5769426226615906, -0.3937492370605469, 0.550847589969635, 9.71099853515625, 1.0073491334915161, 0.3798445165157318, 0.021208588033914566, -0.9215361475944519, -0.24906004965305328, -0.51513671875, -0.679443359375, -0.0478515625, 0, 
29, 3629483976, 0.45687323808670044, 0.5769252777099609, -0.39379939436912537, 0.5507861375808716, 9.661452293395996, 1.0315114259719849, 0.3542874753475189, -0.557429850101471, -1.0865687131881714, -0.2874813675880432, -0.516357421875, -0.678466796875, -0.050048828125, 0, 
30, 3629492309, 0.456929475069046, 0.576913058757782, -0.3938612937927246, 0.5507080554962158, 9.695927619934082, 1.0634206533432007, 0.26220184564590454, -0.742851197719574, -1.2706581354141235, -0.408431738615036, -0.511962890625, -0.677490234375, -0.05126953125, 0, 
31, 3629500642, 0.45699572563171387, 0.576903760433197, -0.39391690492630005, 0.5506232976913452, 9.716436386108398, 1.0514249801635742, 0.29947522282600403, -0.7859343886375427, -1.2906886339187622, -0.537937343120575, -0.512451171875, -0.6796875, -0.050048828125, 0, 
32, 3629508975, 0.4570685923099518, 0.5768802762031555, -0.39398086071014404, 0.5505416393280029, 9.733853340148926, 1.009487509727478, 0.31883782148361206, -0.9794498682022095, -1.1367725133895874, -0.48066389560699463, -0.51513671875, -0.679931640625, -0.05224609375, 0, 
33, 3629517308, 0.4571320712566376, 0.5768571496009827, -0.3940262198448181, 0.5504804849624634, 9.688840866088867, 0.9296621680259705, 0.29255127906799316, -0.647732675075531, -0.9493146538734436, -0.3737116754055023, -0.51220703125, -0.677490234375, -0.050048828125, 0, 
34, 3629525641, 0.45717981457710266, 0.5768530964851379, -0.3940538167953491, 0.5504252910614014, 9.726716041564941, 0.8972667455673218, 0.2315874993801117, -0.237956240773201, -0.9806921482086182, -0.5172538757324219, -0.515380859375, -0.675048828125, -0.048583984375, 0, 
35, 3629533974, 0.45721423625946045, 0.5768632292747498, -0.3940490186214447, 0.5503895282745361, 9.753151893615723, 0.917716920375824, 0.2070247381925583, 0.313198059797287, -0.8426058292388916, -0.5729647874832153, -0.511474609375, -0.67626953125, -0.05126953125, 0, 
36, 3629542307, 0.4572219252586365, 0.5768863558769226, -0.3940289616584778, 0.5503731966018677, 9.759940147399902, 1.0054537057876587, 0.24153004586696625, 0.8204623460769653, -0.7964234948158264, -0.49576351046562195, -0.510009765625, -0.678466796875, -0.05224609375, 0, 
37, 3629550640, 0.45721378922462463, 0.5769229531288147, -0.39397716522216797, 0.5503787994384766, 9.703282356262207, 1.0588783025741577, 0.2704632878303528, 1.3980504274368286, -0.6492567658424377, -0.5084297060966492, -0.51318359375, -0.677734375, -0.049560546875, 0, 
38, 3629558973, 0.45720741152763367, 0.5769634246826172, -0.3939478397369385, 0.5503626465797424, 9.739740371704102, 1.051990032196045, 0.25677990913391113, 1.1127336025238037, -0.9431544542312622, -0.5535107851028442, -0.5166015625, -0.67822265625, -0.05078125, 0, 
39, 3629567306, 0.4572371542453766, 0.5769723057746887, -0.3939327001571655, 0.5503395199775696, 9.756291389465332, 1.055624008178711, 0.19417837262153625, 0.4833534359931946, -0.6938127875328064, -0.5350045561790466, -0.512939453125, -0.677734375, -0.04833984375, 0, 
40, 3629575639, 0.45727449655532837, 0.5769638419151306, -0.3939376771450043, 0.5503137707710266, 9.735391616821289, 0.9985941052436829, 0.2565295696258545, 0.14656464755535126, -0.6266394853591919, -0.4071767032146454, -0.513427734375, -0.675537109375, -0.052001953125, 0, 
41, 3629583972, 0.45731040835380554, 0.5769538879394531, -0.39394426345825195, 0.5502896904945374, 9.714483261108398, 0.987349808216095, 0.27130016684532166, 0.14979206025600433, -0.662115216255188, -0.3140689730644226, -0.510986328125, -0.6748046875, -0.0517578125, 0, 
42, 3629592305, 0.45734870433807373, 0.5769506692886353, -0.3939424157142639, 0.5502625107765198, 9.702974319458008, 0.9752686619758606, 0.2979874312877655, 0.21522359549999237, -0.6321080923080444, -0.5071618556976318, -0.51220703125, -0.6787109375, -0.049072265625, 0, 
43, 3629600638, 0.4573908746242523, 0.5769463777542114, -0.39393869042396545, 0.5502346158027649, 9.718939781188965, 0.9818493127822876, 0.24049288034439087, 0.19409185647964478, -0.6334656476974487, -0.4956866204738617, -0.512939453125, -0.678955078125, -0.047607421875, 0, 
44, 3629608971, 0.457430899143219, 0.5769447088241577, -0.3939395844936371, 0.5502023696899414, 9.729867935180664, 0.982564389705658, 0.25565680861473083, 0.16372618079185486, -0.6917251944541931, -0.537988543510437, -0.512451171875, -0.677978515625, -0.051025390625, 0, 
45, 3629617304, 0.45746302604675293, 0.5769528746604919, -0.3938952684402466, 0.5501989722251892, 9.748781204223633, 0.9696107506752014, 0.291971892118454, 0.7911980748176575, -0.333100289106369, -0.6561726927757263, -0.513671875, -0.6767578125, -0.053955078125, 0, 
46, 3629625637, 0.4574660062789917, 0.5769869089126587, -0.3938274383544922, 0.5502093434333801, 9.737143516540527, 0.9432454109191895, 0.34517472982406616, 1.431886911392212, -0.391295850276947, -0.7285328507423401, -0.511474609375, -0.677734375, -0.051025390625, 0, 
47, 3629633970, 0.4574618935585022, 0.5770336389541626, -0.39375489950180054, 0.5502157807350159, 9.74045467376709, 0.9635288715362549, 0.31554341316223145, 1.5880951881408691, -0.5684566497802734, -0.7543391585350037, -0.510498046875, -0.67626953125, -0.053955078125, 0, 
48, 3629642303, 0.4574563503265381, 0.5770794153213501, -0.39369332790374756, 0.5502164959907532, 9.756555557250977, 1.0040562152862549, 0.29073017835617065, 1.4745731353759766, -0.6408424973487854, -0.7375362515449524, -0.511474609375, -0.678955078125, -0.05517578125, 0, 
49, 3629650636, 0.45745977759361267, 0.5771120190620422, -0.3936445116996765, 0.5502143502235413, 9.746085166931152, 1.0263614654541016, 0.3158409297466278, 1.2139098644256592, -0.6379610300064087, -0.6008459329605103, -0.511962890625, -0.679931640625, -0.05224609375, 0, 
50, 3629658969, 0.4574814438819885, 0.5771353244781494, -0.3936140239238739, 0.5501936674118042, 9.710735321044922, 1.0155320167541504, 0.33677729964256287, 0.7659295797348022, -0.6904059648513794, -0.7105388045310974, -0.512451171875, -0.6787109375, -0.05029296875, 0, 
51, 3629667302, 0.4575237035751343, 0.5771576762199402, -0.3935861885547638, 0.550154983997345, 9.70089340209961, 0.9783017635345459, 0.3372425138950348, 0.4836863577365875, -0.7705273628234863, -0.9013392925262451, -0.51318359375, -0.678955078125, -0.052001953125, 0, 
52, 3629675635, 0.45756229758262634, 0.5771845579147339, -0.39356982707977295, 0.5501064658164978, 9.725569725036621, 0.9580517411231995, 0.29150688648223877, 0.3968029022216797, -0.9348426461219788, -0.9203962683677673, -0.51611328125, -0.67822265625, -0.05126953125, 0, 
53, 3629683968, 0.45760151743888855, 0.5772112011909485, -0.39354953169822693, 0.5500601530075073, 9.74976921081543, 0.9253634214401245, 0.28929686546325684, 0.4368123412132263, -0.92800372838974, -0.8894029855728149, -0.513671875, -0.68017578125, -0.052001953125, 0, 
54, 3629692301, 0.4576401114463806, 0.5772358775138855, -0.39352524280548096, 0.5500196218490601, 9.71176528930664, 0.9562421441078186, 0.31664204597473145, 0.4864015281200409, -0.8046455979347229, -0.9223175048828125, -0.510986328125, -0.679443359375, -0.05029296875, 0, 
55, 3629700634, 0.45770299434661865, 0.5772528648376465, -0.39348074793815613, 0.5499812960624695, 9.692975044250488, 1.0166049003601074, 0.31863054633140564, 0.41539883613586426, -0.5117980241775513, -1.1593514680862427, -0.51416015625, -0.677978515625, -0.05029296875, 0, 
56, 3629708967, 0.4577494263648987, 0.5772818922996521, -0.3934337794780731, 0.5499457716941833, 9.706830978393555, 1.0354243516921997, 0.35975247621536255, 0.6499099731445312, -0.6128333210945129, -1.152755856513977, -0.509765625, -0.68017578125, -0.051025390625, 0, 
57, 3629717300, 0.4577925503253937, 0.5773199796676636, -0.3933826982975006, 0.5499064922332764, 9.709649085998535, 1.0404887199401855, 0.3383941054344177, 0.7514575719833374, -0.7437348365783691, -1.1808929443359375, -0.51220703125, -0.677490234375, -0.049560546875, 0, 
58, 3629725633, 0.4578438997268677, 0.5773487687110901, -0.39333483576774597, 0.5498678088188171, 9.70235824584961, 1.037469506263733, 0.3018569052219391, 0.59925776720047, -0.6045471429824829, -1.2162151336669922, -0.5146484375, -0.68115234375, -0.049072265625, 0, 
59, 3629733966, 0.45789408683776855, 0.5773859024047852, -0.3932746648788452, 0.5498299598693848, 9.696786880493164, 1.0680983066558838, 0.24838247895240784, 0.7635731101036072, -0.6316981911659241, -1.29405677318573, -0.511962890625, -0.677978515625, -0.048583984375, 0, 
60, 3629742299, 0.45795395970344543, 0.5774109959602356, -0.39323121309280396, 0.5497848391532898, 9.723159790039062, 1.0346516370773315, 0.24104365706443787, 0.43902796506881714, -0.6084277629852295, -1.2648694515228271, -0.51220703125, -0.679931640625, -0.04931640625, 0, 
61, 3629750632, 0.45801806449890137, 0.5774255990982056, -0.3931869566440582, 0.5497478246688843, 9.708209991455078, 1.0330636501312256, 0.2642260193824768, 0.3952532410621643, -0.4782305359840393, -1.144431233406067, -0.513671875, -0.680908203125, -0.0517578125, 0, 
62, 3629758965, 0.45805519819259644, 0.5774548053741455, -0.3931461572647095, 0.5497153401374817, 9.732272148132324, 1.0632271766662598, 0.2945898473262787, 0.6944146752357483, -0.6786746978759766, -1.015834927558899, -0.5107421875, -0.681884765625, -0.0498046875, 0, 
63, 3629767298, 0.458101749420166, 0.5774770379066467, -0.3931061327457428, 0.5496817827224731, 9.730091094970703, 1.0955009460449219, 0.3139742314815521, 0.5682646036148071, -0.6308785676956177, -0.9982892274856567, -0.511474609375, -0.68115234375, -0.048828125, 0, 
64, 3629775631, 0.4581522047519684, 0.5774917006492615, -0.39307570457458496, 0.549646258354187, 9.707587242126465, 1.1333962678909302, 0.31830844283103943, 0.4011060893535614, -0.5880259871482849, -0.9738531708717346, -0.51318359375, -0.679931640625, -0.049072265625, 0, 
65, 3629783964, 0.4582046568393707, 0.5775097012519836, -0.3930477499961853, 0.5496033430099487, 9.709391593933105, 1.1008013486862183, 0.3227221369743347, 0.35386064648628235, -0.7157001495361328, -0.983573853969574, -0.51220703125, -0.679443359375, -0.04833984375, 0, 
66, 3629792297, 0.45825833082199097, 0.5775213241577148, -0.39303210377693176, 0.5495576858520508, 9.695822715759277, 1.064987063407898, 0.3220854103565216, 0.1903649866580963, -0.7206692099571228, -0.9296044707298279, -0.512939453125, -0.679931640625, -0.050537109375, 0, 
67, 3629800630, 0.45829862356185913, 0.5775471329689026, -0.3930008113384247, 0.5495193600654602, 9.72867488861084, 1.0835198163986206, 0.32237863540649414, 0.5507829189300537, -0.7826941609382629, -0.9285929203033447, -0.512451171875, -0.680908203125, -0.049072265625, 0, 
68, 3629808963, 0.45832139253616333, 0.5775819420814514, -0.3929533362388611, 0.5494977235794067, 9.711329460144043, 1.0868887901306152, 0.3014565706253052, 0.9539125561714172, -0.6709905862808228, -0.9232651591300964, -0.509765625, -0.679443359375, -0.05078125, 0, 
69, 3629817296, 0.45833808183670044, 0.5776175856590271, -0.3929207921028137, 0.5494694709777832, 9.709919929504395, 1.0689351558685303, 0.3124290406703949, 0.8629180788993835, -0.8978430032730103, -0.7520723938941956, -0.512939453125, -0.6806640625, -0.0498046875, 0, 
70, 3629825629, 0.4583710730075836, 0.5776401162147522, -0.3929136097431183, 0.5494234561920166, 9.709197044372559, 1.1044776439666748, 0.30184996128082275, 0.35742104053497314, -0.9705105423927307, -0.7656990885734558, -0.512939453125, -0.68017578125, -0.050048828125, 0, 
71, 3629833962, 0.45842495560646057, 0.5776416063308716, -0.39291855692863464, 0.5493733882904053, 9.711335182189941, 1.095300555229187, 0.3208980858325958, -0.04540122672915459, -0.8461533784866333, -0.6848862171173096, -0.51513671875, -0.683349609375, -0.052978515625, 0, 
72, 3629842295, 0.4584818482398987, 0.5776408314704895, -0.39292842149734497, 0.5493196249008179, 9.680850982666016, 1.1239045858383179, 0.29151400923728943, -0.1494462490081787, -0.8350880742073059, -0.735935389995575, -0.51220703125, -0.6806640625, -0.051513671875, 0, 
73, 3629850628, 0.4585473835468292, 0.5776340961456299, -0.3929368853569031, 0.5492660403251648, 9.68659496307373, 1.1142913103103638, 0.29897454380989075, -0.2370213121175766, -0.7733065485954285, -0.7259713411331177, -0.51220703125, -0.6787109375, -0.049072265625, 0, 
74, 3629858961, 0.4586160480976105, 0.5776180028915405, -0.39296185970306396, 0.5492076873779297, 9.686445236206055, 1.071581482887268, 0.30659210681915283, -0.47871723771095276, -0.7862929105758667, -0.648693323135376, -0.512451171875, -0.682861328125, -0.049072265625, 0, 
75, 3629867294, 0.4587025046348572, 0.5775958299636841, -0.3930020034313202, 0.5491303205490112, 9.704191207885742, 1.0543580055236816, 0.32875919342041016, -0.8672595620155334, -0.9319354891777039, -0.6989996433258057, -0.511962890625, -0.681396484375, -0.0517578125, 0, 
76, 3629875627, 0.4587690234184265, 0.577585756778717, -0.39302241802215576, 0.5490707755088806, 9.725271224975586, 1.040137529373169, 0.3514118194580078, -0.3950355350971222, -0.8248168230056763, -0.7087330222129822, -0.51513671875, -0.6826171875, -0.051025390625, 0, 
77, 3629883960, 0.458812952041626, 0.5775912404060364, -0.3930131793022156, 0.5490345358848572, 9.69515609741211, 1.038142204284668, 0.3412621319293976, 0.23803308606147766, -0.7316321730613708, -0.6571715474128723, -0.512939453125, -0.681396484375, -0.049072265625, 0, 
78, 3629892293, 0.4588433504104614, 0.5776025056838989, -0.39301472902297974, 0.5489963293075562, 9.695699691772461, 1.0626335144042969, 0.31707122921943665, 0.28270435333251953, -0.8930788040161133, -0.5682134032249451, -0.513671875, -0.680419921875, -0.048828125, 0, 
79, 3629900626, 0.4588676691055298, 0.5776214003562927, -0.3930029571056366, 0.5489645600318909, 9.699005126953125, 1.0538426637649536, 0.32187792658805847, 0.5232987999916077, -0.8870593309402466, -0.5753597021102905, -0.51318359375, -0.6806640625, -0.051025390625, 0, 
80, 3629908959, 0.4588635563850403, 0.5776599645614624, -0.39297839999198914, 0.5489449501037598, 9.676923751831055, 1.0297805070877075, 0.34567543864250183, 1.026951551437378, -0.9729183316230774, -0.5443152785301208, -0.513671875, -0.678466796875, -0.050048828125, 0, 
81, 3629917292, 0.45885977149009705, 0.5777095556259155, -0.39294928312301636, 0.5489168167114258, 9.716649055480957, 1.0071523189544678, 0.3436914086341858, 1.0902059078216553, -1.1332250833511353, -0.6434040069580078, -0.5126953125, -0.6806640625, -0.048583984375, 0, 
82, 3629925625, 0.45884376764297485, 0.5777705907821655, -0.3929018974304199, 0.5488998889923096, 9.728446960449219, 0.9962173104286194, 0.2822621166706085, 1.4507519006729126, -1.0416284799575806, -0.7405332326889038, -0.510986328125, -0.6806640625, -0.049072265625, 0, 
83, 3629933958, 0.45881006121635437, 0.5778365135192871, -0.39285317063331604, 0.5488935112953186, 9.729751586914062, 1.0358773469924927, 0.31458455324172974, 1.695815920829773, -1.122915267944336, -0.5259242653846741, -0.5087890625, -0.678466796875, -0.048583984375, 0, 
84, 3629942291, 0.45877161622047424, 0.5779050588607788, -0.3928093910217285, 0.5488848686218262, 9.687833786010742, 1.0836647748947144, 0.29601261019706726, 1.6946635246276855, -1.176013708114624, -0.5306117534637451, -0.510986328125, -0.6806640625, -0.049560546875, 0, 
85, 3629950624, 0.45873233675956726, 0.5779705047607422, -0.3927633762359619, 0.5488817095756531, 9.70502758026123, 1.0804893970489502, 0.27517086267471313, 1.733315110206604, -1.140332818031311, -0.43914324045181274, -0.51123046875, -0.680908203125, -0.04833984375, 0, 
86, 3629958957, 0.4587027430534363, 0.5780300498008728, -0.39272525906562805, 0.5488710403442383, 9.743460655212402, 1.09346342086792, 0.2747718095779419, 1.5136348009109497, -1.1124262809753418, -0.515691339969635, -0.515380859375, -0.681396484375, -0.0478515625, 0, 
87, 3629967290, 0.4586704969406128, 0.5780835151672363, -0.39268213510513306, 0.5488725900650024, 9.729192733764648, 1.079964518547058, 0.30306476354599, 1.6056411266326904, -0.9917832612991333, -0.37394222617149353, -0.509033203125, -0.68115234375, -0.046142578125, 0, 
88, 3629975623, 0.4586348235607147, 0.5781349539756775, -0.392640620470047, 0.5488778948783875, 9.760945320129395, 1.0983060598373413, 0.25261539220809937, 1.6218292713165283, -0.9366613030433655, -0.3552950620651245, -0.513671875, -0.68017578125, -0.049560546875, 0, 
89, 3629983956, 0.45861315727233887, 0.5781835317611694, -0.3925984501838684, 0.5488747358322144, 9.741609573364258, 1.1432219743728638, 0.261680006980896, 1.4599345922470093, -0.9416946172714233, -0.44895344972610474, -0.512451171875, -0.682861328125, -0.049072265625, 0, 
90, 3629992289, 0.45857807993888855, 0.5782318711280823, -0.3925410211086273, 0.5488942265510559, 9.700906753540039, 1.0928641557693481, 0.29367032647132874, 1.795941948890686, -0.6955416798591614, -0.3779508173465729, -0.510009765625, -0.6826171875, -0.048095703125, 0, 
91, 3630000622, 0.458556592464447, 0.5782713294029236, -0.39248892664909363, 0.5489078760147095, 9.713543891906738, 1.0403509140014648, 0.30598700046539307, 1.5682443380355835, -0.674781322479248, -0.3718930184841156, -0.511962890625, -0.680419921875, -0.0439453125, 0, 
92, 3630008955, 0.4585356116294861, 0.578313946723938, -0.39243239164352417, 0.5489209890365601, 9.724472045898438, 0.998589277267456, 0.26532578468322754, 1.6049494743347168, -0.6333375573158264, -0.48864272236824036, -0.5068359375, -0.68310546875, -0.05078125, 0, 
93, 3630017288, 0.45853161811828613, 0.5783413052558899, -0.3923857808113098, 0.5489290356636047, 9.727622985839844, 1.019973635673523, 0.2600771486759186, 1.2786368131637573, -0.5692891478538513, -0.4323042333126068, -0.51220703125, -0.6787109375, -0.04638671875, 0, 
94, 3630025621, 0.4585355222225189, 0.5783658027648926, -0.39235588908195496, 0.5489214062690735, 9.668962478637695, 1.0242513418197632, 0.26807424426078796, 0.9797957539558411, -0.6942354440689087, -0.4955970346927643, -0.511962890625, -0.682861328125, -0.046142578125, 0, 
95, 3630033954, 0.45855680108070374, 0.5783880352973938, -0.39232566952705383, 0.5489016771316528, 9.710213661193848, 1.0545722246170044, 0.283774733543396, 0.772064208984375, -0.7165966033935547, -0.6404199004173279, -0.512939453125, -0.682861328125, -0.051513671875, 0, 
96, 3630042287, 0.45857077836990356, 0.5784060955047607, -0.39231637120246887, 0.5488777756690979, 9.694806098937988, 1.0531846284866333, 0.2727450430393219, 0.6146647930145264, -0.8517116904258728, -0.4762839376926422, -0.51318359375, -0.681396484375, -0.04638671875, 0, 
97, 3630050620, 0.45859646797180176, 0.5784209966659546, -0.3923112154006958, 0.5488439798355103, 9.66722297668457, 1.0472904443740845, 0.3370060324668884, 0.42406925559043884, -0.9085752367973328, -0.5234652757644653, -0.51171875, -0.6845703125, -0.046875, 0, 
98, 3630058953, 0.45862212777137756, 0.5784438252449036, -0.3923088312149048, 0.5488001704216003, 9.660880088806152, 1.0392436981201172, 0.31938159465789795, 0.39384448528289795, -1.0261189937591553, -0.6595537662506104, -0.51171875, -0.6826171875, -0.0498046875, 0, 
99, 3630067286, 0.4586421251296997, 0.5784690380096436, -0.3922995626926422, 0.5487635135650635, 9.700013160705566, 1.041282296180725, 0.2870507538318634, 0.5524605512619019, -1.0138369798660278, -0.5872575640678406, -0.51171875, -0.681640625, -0.050537109375, 0, 
100, 3630075619, 0.4586555063724518, 0.5784997344017029, -0.39227625727653503, 0.5487366318702698, 9.721328735351562, 1.0836631059646606, 0.3029659688472748, 0.7909291982650757, -0.8837935328483582, -0.6689413785934448, -0.510498046875, -0.682861328125, -0.048828125, 0, 
101, 3630083952, 0.4586549997329712, 0.5785388946533203, -0.3922320008277893, 0.5487274527549744, 9.750591278076172, 1.105421781539917, 0.28883180022239685, 1.2144349813461304, -0.7910700440406799, -0.6143319010734558, -0.512451171875, -0.68359375, -0.04833984375, 0, 
102, 3630092285, 0.4586607813835144, 0.5785661339759827, -0.39219939708709717, 0.5487171411514282, 9.73776626586914, 1.1142627000808716, 0.24137984216213226, 0.9897084832191467, -0.7090404629707336, -0.56316739320755, -0.51513671875, -0.681396484375, -0.046630859375, 0, 
103, 3630100618, 0.45866480469703674, 0.578596830368042, -0.3921683132648468, 0.5487037301063538, 9.734082221984863, 1.1321948766708374, 0.26449066400527954, 1.001542091369629, -0.8194377422332764, -0.5209038257598877, -0.51123046875, -0.678466796875, -0.046142578125, 0, 
104, 3630108951, 0.45866110920906067, 0.5786219239234924, -0.3921392261981964, 0.5487011075019836, 9.711994171142578, 1.0925683975219727, 0.26047810912132263, 1.065334439277649, -0.7061076164245605, -0.4054733216762543, -0.511474609375, -0.685302734375, -0.0478515625, 0, 
105, 3630117284, 0.45865848660469055, 0.5786572098731995, -0.3921051323413849, 0.5486903786659241, 9.703332901000977, 1.087932825088501, 0.2766503095626831, 1.120891809463501, -0.8494704961776733, -0.5036526918411255, -0.51171875, -0.681396484375, -0.04833984375, 0, 
106, 3630125617, 0.45866042375564575, 0.5786934494972229, -0.39208143949508667, 0.5486675500869751, 9.728589057922363, 1.141865849494934, 0.2474527806043625, 0.9412592053413391, -0.9527982473373413, -0.5900750756263733, -0.514404296875, -0.68310546875, -0.047119140625, 0, 
107, 3630133950, 0.4586701989173889, 0.5787156224250793, -0.39207446575164795, 0.5486408472061157, 9.727279663085938, 1.1467723846435547, 0.21638065576553345, 0.6498842835426331, -0.9833688139915466, -0.4124787747859955, -0.514404296875, -0.681884765625, -0.046875, 0, 
108, 3630142283, 0.4586748778820038, 0.5787360668182373, -0.392073392868042, 0.5486161708831787, 9.733633041381836, 1.1221814155578613, 0.3090530335903168, 0.6404198408126831, -0.9767219424247742, -0.35793328285217285, -0.512451171875, -0.6806640625, -0.046875, 0, 
109, 3630150616, 0.45869773626327515, 0.578748881816864, -0.39207085967063904, 0.5485852956771851, 9.701780319213867, 1.0680983066558838, 0.3007698953151703, 0.4306136965751648, -0.9019027948379517, -0.4514252543449402, -0.513916015625, -0.680908203125, -0.047119140625, 0, 
110, 3630158949, 0.4587104022502899, 0.578771710395813, -0.3920629918575287, 0.5485563278198242, 9.721672058105469, 1.0292011499404907, 0.2737893760204315, 0.6187246441841125, -0.9434747695922852, -0.513027548789978, -0.5107421875, -0.682861328125, -0.047119140625, 0, 
111, 3630167282, 0.45871272683143616, 0.5787976384162903, -0.3920437693595886, 0.5485407114028931, 9.708252906799316, 1.008929967880249, 0.287994921207428, 0.8845107555389404, -0.8856249451637268, -0.40248924493789673, -0.51025390625, -0.682373046875, -0.047119140625, 0, 
112, 3630175615, 0.4587019383907318, 0.5788300633430481, -0.3920157551765442, 0.5485355257987976, 9.734755516052246, 1.020281195640564, 0.2995251417160034, 1.1472103595733643, -0.8255339860916138, -0.3980835974216461, -0.5126953125, -0.683837890625, -0.04736328125, 0, 
113, 3630183948, 0.4587135314941406, 0.578851580619812, -0.3919941484928131, 0.5485185980796814, 9.717158317565918, 1.0338575839996338, 0.2806417942047119, 0.7936826944351196, -0.7977681159973145, -0.4771803915500641, -0.513427734375, -0.686279296875, -0.049560546875, 0, 
114, 3630192281, 0.4587395489215851, 0.5788697004318237, -0.3919781744480133, 0.5484891533851624, 9.73925495147705, 1.0836344957351685, 0.266508013010025, 0.5420612096786499, -0.7882012128829956, -0.6543411612510681, -0.5107421875, -0.68505859375, -0.04638671875, 0, 
115, 3630200614, 0.45876559615135193, 0.5788810849189758, -0.3919587731361389, 0.5484692454338074, 9.721185684204102, 1.0913164615631104, 0.2808420658111572, 0.5828263163566589, -0.6794047951698303, -0.5335829257965088, -0.51171875, -0.68408203125, -0.046875, 0, 
116, 3630208947, 0.4587898254394531, 0.5788951516151428, -0.3919387459754944, 0.5484484434127808, 9.727273941040039, 1.0808734893798828, 0.3014639616012573, 0.6080306768417358, -0.6731548309326172, -0.5977209210395813, -0.507080078125, -0.680908203125, -0.048095703125, 0, 
117, 3630217280, 0.4588475525379181, 0.5788877606391907, -0.3919326961040497, 0.5484122037887573, 9.749289512634277, 1.0887342691421509, 0.27828851342201233, 0.023411409929394722, -0.5827879309654236, -0.6668538451194763, -0.511474609375, -0.683349609375, -0.04833984375, 0, 
118, 3630225613, 0.45892348885536194, 0.5788572430610657, -0.3919304609298706, 0.5483824610710144, 9.739974975585938, 1.0900646448135376, 0.27610716223716736, -0.2666313946247101, -0.2415294498205185, -0.6615517139434814, -0.512451171875, -0.682861328125, -0.04345703125, 0, 
119, 3630233946, 0.45897138118743896, 0.5788452625274658, -0.391920268535614, 0.5483623743057251, 9.709870338439941, 1.088813066482544, 0.2618442177772522, 0.18840551376342773, -0.4472501873970032, -0.49911895394325256, -0.510498046875, -0.68359375, -0.047607421875, 0, 
120, 3630242279, 0.45901766419410706, 0.5788353085517883, -0.39192110300064087, 0.5483336448669434, 9.717544555664062, 1.0469616651535034, 0.2954481840133667, 0.07843078672885895, -0.5671119689941406, -0.5181118845939636, -0.509033203125, -0.682861328125, -0.045166015625, 0, 
121, 3630250612, 0.45906248688697815, 0.5788486003875732, -0.3919029235839844, 0.5482949614524841, 9.720534324645996, 1.0824755430221558, 0.27879634499549866, 0.33610999584198, -0.7514832615852356, -0.7926709055900574, -0.513427734375, -0.68212890625, -0.046630859375, 0, 
122, 3630258945, 0.4590851366519928, 0.5788702368736267, -0.39186662435531616, 0.5482792258262634, 9.73376750946045, 1.07574462890625, 0.29349544644355774, 0.8164536952972412, -0.5964914560317993, -0.7248700261116028, -0.510986328125, -0.681396484375, -0.0458984375, 0, 
123, 3630267278, 0.4590996503829956, 0.578886091709137, -0.3918481469154358, 0.548263430595398, 9.719475746154785, 1.09415602684021, 0.2679383456707001, 0.719683051109314, -0.7499974966049194, -0.43578770756721497, -0.510986328125, -0.681396484375, -0.051025390625, 0, 
124, 3630275611, 0.45911985635757446, 0.578895628452301, -0.39184388518333435, 0.5482394695281982, 9.723859786987305, 1.1225383281707764, 0.30627742409706116, 0.475182443857193, -0.7849738001823425, -0.437414288520813, -0.510986328125, -0.680908203125, -0.047119140625, 0, 
125, 3630283944, 0.4591437578201294, 0.5789116024971008, -0.39183759689331055, 0.5482072234153748, 9.684289932250977, 1.0993773937225342, 0.30543339252471924, 0.46163251996040344, -0.9086905121803284, -0.5147436857223511, -0.508544921875, -0.68115234375, -0.047607421875, 0, 
126, 3630292277, 0.4591565728187561, 0.5789371132850647, -0.3918299674987793, 0.548175036907196, 9.698505401611328, 1.1026253700256348, 0.2744261920452118, 0.6165217757225037, -0.9899387955665588, -0.5464028120040894, -0.51416015625, -0.6806640625, -0.046630859375, 0, 
127, 3630300610, 0.45915520191192627, 0.5789732933044434, -0.3917960524559021, 0.5481621026992798, 9.703418731689453, 1.083219051361084, 0.2731454074382782, 1.103678822517395, -0.8672723770141602, -0.5295742750167847, -0.513427734375, -0.6845703125, -0.0478515625, 0, 
128, 3630308943, 0.4591524600982666, 0.5790068507194519, -0.3917638063430786, 0.548151969909668, 9.695642471313477, 1.0809590816497803, 0.256608247756958, 1.0946499109268188, -0.8039668202400208, -0.529996931552887, -0.5126953125, -0.684814453125, -0.051513671875, 0, 
129, 3630317276, 0.4591629207134247, 0.5790267586708069, -0.3917447328567505, 0.5481358170509338, 9.706836700439453, 1.1015878915786743, 0.2683532238006592, 0.7787495851516724, -0.802455484867096, -0.4356340765953064, -0.515380859375, -0.68408203125, -0.043701171875, 0, 
130, 3630325609, 0.4591836929321289, 0.5790299773216248, -0.39174652099609375, 0.5481137037277222, 9.702768325805664, 1.1632171869277954, 0.2718654274940491, 0.39511236548423767, -0.7576690912246704, -0.3469960391521454, -0.513671875, -0.684814453125, -0.043701171875, 0, 
131, 3630333942, 0.4592173099517822, 0.5790196657180786, -0.3917537033557892, 0.548091471195221, 9.713268280029297, 1.1882232427597046, 0.27015578746795654, 0.1735108345746994, -0.6621151566505432, -0.27641603350639343, -0.512451171875, -0.681396484375, -0.0439453125, 0, 
132, 3630342275, 0.4592457413673401, 0.5790089964866638, -0.3917781412601471, 0.5480613708496094, 9.707393646240234, 1.193394660949707, 0.2607997953891754, 0.032542884349823, -0.8188358545303345, -0.19991910457611084, -0.5087890625, -0.684326171875, -0.048095703125, 0, 
133, 3630350608, 0.45927736163139343, 0.5789939165115356, -0.39180177450180054, 0.5480340123176575, 9.73097038269043, 1.1779016256332397, 0.27537015080451965, 0.006134608760476112, -0.7824379801750183, -0.13560174405574799, -0.5107421875, -0.684814453125, -0.04833984375, 0, 
134, 3630358941, 0.45931756496429443, 0.578965425491333, -0.3918370008468628, 0.5480051636695862, 9.70868968963623, 1.154518961906433, 0.27358195185661316, -0.24830441176891327, -0.6789053082466125, -0.1003565713763237, -0.51025390625, -0.685791015625, -0.045654296875, 0, 
135, 3630367274, 0.4593595266342163, 0.5789355039596558, -0.3918692469596863, 0.547978401184082, 9.710376739501953, 1.1414794921875, 0.2899833917617798, -0.23311513662338257, -0.6646125316619873, -0.06065450981259346, -0.50927734375, -0.686767578125, -0.046875, 0, 
136, 3630375607, 0.45937874913215637, 0.5789210200309753, -0.39189231395721436, 0.5479610562324524, 9.708260536193848, 1.1140481233596802, 0.32606950402259827, 0.16079336404800415, -0.7293397784233093, -0.04062417894601822, -0.51416015625, -0.685546875, -0.050048828125, 0, 
137, 3630383940, 0.45938554406166077, 0.5789160132408142, -0.391904354095459, 0.5479522943496704, 9.71654224395752, 1.08689546585083, 0.30815160274505615, 0.4540506899356842, -0.7709628939628601, 0.021426307037472725, -0.513427734375, -0.6845703125, -0.046142578125, 0, 
138, 3630392273, 0.4593881368637085, 0.5789112448692322, -0.3919146656990051, 0.5479477643966675, 9.696351051330566, 1.0970672369003296, 0.2665506899356842, 0.5205965042114258, -0.7096167206764221, 0.011103770695626736, -0.513427734375, -0.682861328125, -0.047119140625, 0, 
139, 3630400606, 0.4593774080276489, 0.5789267420768738, -0.39191991090774536, 0.5479364991188049, 9.723073959350586, 1.1148992776870728, 0.3217420279979706, 0.7634963393211365, -0.9952155351638794, -0.025025108829140663, -0.509765625, -0.6845703125, -0.04638671875, 0, 
140, 3630408939, 0.45936596393585205, 0.5789353847503662, -0.3919273316860199, 0.5479317903518677, 9.70291805267334, 1.0953501462936401, 0.31634876132011414, 0.7357048392295837, -0.8692958354949951, 0.02047858014702797, -0.507080078125, -0.68212890625, -0.044189453125, 0, 
141, 3630417272, 0.45936620235443115, 0.5789387822151184, -0.39193397760391235, 0.5479229688644409, 9.700135231018066, 1.0616035461425781, 0.28497642278671265, 0.6045087575912476, -0.836151123046875, -0.017596980556845665, -0.5107421875, -0.68408203125, -0.046142578125, 0, 
142, 3630425605, 0.45935919880867004, 0.5789518356323242, -0.39193448424339294, 0.5479146838188171, 9.715177536010742, 1.0609244108200073, 0.260005921125412, 0.7612550258636475, -0.8641858696937561, -0.11430352181196213, -0.509521484375, -0.683837890625, -0.050048828125, 0, 
143, 3630433938, 0.4593485891819, 0.5789653062820435, -0.39193934202194214, 0.5479059815406799, 9.701887130737305, 1.0396156311035156, 0.2769223153591156, 0.7655071020126343, -0.9564740061759949, -0.001959489192813635, -0.513671875, -0.68310546875, -0.044921875, 0, 
144, 3630442271, 0.4593309760093689, 0.5789852738380432, -0.39194202423095703, 0.5478978157043457, 9.696887016296387, 1.0335357189178467, 0.2835029363632202, 0.8735478520393372, -0.9868780374526978, -0.05541639402508736, -0.510009765625, -0.681884765625, -0.046142578125, 0, 
145, 3630450604, 0.4593183398246765, 0.5790042877197266, -0.3919319212436676, 0.5478954315185547, 9.741070747375488, 1.0383131504058838, 0.3069427013397217, 0.965298056602478, -0.8644676208496094, -0.09435003995895386, -0.518310546875, -0.68359375, -0.045654296875, 0, 
146, 3630458937, 0.4593130946159363, 0.5790170431137085, -0.39192989468574524, 0.547887921333313, 9.720276832580566, 1.0358818769454956, 0.29305198788642883, 0.769028902053833, -0.8309257626533508, -0.14113441109657288, -0.51025390625, -0.680419921875, -0.044921875, 0, 
147, 3630467270, 0.4593121409416199, 0.5790293216705322, -0.3919290602207184, 0.5478762984275818, 9.709139823913574, 1.0774904489517212, 0.2874943017959595, 0.7078749537467957, -0.8827818036079407, -0.13292506337165833, -0.512939453125, -0.683837890625, -0.046142578125, 0, 
148, 3630475603, 0.45931345224380493, 0.5790411829948425, -0.39191678166389465, 0.5478713512420654, 9.695894241333008, 1.123718500137329, 0.31036171317100525, 0.8038514852523804, -0.702662467956543, -0.2521849274635315, -0.512451171875, -0.685302734375, -0.04736328125, 0, 
149, 3630483936, 0.4593202769756317, 0.5790477395057678, -0.39190617203712463, 0.5478662848472595, 9.69659423828125, 1.1248064041137695, 0.2843685448169708, 0.7192477583885193, -0.6845276355743408, -0.19614100456237793, -0.51220703125, -0.685791015625, -0.04833984375, 0, 
150, 3630492269, 0.4593244791030884, 0.579056441783905, -0.3919019103050232, 0.5478566288948059, 9.701909065246582, 1.1311076879501343, 0.2857489287853241, 0.6740641593933105, -0.7514063715934753, -0.22262610495090485, -0.51318359375, -0.6865234375, -0.046142578125, 0, 
151, 3630500602, 0.4593426585197449, 0.5790529251098633, -0.3919045627117157, 0.5478430986404419, 9.720227241516113, 1.1341476440429688, 0.25889715552330017, 0.41997095942497253, -0.6995887756347656, -0.17595697939395905, -0.512451171875, -0.681396484375, -0.046630859375, 0, 
152, 3630508935, 0.4593401551246643, 0.5790631175041199, -0.39189624786376953, 0.547840416431427, 9.730655670166016, 1.1230392456054688, 0.24527813494205475, 0.8054012060165405, -0.7172754406929016, -0.16756831109523773, -0.510009765625, -0.682861328125, -0.0458984375, 0, 
153, 3630517268, 0.459324449300766, 0.5790871977806091, -0.39188164472579956, 0.5478386282920837, 9.712717056274414, 1.0974754095077515, 0.2708066701889038, 1.0565872192382812, -0.8878021240234375, -0.1339496374130249, -0.509765625, -0.6845703125, -0.04541015625, 0, 
154, 3630525601, 0.4593018889427185, 0.5791083574295044, -0.39186981320381165, 0.5478436946868896, 9.71843147277832, 1.0810309648513794, 0.31112009286880493, 1.1022573709487915, -0.8253546357154846, -0.05551885440945625, -0.511474609375, -0.68408203125, -0.0458984375, 0, 
155, 3630533934, 0.4592856168746948, 0.5791221857070923, -0.3918476700782776, 0.547858476638794, 9.728360176086426, 1.1059010028839111, 0.2881022095680237, 1.1428430080413818, -0.631646990776062, -0.027253545820713043, -0.510986328125, -0.685546875, -0.047607421875, 0, 
156, 3630542267, 0.45926228165626526, 0.5791377425193787, -0.3918297290802002, 0.5478743314743042, 9.725176811218262, 1.1551557779312134, 0.27237311005592346, 1.1772942543029785, -0.6629220247268677, 0.0004738633579108864, -0.513427734375, -0.683837890625, -0.045654296875, 0, 
157, 3630550600, 0.4592406749725342, 0.5791458487510681, -0.39181840419769287, 0.5478922128677368, 9.696515083312988, 1.138990044593811, 0.26934030652046204, 1.0849806070327759, -0.6623328328132629, 0.14875467121601105, -0.51171875, -0.68359375, -0.047119140625, 0, 
158, 3630558933, 0.45922476053237915, 0.5791552662849426, -0.3918202221393585, 0.547894299030304, 9.68896198272705, 1.1313365697860718, 0.24573591351509094, 0.855502724647522, -0.8099733591079712, 0.0484493225812912, -0.5107421875, -0.6826171875, -0.043701171875, 0, 
159, 3630567266, 0.4592094421386719, 0.5791646838188171, -0.3918199837207794, 0.5478973388671875, 9.698697090148926, 1.1183112859725952, 0.2618727385997772, 0.8796440362930298, -0.8254059553146362, 0.0891631543636322, -0.505859375, -0.681884765625, -0.048583984375, 0, 
160, 3630575599, 0.45919033885002136, 0.5791773796081543, -0.39182567596435547, 0.5478957891464233, 9.698418617248535, 1.0848430395126343, 0.26626458764076233, 0.8537736535072327, -0.9071024656295776, 0.06185837462544441, -0.513427734375, -0.684326171875, -0.04833984375, 0, 
161, 3630583932, 0.4591658115386963, 0.579195499420166, -0.3918154835700989, 0.5479044914245605, 9.71371841430664, 1.0920531749725342, 0.27946871519088745, 1.112259864807129, -0.8329493403434753, 0.06855649501085281, -0.511474609375, -0.68408203125, -0.0458984375, 0, 
162, 3630592265, 0.4591389298439026, 0.579210102558136, -0.39182162284851074, 0.5479071736335754, 9.722601890563965, 1.081230878829956, 0.25381147861480713, 0.9472911953926086, -0.9316024780273438, 0.1407502144575119, -0.510498046875, -0.685546875, -0.04736328125, 0, 
163, 3630600598, 0.4591231346130371, 0.5792182683944702, -0.391825795173645, 0.5479089021682739, 9.708404541015625, 1.083447813987732, 0.24610790610313416, 0.8321295976638794, -0.8579103350639343, 0.12509991228580475, -0.51513671875, -0.6845703125, -0.048095703125, 0, 
164, 3630608931, 0.4591062366962433, 0.5792192816734314, -0.39182770252227783, 0.5479207038879395, 9.710091590881348, 1.0927398204803467, 0.2741541564464569, 0.8633405566215515, -0.6751656532287598, 0.16404636204242706, -0.5146484375, -0.682373046875, -0.045166015625, 0, 
165, 3630617264, 0.45910388231277466, 0.5792117714881897, -0.39182955026626587, 0.5479292869567871, 9.719368934631348, 1.1333179473876953, 0.2476886510848999, 0.683400571346283, -0.5981178879737854, 0.13379594683647156, -0.510986328125, -0.683349609375, -0.0458984375, 0, 
166, 3630625597, 0.459102600812912, 0.5792008638381958, -0.39183878898620605, 0.5479352474212646, 9.743866920471191, 1.1467866897583008, 0.25728777050971985, 0.5760641694068909, -0.5949546694755554, 0.13065822422504425, -0.511962890625, -0.682373046875, -0.0439453125, 0, 
167, 3630633930, 0.45908522605895996, 0.5791921019554138, -0.3918432593345642, 0.5479558706283569, 9.717280387878418, 1.1090697050094604, 0.29537665843963623, 0.8389558792114258, -0.5903568267822266, 0.3502362370491028, -0.50927734375, -0.6845703125, -0.045654296875, 0, 
168, 3630642263, 0.4590610861778259, 0.5791934132575989, -0.39185282588005066, 0.547967791557312, 9.694920539855957, 1.0975322723388672, 0.2882738709449768, 0.8651847839355469, -0.7644056677818298, 0.27828583121299744, -0.5107421875, -0.681884765625, -0.046875, 0, 
169, 3630650596, 0.45904189348220825, 0.5791938304901123, -0.39185070991516113, 0.5479850769042969, 9.693575859069824, 1.1015950441360474, 0.29574859142303467, 0.9435259699821472, -0.6540722250938416, 0.24085064232349396, -0.512451171875, -0.681884765625, -0.048828125, 0, 
170, 3630658929, 0.45899978280067444, 0.5792103409767151, -0.39183294773101807, 0.5480155944824219, 9.692309379577637, 1.0509815216064453, 0.2591618001461029, 1.4109729528427124, -0.6546486020088196, 0.2309507429599762, -0.5126953125, -0.68359375, -0.046875, 0, 
171, 3630667262, 0.4589652419090271, 0.5792244076728821, -0.3918198347091675, 0.5480390787124634, 9.706450462341309, 1.0264334678649902, 0.27999797463417053, 1.2685834169387817, -0.720195472240448, 0.23594555258750916, -0.5126953125, -0.6806640625, -0.0458984375, 0, 
172, 3630675595, 0.4589206576347351, 0.5792503356933594, -0.3918009102344513, 0.5480623841285706, 9.718202590942383, 1.0229209661483765, 0.2927587032318115, 1.4595119953155518, -0.7906090021133423, 0.14352937042713165, -0.514404296875, -0.6826171875, -0.04443359375, 0, 
173, 3630683928, 0.4588678777217865, 0.5792815089225769, -0.39177149534225464, 0.5480947494506836, 9.689506530761719, 1.0700563192367554, 0.2737875282764435, 1.6912312507629395, -0.773511528968811, 0.20703987777233124, -0.51025390625, -0.685302734375, -0.045654296875, 0, 
174, 3630692261, 0.45881956815719604, 0.5793062448501587, -0.391739159822464, 0.5481321811676025, 9.727789878845215, 1.0598044395446777, 0.2919858396053314, 1.659430980682373, -0.6034457087516785, 0.15994808077812195, -0.51806640625, -0.6875, -0.044921875, 0, 
175, 3630700594, 0.45879772305488586, 0.5793206095695496, -0.39171159267425537, 0.5481547117233276, 9.696622848510742, 1.0708664655685425, 0.27922552824020386, 1.2727328538894653, -0.5710180997848511, 0.017302414402365685, -0.511962890625, -0.682373046875, -0.04931640625, 0, 
176, 3630708927, 0.4587845802307129, 0.5793316960334778, -0.3916918933391571, 0.5481681227684021, 9.692752838134766, 1.0613816976547241, 0.261994332075119, 1.0686641931533813, -0.5825445055961609, -0.08278519660234451, -0.51123046875, -0.68359375, -0.044677734375, 0, 
177, 3630717260, 0.45877504348754883, 0.5793411135673523, -0.3916829824447632, 0.5481724143028259, 9.75011920928955, 1.1028324365615845, 0.2056656926870346, 0.9048740267753601, -0.7296086549758911, -0.014254321344196796, -0.511474609375, -0.683349609375, -0.04541015625, 0, 
178, 3630725593, 0.4587634205818176, 0.5793542265892029, -0.39167290925979614, 0.5481755137443542, 9.743803024291992, 1.102310299873352, 0.25698018074035645, 0.9412334561347961, -0.7322341203689575, -0.09216001629829407, -0.51123046875, -0.683349609375, -0.043701171875, 0, 
179, 3630733926, 0.45874685049057007, 0.5793560743331909, -0.3916660249233246, 0.5481923222541809, 9.759482383728027, 1.1110796928405762, 0.2732314467430115, 0.9650547504425049, -0.6250385046005249, 0.1715000867843628, -0.513427734375, -0.684814453125, -0.04541015625, 0, 
180, 3630742259, 0.45872920751571655, 0.579364538192749, -0.39165908098220825, 0.5482032299041748, 9.765104293823242, 1.1040842533111572, 0.3236232399940491, 0.9764530062675476, -0.6868201494216919, 0.05344409868121147, -0.515869140625, -0.683349609375, -0.044677734375, 0, 
181, 3630750592, 0.45874106884002686, 0.5793564915657043, -0.3916677236557007, 0.5481957197189331, 9.753137588500977, 1.0902577638626099, 0.3291380703449249, 0.4286157786846161, -0.6880751848220825, -0.017699435353279114, -0.51123046875, -0.680908203125, -0.04541015625, 0, 
182, 3630758925, 0.45873579382896423, 0.579348623752594, -0.39167773723602295, 0.548201322555542, 9.72514820098877, 1.132738471031189, 0.32772180438041687, 0.6200054287910461, -0.6470667719841003, 0.14793500304222107, -0.515380859375, -0.683837890625, -0.047119140625, 0, 
183, 3630767258, 0.458721399307251, 0.5793448090553284, -0.39168524742126465, 0.5482121109962463, 9.685857772827148, 1.1211580038070679, 0.33233538269996643, 0.7712061405181885, -0.7095398902893066, 0.2631734311580658, -0.511474609375, -0.681396484375, -0.044189453125, 0, 
184, 3630775591, 0.4587123990058899, 0.5793448090553284, -0.39169368147850037, 0.5482136607170105, 9.683841705322266, 1.0576190948486328, 0.3566407561302185, 0.6895095705986023, -0.7475898861885071, 0.09592530876398087, -0.5107421875, -0.68505859375, -0.043212890625, 0, 
185, 3630783924, 0.4587051570415497, 0.5793470740318298, -0.39170899987220764, 0.5482062697410583, 9.778679847717285, 1.0208823680877686, 0.2953909635543823, 0.5967091917991638, -0.9088571071624756, 0.1266111582517624, -0.511962890625, -0.682373046875, -0.0439453125, 0, 
186, 3630792257, 0.45868775248527527, 0.5793570876121521, -0.39171263575553894, 0.5482076406478882, 9.790188789367676, 1.0263257026672363, 0.3227076530456543, 0.854542076587677, -0.8402365446090698, 0.065085768699646, -0.510009765625, -0.684814453125, -0.044189453125, 0, 
187, 3630800590, 0.4586535096168518, 0.5793683528900146, -0.39170393347740173, 0.5482304692268372, 9.746657371520996, 1.0761812925338745, 0.36174777150154114, 1.2127442359924316, -0.732029139995575, 0.27838829159736633, -0.51025390625, -0.682373046875, -0.044921875, 0, 
188, 3630808923, 0.45861297845840454, 0.5793836712837219, -0.3916984796524048, 0.5482521057128906, 9.661945343017578, 1.10716712474823, 0.2802412211894989, 1.2500771284103394, -0.7849098443984985, 0.2686421275138855, -0.512939453125, -0.682373046875, -0.047119140625, 0, 
189, 3630817256, 0.4586047828197479, 0.5793806910514832, -0.3917187750339508, 0.5482475757598877, 9.619996070861816, 1.1089413166046143, 0.2765074372291565, 0.5495021939277649, -0.8844979405403137, 0.2173367738723755, -0.512939453125, -0.683837890625, -0.045654296875, 0, 
190, 3630825589, 0.45859238505363464, 0.5793840289115906, -0.3917279541492462, 0.5482479333877563, 9.625194549560547, 1.1008726358413696, 0.2803771495819092, 0.7238454222679138, -0.8060287237167358, 0.10211114585399628, -0.51318359375, -0.68310546875, -0.048095703125, 0, 
191, 3630833922, 0.4585498571395874, 0.5794133543968201, -0.39172667264938354, 0.5482534766197205, 9.652704238891602, 1.069042444229126, 0.2735533118247986, 1.2441984415054321, -1.0951365232467651, 0.19424553215503693, -0.5126953125, -0.683837890625, -0.04443359375, 0, 
192, 3630842255, 0.45850905776023865, 0.5794428586959839, -0.3917202353477478, 0.5482609272003174, 9.69135856628418, 1.0199024677276611, 0.15796338021755219, 1.2717596292495728, -1.001670241355896, 0.09698829799890518, -0.512451171875, -0.681884765625, -0.046630859375, 0, 
193, 3630850588, 0.45849257707595825, 0.5794579386711121, -0.39171484112739563, 0.5482625365257263, 9.731742858886719, 1.0729199647903442, 0.15025262534618378, 0.955142080783844, -0.8543627858161926, 0.017199957743287086, -0.511962890625, -0.683349609375, -0.0478515625, 0, 
194, 3630858921, 0.4584350287914276, 0.5794936418533325, -0.3917044401168823, 0.5482803583145142, 9.753148078918457, 1.111806869506836, 0.25324082374572754, 1.531923532485962, -1.0308961868286133, 0.22137103974819183, -0.512939453125, -0.685302734375, -0.045654296875, 0, 
195, 3630867254, 0.4583985507488251, 0.5795091390609741, -0.3917258083820343, 0.5482792854309082, 9.787070274353027, 1.1506563425064087, 0.3021003305912018, 0.9004811644554138, -1.1541005373001099, 0.36191633343696594, -0.5126953125, -0.6845703125, -0.043701171875, 0, 
196, 3630875587, 0.4583524167537689, 0.5795328617095947, -0.3917329013347626, 0.5482876896858215, 9.795568466186523, 1.1802691221237183, 0.35569658875465393, 1.1809570789337158, -1.0649374723434448, 0.2810778021812439, -0.510009765625, -0.681884765625, -0.0478515625, 0, 
197, 3630883920, 0.4583183526992798, 0.5795437097549438, -0.3917575180530548, 0.5482872724533081, 9.739718437194824, 1.161264419555664, 0.3465122580528259, 0.8308618068695068, -1.1221083402633667, 0.39956924319267273, -0.513916015625, -0.68310546875, -0.043701171875, 0, 
198, 3630892253, 0.45830464363098145, 0.5795332789421082, -0.39182886481285095, 0.5482588410377502, 9.664421081542969, 1.1362935304641724, 0.3086165487766266, 0.024973880499601364, -1.3306467533111572, 0.49975934624671936, -0.51171875, -0.6806640625, -0.046142578125, 0, 
199, 3630900586, 0.4583049714565277, 0.5795224905014038, -0.3918946087360382, 0.5482228398323059, 9.660628318786621, 1.033428430557251, 0.32927390933036804, -0.08228573203086853, -1.3155087232589722, 0.3609045445919037, -0.5146484375, -0.679931640625, -0.046875, 0, 
200, 3630908919, 0.4582828879356384, 0.5795281529426575, -0.391951322555542, 0.5481947064399719, 9.639856338500977, 0.9950175881385803, 0.34165552258491516, 0.3051423728466034, -1.4025458097457886, 0.36118629574775696, -0.5146484375, -0.6845703125, -0.046875, 0, 
201, 3630917252, 0.45823273062705994, 0.5795645713806152, -0.3919636309146881, 0.5481894016265869, 9.621824264526367, 0.9992210268974304, 0.27954140305519104, 1.1875656843185425, -1.3637018203735352, 0.25390109419822693, -0.513427734375, -0.681884765625, -0.04443359375, 0, 
202, 3630925585, 0.45816221833229065, 0.5796159505844116, -0.3919675052165985, 0.548191249370575, 9.654901504516602, 1.011938452720642, 0.270995169878006, 1.5392489433288574, -1.435191035270691, 0.24939297139644623, -0.51416015625, -0.68359375, -0.044677734375, 0, 
203, 3630933918, 0.45807573199272156, 0.5796716213226318, -0.3919408321380615, 0.5482236742973328, 9.676847457885742, 1.0746102333068848, 0.3159840703010559, 2.0934128761291504, -1.160375952720642, 0.3491091728210449, -0.510498046875, -0.681640625, -0.0439453125, 0, 
204, 3630942251, 0.4579943120479584, 0.579735279083252, -0.39193612337112427, 0.5482277274131775, 9.687126159667969, 1.1145589351654053, 0.24594151973724365, 1.7805734872817993, -1.5155303478240967, 0.2099086493253708, -0.5107421875, -0.68017578125, -0.042724609375, 0, 
205, 3630950584, 0.45789459347724915, 0.5798135995864868, -0.39191168546676636, 0.5482456684112549, 9.707040786743164, 1.1281505823135376, 0.26994526386260986, 2.2494421005249023, -1.5291059017181396, 0.256193608045578, -0.514892578125, -0.6826171875, -0.044677734375, 0, 
206, 3630958917, 0.45780426263809204, 0.5798781514167786, -0.391901433467865, 0.5482601523399353, 9.732425689697266, 1.082224726676941, 0.32105010747909546, 1.9553136825561523, -1.452903389930725, 0.29200229048728943, -0.514404296875, -0.683837890625, -0.043701171875, 0, 
207, 3630967250, 0.45775794982910156, 0.5799093246459961, -0.3919219672679901, 0.5482511520385742, 9.71934700012207, 1.0702462196350098, 0.313170850276947, 1.0408600568771362, -1.3838218450546265, 0.29809847474098206, -0.510009765625, -0.679931640625, -0.046630859375, 0, 
208, 3630975583, 0.4577004611492157, 0.5799461603164673, -0.3919322192668915, 0.5482528805732727, 9.710503578186035, 1.036623477935791, 0.26336532831192017, 1.2951452732086182, -1.2977194786071777, 0.2781321704387665, -0.515380859375, -0.682373046875, -0.044677734375, 0, 
209, 3630983916, 0.4576326906681061, 0.5800051689147949, -0.3919330835342407, 0.5482465624809265, 9.696401596069336, 0.9992091059684753, 0.27473098039627075, 1.550339937210083, -1.5624170303344727, 0.16686391830444336, -0.5126953125, -0.6826171875, -0.04541015625, 0, 
210, 3630992249, 0.45757734775543213, 0.5800515413284302, -0.3919445276260376, 0.5482354760169983, 9.695988655090332, 0.9945195317268372, 0.31986886262893677, 1.2598744630813599, -1.4674140214920044, 0.14068619906902313, -0.51220703125, -0.68115234375, -0.043212890625, 0, 
211, 3631000582, 0.4575147032737732, 0.580113410949707, -0.39193883538246155, 0.5482263565063477, 9.671470642089844, 1.0168778896331787, 0.2758106291294098, 1.5601247549057007, -1.5399022102355957, 0.043224021792411804, -0.513427734375, -0.68212890625, -0.042236328125, 0, 
212, 3631008915, 0.4574383497238159, 0.5801877379417419, -0.3919302821159363, 0.5482174158096313, 9.709379196166992, 1.0149563550949097, 0.2692989408969879, 1.7654612064361572, -1.6483144760131836, 0.0014856256311759353, -0.5146484375, -0.682373046875, -0.045166015625, 0, 
213, 3631017248, 0.4573635458946228, 0.5802780985832214, -0.3919210135936737, 0.5481908321380615, 9.75416088104248, 0.9657016396522522, 0.3290691673755646, 1.7725820541381836, -1.9377554655075073, -0.15661823749542236, -0.5107421875, -0.6826171875, -0.0419921875, 0, 
214, 3631025581, 0.4572943449020386, 0.5803669095039368, -0.39191362261772156, 0.5481597185134888, 9.803997993469238, 0.9675906896591187, 0.40643709897994995, 1.6706116199493408, -1.9034324884414673, -0.26053518056869507, -0.514892578125, -0.680419921875, -0.04248046875, 0, 
215, 3631033914, 0.4572141170501709, 0.5804621577262878, -0.39191269874572754, 0.5481265783309937, 9.812652587890625, 0.9840670228004456, 0.39848586916923523, 1.748069167137146, -2.108269691467285, -0.11681372672319412, -0.514892578125, -0.684814453125, -0.04345703125, 0, 
216, 3631042247, 0.4571220278739929, 0.5805632472038269, -0.39194145798683167, 0.548075795173645, 9.747655868530273, 1.0113049745559692, 0.4092864990234375, 1.5535290241241455, -2.5031769275665283, 0.010604294016957283, -0.513916015625, -0.68359375, -0.04345703125, 0, 
217, 3631050580, 0.45705196261405945, 0.580655574798584, -0.3919619023799896, 0.5480219125747681, 9.678196907043457, 1.0537757873535156, 0.39435485005378723, 1.373986005783081, -2.3308699131011963, -0.1378301978111267, -0.514892578125, -0.68310546875, -0.038818359375, 0, 
218, 3631058913, 0.45694878697395325, 0.580780565738678, -0.3919787108898163, 0.5479634404182434, 9.636079788208008, 0.9913501739501953, 0.36737313866615295, 1.8403955698013306, -2.7287611961364746, -0.17837752401828766, -0.515869140625, -0.683349609375, -0.041748046875, 0, 
219, 3631067246, 0.45685306191444397, 0.5809023976325989, -0.39200359582901, 0.5478963255882263, 9.630252838134766, 0.9483137726783752, 0.2807672619819641, 1.6591236591339111, -2.82714581489563, -0.1518411785364151, -0.51318359375, -0.681396484375, -0.04052734375, 0, 
220, 3631075579, 0.4567309021949768, 0.58106929063797, -0.391976922750473, 0.5478402972221375, 9.654282569885254, 1.026235818862915, 0.26079440116882324, 2.5963995456695557, -2.8560128211975098, -0.5945320129394531, -0.515625, -0.68212890625, -0.04150390625, 0, 
221, 3631083912, 0.4566037058830261, 0.5812441110610962, -0.3919488787651062, 0.5477811098098755, 9.725276947021484, 1.1069223880767822, 0.20964249968528748, 2.6863949298858643, -2.9985172748565674, -0.5728750824928284, -0.514892578125, -0.68359375, -0.04150390625, 0, 
222, 3631092245, 0.45648202300071716, 0.5813965201377869, -0.3919318616390228, 0.5477330088615417, 9.727760314941406, 1.2118602991104126, 0.13820846378803253, 2.4701082706451416, -2.741401433944702, -0.3919105529785156, -0.51416015625, -0.684814453125, -0.042236328125, 0, 
223, 3631100578, 0.45636144280433655, 0.5815487504005432, -0.3919309973716736, 0.5476722717285156, 9.747015953063965, 1.274619698524475, 0.24471420049667358, 2.280319929122925, -2.9764766693115234, -0.29464054107666016, -0.513671875, -0.684814453125, -0.03857421875, 0, 
224, 3631108911, 0.4562853276729584, 0.581658124923706, -0.3919791579246521, 0.5475851893424988, 9.731796264648438, 1.3116708993911743, 0.25722363591194153, 1.1359658241271973, -2.8911173343658447, -0.22682687640190125, -0.514892578125, -0.684326171875, -0.040771484375, 0, 
225, 3631117244, 0.45621660351753235, 0.5817524790763855, -0.3920535445213318, 0.547488808631897, 9.685792922973633, 1.3029508590698242, 0.2423367202281952, 0.7420700192451477, -3.018368721008301, 0.005942502990365028, -0.514404296875, -0.683349609375, -0.041015625, 0, 
226, 3631125577, 0.45613351464271545, 0.581848680973053, -0.3921442925930023, 0.547390878200531, 9.682441711425781, 1.1889070272445679, 0.2973181903362274, 0.7295958399772644, -3.1829910278320312, 0.1710006296634674, -0.518798828125, -0.684326171875, -0.042724609375, 0, 
227, 3631133910, 0.4560870826244354, 0.5819234848022461, -0.39224931597709656, 0.5472747683525085, 9.64688777923584, 1.0657941102981567, 0.32419338822364807, 0.10604292899370193, -3.1006417274475098, 0.06577735394239426, -0.515625, -0.681884765625, -0.0380859375, 0, 
228, 3631142243, 0.4560198485851288, 0.582015872001648, -0.39235520362854004, 0.5471564531326294, 9.620849609375, 0.9445182681083679, 0.3177378475666046, 0.3553847074508667, -3.328467607498169, 0.06327996402978897, -0.51904296875, -0.68212890625, -0.036865234375, 0, 
229, 3631150576, 0.4559418261051178, 0.5821247696876526, -0.3924593925476074, 0.547031044960022, 9.575983047485352, 0.8774175047874451, 0.34140801429748535, 0.5254376530647278, -3.59718656539917, 0.05528832972049713, -0.51953125, -0.681640625, -0.037841796875, 0, 
230, 3631158909, 0.45582661032676697, 0.5822837352752686, -0.3925154507160187, 0.5469176173210144, 9.652305603027344, 0.8832238912582397, 0.38213658332824707, 1.5572173595428467, -3.736335515975952, -0.3027474582195282, -0.516845703125, -0.68115234375, -0.037841796875, 0, 
231, 3631167242, 0.4556673467159271, 0.5824801921844482, -0.39253997802734375, 0.5468236207962036, 9.703140258789062, 0.9394223690032959, 0.351461261510849, 2.4954028129577637, -3.94382381439209, -0.24861179292201996, -0.517333984375, -0.6806640625, -0.04052734375, 0, 
232, 3631175575, 0.4554716944694519, 0.582697868347168, -0.39255183935165405, 0.5467461943626404, 9.704368591308594, 0.9341155886650085, 0.36662009358406067, 3.0966200828552246, -4.0468950271606445, -0.14110882580280304, -0.517578125, -0.6796875, -0.03515625, 0, 
233, 3631183908, 0.4553065299987793, 0.582910418510437, -0.392593115568161, 0.546627402305603, 9.694857597351074, 0.9471917748451233, 0.3210878074169159, 2.3831615447998047, -4.400423049926758, -0.3132108747959137, -0.5205078125, -0.681640625, -0.037353515625, 0, 
234, 3631192241, 0.4551727771759033, 0.5831138491630554, -0.39265739917755127, 0.5464757084846497, 9.698797225952148, 1.0589958429336548, 0.33846017718315125, 1.7161411046981812, -4.528494358062744, -0.5760385394096375, -0.51806640625, -0.681640625, -0.033447265625, 0, 
235, 3631200574, 0.4550161361694336, 0.5833401083946228, -0.39270633459091187, 0.5463294386863708, 9.76308822631836, 1.0891906023025513, 0.37771838903427124, 2.19307804107666, -4.726492881774902, -0.560926079750061, -0.519775390625, -0.680419921875, -0.035888671875, 0, 
236, 3631208907, 0.4548089802265167, 0.5835817456245422, -0.3927539885044098, 0.546209454536438, 9.679097175598145, 1.024694561958313, 0.37204959988594055, 2.841092348098755, -4.8534111976623535, -0.16590340435504913, -0.520751953125, -0.682373046875, -0.033935546875, 0, 
237, 3631217240, 0.4545924663543701, 0.5838436484336853, -0.39281201362609863, 0.5460682511329651, 9.660435676574707, 0.9278393983840942, 0.3232311010360718, 2.8568968772888184, -5.334370136260986, -0.19892016053199768, -0.51953125, -0.682373046875, -0.0341796875, 0, 
238, 3631225573, 0.4543932378292084, 0.5841181874275208, -0.39286333322525024, 0.5459036827087402, 9.661113739013672, 0.889092743396759, 0.2548496723175049, 2.713905096054077, -5.437735557556152, -0.6531245708465576, -0.519287109375, -0.6806640625, -0.03125, 0, 
239, 3631233906, 0.4541729688644409, 0.5844144225120544, -0.3928687274456024, 0.5457658767700195, 9.698030471801758, 0.921122670173645, 0.24018533527851105, 3.5156822204589844, -5.256822109222412, -0.7587577104568481, -0.521484375, -0.683349609375, -0.031982421875, 0, 
240, 3631242239, 0.4538915753364563, 0.5847430229187012, -0.3928474187850952, 0.5456632971763611, 9.669110298156738, 0.861129641532898, 0.3652767539024353, 4.593439102172852, -5.335982322692871, -0.5232987999916077, -0.52099609375, -0.68408203125, -0.03173828125, 0, 
241, 3631250572, 0.45362284779548645, 0.5850716233253479, -0.39284828305244446, 0.5455338358879089, 9.617618560791016, 0.9290195107460022, 0.4135569930076599, 4.186634063720703, -5.665408134460449, -0.5549836158752441, -0.519775390625, -0.682373046875, -0.02734375, 0, 
242, 3631258905, 0.4533799886703491, 0.5854002833366394, -0.3928699195384979, 0.5453675985336304, 9.586374282836914, 1.0511881113052368, 0.37028443813323975, 3.6157565116882324, -5.908960342407227, -0.8641602396965027, -0.521728515625, -0.681640625, -0.031494140625, 0, 
243, 3631267238, 0.4531343877315521, 0.5857336521148682, -0.3928997814655304, 0.5451922416687012, 9.580343246459961, 1.2284835577011108, 0.28055539727211, 3.564323663711548, -6.126835346221924, -0.8068356513977051, -0.52294921875, -0.68115234375, -0.03125, 0, 
244, 3631275571, 0.4528126120567322, 0.5861474275588989, -0.39288222789764404, 0.5450277328491211, 9.635514259338379, 1.2286425828933716, 0.2144297957420349, 5.085194110870361, -6.713683605194092, -1.0374150276184082, -0.52001953125, -0.68408203125, -0.028076171875, 0, 
245, 3631283904, 0.4523857533931732, 0.5866395235061646, -0.3927772641181946, 0.5449278950691223, 9.757323265075684, 1.1236275434494019, 0.10680745542049408, 7.431407928466797, -6.84995174407959, -0.9215618968009949, -0.523193359375, -0.68359375, -0.02880859375, 0, 
246, 3631292237, 0.45187851786613464, 0.5871664881706238, -0.39262932538986206, 0.5448877811431885, 9.773725509643555, 1.0373200178146362, 0.15733778476715088, 8.936101913452148, -6.749940395355225, -0.5377452969551086, -0.522216796875, -0.68359375, -0.025634765625, 0, 
247, 3631300570, 0.45133399963378906, 0.5877395868301392, -0.3924298882484436, 0.5448652505874634, 9.786165237426758, 1.0572608709335327, 0.05716782808303833, 10.009340286254883, -6.880854606628418, -0.7590779066085815, -0.5234375, -0.681640625, -0.0224609375, 0, 
248, 3631308903, 0.4507235884666443, 0.5883612632751465, -0.39219361543655396, 0.5448697209358215, 9.802342414855957, 1.1576505899429321, -0.11611097306013107, 11.259135246276855, -7.106772422790527, -0.7108463644981384, -0.525634765625, -0.682373046875, -0.021728515625, 0, 
249, 3631317236, 0.45004385709762573, 0.5890101194381714, -0.39196452498435974, 0.5448954105377197, 9.642760276794434, 1.2285079956054688, -0.07174628973007202, 12.05855655670166, -7.602486610412598, -0.09461900591850281, -0.524658203125, -0.68505859375, -0.01953125, 0, 
250, 3631325569, 0.44942033290863037, 0.589615523815155, -0.39187389612197876, 0.5448206663131714, 9.57196044921875, 1.1761423349380493, 0.1260538101196289, 9.744873046875, -8.600083351135254, 0.1635853350162506, -0.526123046875, -0.681396484375, -0.020263671875, 0, 
251, 3631333902, 0.44903331995010376, 0.5900306105613708, -0.391958624124527, 0.5446292161941528, 9.66360855102539, 1.2814844846725464, 0.020015722140669823, 4.7187957763671875, -7.972867012023926, 0.1741383969783783, -0.52734375, -0.68408203125, -0.0146484375, 0, 
252, 3631342235, 0.4487655460834503, 0.5903505682945251, -0.39215385913848877, 0.544362485408783, 9.631250381469727, 1.2519701719284058, -0.14119058847427368, 1.9206069707870483, -7.868680953979492, 0.16905398666858673, -0.52587890625, -0.680419921875, -0.013671875, 0, 
253, 3631350568, 0.4485446810722351, 0.5906480550765991, -0.39244168996810913, 0.5440142750740051, 9.603487968444824, 1.1382198333740234, -0.0754895806312561, 0.27840113639831543, -8.723786354064941, 0.24231067299842834, -0.5283203125, -0.682861328125, -0.016357421875, 0, 
254, 3631358901, 0.4483754336833954, 0.5909253358840942, -0.392764151096344, 0.543619692325592, 9.665993690490723, 1.0807433128356934, 0.05123249441385269, -0.7836291193962097, -8.840689659118652, -0.09391459822654724, -0.52978515625, -0.68212890625, -0.013427734375, 0, 
255, 3631367234, 0.44817689061164856, 0.5912274718284607, -0.3929961025714874, 0.5432873964309692, 9.731803894042969, 1.0344805717468262, 0.1257871836423874, 0.6287782192230225, -8.163141250610352, -0.3037976026535034, -0.530517578125, -0.67919921875, -0.013671875, 0, 
256, 3631375567, 0.4479497969150543, 0.5915522575378418, -0.39320608973503113, 0.5429691672325134, 9.720417022705078, 1.0268892049789429, 0.045151080936193466, 1.2320574522018433, -8.19450569152832, -0.36169859766960144, -0.52880859375, -0.681884765625, -0.01318359375, 0, 
257, 3631383900, 0.4477289021015167, 0.5918904542922974, -0.39341580867767334, 0.5426307320594788, 9.636887550354004, 0.9705973267555237, 0.16068729758262634, 1.1652299165725708, -8.465428352355957, -0.5512951612472534, -0.528564453125, -0.680908203125, -0.0107421875, 0, 
258, 3631392233, 0.44753482937812805, 0.5922181010246277, -0.3936186134815216, 0.5422862768173218, 9.569626808166504, 0.9367287158966064, 0.3857126533985138, 0.8911704421043396, -8.20599365234375, -0.8415940999984741, -0.53271484375, -0.680908203125, -0.009765625, 0, 
259, 3631400566, 0.4473244845867157, 0.5925859808921814, -0.3937937319278717, 0.541930615901947, 9.511094093322754, 0.8507412672042847, 0.2717067301273346, 1.4306576251983643, -8.558548927307129, -1.1798557043075562, -0.53076171875, -0.680908203125, -0.0126953125, 0, 
260, 3631408899, 0.44711416959762573, 0.5929853916168213, -0.3939460515975952, 0.5415562987327576, 9.526971817016602, 0.8151081204414368, 0.14306475222110748, 1.681549310684204, -8.760723114013672, -1.7049990892410278, -0.5302734375, -0.68115234375, -0.0068359375, 0, 
261, 3631417232, 0.44690531492233276, 0.5934308171272278, -0.3940484821796417, 0.5411661863327026, 9.592218399047852, 0.7069044709205627, 0.2462797611951828, 2.2467145919799805, -8.963420867919922, -2.4148335456848145, -0.52978515625, -0.6796875, -0.006591796875, 0, 
262, 3631425565, 0.44663840532302856, 0.5939154028892517, -0.3941091001033783, 0.540810763835907, 9.649036407470703, 0.6770318150520325, 0.31015992164611816, 3.4511210918426514, -8.984602928161621, -2.3778975009918213, -0.531982421875, -0.68017578125, -0.005859375, 0, 
263, 3631433898, 0.44629067182540894, 0.5944842100143433, -0.3940774202346802, 0.5404959321022034, 9.644286155700684, 0.6457920074462891, 0.3505445122718811, 5.545660972595215, -9.193641662597656, -2.6837575435638428, -0.53369140625, -0.679931640625, -0.005615234375, 0, 
264, 3631442231, 0.445877343416214, 0.5951433777809143, -0.39393267035484314, 0.5402169823646545, 9.596667289733887, 0.7081796526908875, 0.20616717636585236, 7.660014629364014, -9.190452575683594, -3.4438469409942627, -0.53369140625, -0.682373046875, 0.001220703125, 0, 
265, 3631450564, 0.4453890025615692, 0.595907986164093, -0.3936499059200287, 0.5399829745292664, 9.69592571258545, 0.8541569709777832, -0.1550077348947525, 10.19874382019043, -9.212505340576172, -4.257611274719238, -0.5341796875, -0.681396484375, 0.00048828125, 0, 
266, 3631458897, 0.4448372423648834, 0.5967100262641907, -0.3932819962501526, 0.5398201942443848, 9.792424201965332, 0.9071213006973267, -0.17410506308078766, 11.956816673278809, -8.681639671325684, -4.304575443267822, -0.537109375, -0.68359375, 0.000244140625, 0, 
267, 3631467230, 0.44424691796302795, 0.5975063443183899, -0.3929109573364258, 0.539695680141449, 9.8019380569458, 0.9242522716522217, -0.13825681805610657, 12.478270530700684, -8.55968952178955, -3.727384090423584, -0.5341796875, -0.683837890625, 0.006103515625, 0, 
268, 3631475563, 0.4436451196670532, 0.5982619524002075, -0.3925575613975525, 0.5396109223365784, 9.727559089660645, 0.9990448355674744, -0.13021427392959595, 12.397624015808105, -8.055947303771973, -3.086784601211548, -0.536865234375, -0.6796875, 0.004638671875, 0, 
269, 3631483896, 0.44306790828704834, 0.5990277528762817, -0.3922017514705658, 0.5394940376281738, 9.64966106414795, 1.1399792432785034, -0.34553536772727966, 12.113076210021973, -8.292390823364258, -3.4878525733947754, -0.536865234375, -0.68408203125, 0.0068359375, 0, 
270, 3631492229, 0.4424903690814972, 0.5997989773750305, -0.39190539717674255, 0.5393267273902893, 9.624401092529297, 1.3185313940048218, -0.4085637032985687, 11.424260139465332, -9.067557334899902, -3.3830649852752686, -0.53662109375, -0.684814453125, 0.0087890625, 0, 
271, 3631500562, 0.4419994056224823, 0.6004836559295654, -0.3917716443538666, 0.5390645265579224, 9.59315299987793, 1.3984986543655396, -0.30406084656715393, 8.479530334472656, -9.777596473693848, -2.7441046237945557, -0.537841796875, -0.682373046875, 0.0107421875, 0, 
272, 3631508895, 0.44159671664237976, 0.6010991334915161, -0.39177677035331726, 0.5387048721313477, 9.614500999450684, 1.3651995658874512, -0.29307329654693604, 5.762267589569092, -10.392848014831543, -2.523386240005493, -0.53662109375, -0.685791015625, 0.011474609375, 0, 
273, 3631517228, 0.44119277596473694, 0.6017193794250488, -0.39172491431236267, 0.5383808016777039, 9.68088436126709, 1.2762709856033325, -0.14295905828475952, 6.42618989944458, -9.837942123413086, -2.7411587238311768, -0.54052734375, -0.683349609375, 0.01513671875, 0, 
274, 3631525561, 0.4407496750354767, 0.6023551225662231, -0.39160966873168945, 0.5381165146827698, 9.606504440307617, 1.1789125204086304, 0.0707429051399231, 7.625345230102539, -9.24079704284668, -2.749713897705078, -0.536865234375, -0.685546875, 0.015380859375, 0, 
275, 3631533894, 0.440242201089859, 0.6030162572860718, -0.39149385690689087, 0.5378758311271667, 9.483216285705566, 1.1714897155761719, 0.057802848517894745, 8.4539155960083, -9.619426727294922, -2.219345808029175, -0.5390625, -0.683837890625, 0.018310546875, 0, 
276, 3631542227, 0.43961387872695923, 0.6037663221359253, -0.3912750780582428, 0.5377073287963867, 9.404500961303711, 1.1240288019180298, 0.010607540607452393, 11.136137962341309, -9.661974906921387, -2.2725470066070557, -0.54052734375, -0.68408203125, 0.02099609375, 0, 
277, 3631550560, 0.438839316368103, 0.6046649217605591, -0.3908706307411194, 0.5376244187355042, 9.477941513061523, 0.8166693449020386, 0.1248454675078392, 15.089349746704102, -9.759653091430664, -2.9621975421905518, -0.542724609375, -0.683349609375, 0.022705078125, 0, 
278, 3631558893, 0.4377965033054352, 0.6057740449905396, -0.390226811170578, 0.5376936793327332, 9.581982612609863, 0.5524548292160034, 0.1803770661354065, 21.169689178466797, -10.002095222473145, -3.235809564590454, -0.546630859375, -0.687255859375, 0.02392578125, 0, 
279, 3631567226, 0.436680406332016, 0.6069168448448181, -0.3894606828689575, 0.5378678441047668, 9.725476264953613, 0.5789009928703308, -0.15219619870185852, 23.458375930786133, -9.081596374511719, -3.209350109100342, -0.543701171875, -0.688720703125, 0.028076171875, 0, 
280, 3631575559, 0.4356657564640045, 0.6079760789871216, -0.38879841566085815, 0.5379735827445984, 9.697430610656738, 0.8413801789283752, -0.5124269127845764, 20.96673583984375, -9.067060470581055, -3.109236717224121, -0.5419921875, -0.68701171875, 0.029052734375, 0, 
281, 3631583892, 0.4346886873245239, 0.609039306640625, -0.3881901800632477, 0.5380004644393921, 9.66448974609375, 1.2051241397857666, -0.41771072149276733, 19.86525535583496, -9.925020217895508, -3.376251697540283, -0.547119140625, -0.6875, 0.031982421875, 0, 
282, 3631592225, 0.4337536692619324, 0.6101174354553223, -0.3875563442707062, 0.5379905700683594, 9.661407470703125, 1.5327637195587158, -0.3906048834323883, 19.583961486816406, -9.922280311584473, -4.254385471343994, -0.545166015625, -0.689208984375, 0.032958984375, 0, 
283, 3631600558, 0.4329162538051605, 0.6111515760421753, -0.38698315620422363, 0.5379042029380798, 9.636540412902832, 1.6835631132125854, -0.6870617866516113, 17.65753936767578, -10.122941970825195, -4.637446403503418, -0.546142578125, -0.6904296875, 0.032958984375, 0, 
284, 3631608891, 0.4322309195995331, 0.6120989322662354, -0.3864978849887848, 0.5377269387245178, 9.730369567871094, 1.5664273500442505, -0.8992636203765869, 14.718429565429688, -9.913262367248535, -5.1521382331848145, -0.544189453125, -0.6904296875, 0.0390625, 0, 
285, 3631617224, 0.43174612522125244, 0.6129077076911926, -0.3861135244369507, 0.5374711155891418, 9.8396635055542, 1.3153423070907593, -0.5614030957221985, 11.054261207580566, -9.129952430725098, -5.465144157409668, -0.545166015625, -0.6884765625, 0.04296875, 0, 
286, 3631625557, 0.43141698837280273, 0.6135677695274353, -0.38589978218078613, 0.5371356010437012, 9.852461814880371, 1.2182087898254395, -0.464146226644516, 7.165198802947998, -8.8436861038208, -4.914078235626221, -0.547607421875, -0.687744140625, 0.042236328125, 0, 
287, 3631633890, 0.4311401844024658, 0.6141698956489563, -0.3857356905937195, 0.5367876887321472, 9.770661354064941, 1.2912648916244507, -0.7102143168449402, 5.957411289215088, -8.581014633178711, -4.593747615814209, -0.55126953125, -0.690185546875, 0.045654296875, 0, 
288, 3631642223, 0.4308156371116638, 0.6148240566253662, -0.38550183176994324, 0.5364673733711243, 9.779254913330078, 1.3319907188415527, -0.8396190404891968, 7.31810188293457, -8.528592109680176, -4.997029781341553, -0.547607421875, -0.6904296875, 0.0458984375, 0, 
289, 3631650556, 0.43045881390571594, 0.6155014634132385, -0.3852475583553314, 0.5361592769622803, 9.937887191772461, 1.355683445930481, -0.8220062851905823, 7.959433078765869, -8.689374923706055, -4.929230213165283, -0.548583984375, -0.690673828125, 0.048583984375, 0, 
290, 3631658889, 0.43006783723831177, 0.6161655187606812, -0.3849533498287201, 0.5359216332435608, 9.999526977539062, 1.434037685394287, -0.7443705797195435, 8.822234153747559, -7.895346164703369, -4.579864501953125, -0.5498046875, -0.691162109375, 0.049072265625, 0, 
291, 3631667222, 0.4297080934047699, 0.6167702674865723, -0.38472381234169006, 0.5356796383857727, 9.898573875427246, 1.7124989032745361, -0.829827070236206, 7.721437454223633, -7.755542278289795, -3.9216291904449463, -0.549072265625, -0.69482421875, 0.052734375, 0, 
292, 3631675555, 0.42946872115135193, 0.6172482967376709, -0.3845972716808319, 0.5354117155075073, 9.777132034301758, 2.0559334754943848, -0.7991094589233398, 5.041727542877197, -6.971158981323242, -3.4704606533050537, -0.55224609375, -0.6962890625, 0.053466796875, 0, 
293, 3631683888, 0.4292644262313843, 0.6176785826683044, -0.38452377915382385, 0.5351319909095764, 9.758382797241211, 2.101022720336914, -0.8754395246505737, 4.020385265350342, -6.888885021209717, -3.0415499210357666, -0.551513671875, -0.69287109375, 0.053955078125, 0, 
294, 3631692221, 0.42905110120773315, 0.618117094039917, -0.3844743072986603, 0.534832239151001, 9.864968299865723, 1.701395869255066, -0.9141093492507935, 3.852278709411621, -7.26743745803833, -2.9865047931671143, -0.55224609375, -0.69580078125, 0.05322265625, 0, 
295, 3631700554, 0.42885279655456543, 0.6185279488563538, -0.38439929485321045, 0.5345700979232788, 9.932076454162598, 1.331254482269287, -0.8686994910240173, 3.960780143737793, -6.5543622970581055, -2.8897593021392822, -0.55078125, -0.694580078125, 0.0556640625, 0, 
296, 3631708887, 0.42863699793815613, 0.6189230680465698, -0.3843241035938263, 0.534339964389801, 9.884343147277832, 1.2020193338394165, -0.9283495545387268, 4.1731486320495605, -6.219662666320801, -2.5486552715301514, -0.552001953125, -0.6953125, 0.057373046875, 0, 
297, 3631717220, 0.4284459948539734, 0.6193040013313293, -0.3842814266681671, 0.5340821743011475, 9.94268798828125, 1.0825430154800415, -0.945075273513794, 3.506256580352783, -6.449038028717041, -2.482903242111206, -0.55126953125, -0.692626953125, 0.057373046875, 0, 
298, 3631725553, 0.4283369481563568, 0.6196332573890686, -0.38426080346107483, 0.5338025689125061, 9.939558029174805, 0.9846487641334534, -0.6935251355171204, 2.215977191925049, -5.911791801452637, -2.8093183040618896, -0.552001953125, -0.695068359375, 0.054931640625, 0, 
299, 3631733886, 0.42831188440322876, 0.6199431419372559, -0.3842569887638092, 0.5334656238555908, 9.870199203491211, 0.8180547952651978, -0.6365376114845276, 0.9684743285179138, -5.954041481018066, -3.4626219272613525, -0.550537109375, -0.69482421875, 0.057373046875, 0, 
300, 3631742219, 0.42838001251220703, 0.6202282309532166, -0.38428133726119995, 0.5330618023872375, 9.804154396057129, 0.5770919322967529, -0.5838439464569092, -0.5412415862083435, -5.975736618041992, -4.224952220916748, -0.55419921875, -0.696533203125, 0.060546875, 0, 
301, 3631750552, 0.4285453259944916, 0.620509922504425, -0.38428574800491333, 0.5325977802276611, 9.741524696350098, 0.3883591592311859, -0.4242309033870697, -1.5490338802337646, -5.8718976974487305, -5.388839244842529, -0.552978515625, -0.695556640625, 0.0595703125, 0, 
302, 3631758885, 0.42876482009887695, 0.6208271980285645, -0.38422301411628723, 0.5320967435836792, 9.670145988464355, 0.10564053058624268, -0.40729478001594543, -1.5199488401412964, -5.728598594665527, -6.821173667907715, -0.5537109375, -0.694580078125, 0.06298828125, 0, 
303, 3631767218, 0.42901065945625305, 0.6212234497070312, -0.38406458497047424, 0.531549870967865, 9.629538536071777, -0.17067284882068634, -0.47284120321273804, -0.8066436648368835, -6.033177852630615, -8.463533401489258, -0.553466796875, -0.695068359375, 0.064453125, 0, 
304, 3631775551, 0.4292747974395752, 0.6217074394226074, -0.38383081555366516, 0.5309392809867859, 9.657608985900879, -0.4049684405326843, -0.2473706603050232, -0.24569174647331238, -6.638697624206543, -10.133401870727539, -0.552490234375, -0.697265625, 0.0634765625, 0, 
305, 3631783884, 0.42955583333969116, 0.6222581267356873, -0.3834545612335205, 0.5303381085395813, 9.688947677612305, -0.4612956941127777, -0.11723403632640839, 1.107175350189209, -6.152859210968018, -11.720677375793457, -0.55615234375, -0.700439453125, 0.064697265625, 0, 
306, 3631792217, 0.4298544228076935, 0.6228747963905334, -0.38297632336616516, 0.5297176837921143, 9.61957836151123, -0.3683183789253235, -0.2868868410587311, 1.9753955602645874, -6.066283702850342, -13.23509407043457, -0.552001953125, -0.699951171875, 0.064208984375, 0, 
307, 3631800550, 0.43021121621131897, 0.6235601305961609, -0.38244056701660156, 0.5290083289146423, 9.560259819030762, -0.2369675189256668, -0.5406292676925659, 1.8471583127975464, -6.721868991851807, -14.991607666015625, -0.551025390625, -0.701171875, 0.06884765625, 0, 
308, 3631808883, 0.4306360185146332, 0.6243215203285217, -0.38186854124069214, 0.5281773805618286, 9.577939987182617, -0.009339275769889355, -0.592521071434021, 1.3251142501831055, -7.705225467681885, -16.964618682861328, -0.54931640625, -0.704833984375, 0.0712890625, 0, 
309, 3631817216, 0.43117502331733704, 0.6251241564750671, -0.3812790513038635, 0.5272128582000732, 9.612895965576172, 0.27158328890800476, -0.7146070003509521, 0.028214087709784508, -8.487278938293457, -18.906436920166016, -0.54833984375, -0.70654296875, 0.07080078125, 0, 
310, 3631825549, 0.4317657947540283, 0.6259397268295288, -0.3806675374507904, 0.5262027382850647, 9.598997116088867, 0.49381154775619507, -0.6804260015487671, -0.43322649598121643, -8.53260326385498, -19.854175567626953, -0.552734375, -0.708740234375, 0.072265625, 0, 
311, 3631833882, 0.4324096739292145, 0.6267566680908203, -0.38009244203567505, 0.5251163840293884, 9.538135528564453, 0.6337621212005615, -0.7401272058486938, -1.5340498685836792, -9.177007675170898, -20.345073699951172, -0.55078125, -0.71044921875, 0.07373046875, 0, 
312, 3631842215, 0.43309286236763, 0.6276090741157532, -0.3794685900211334, 0.5239855051040649, 9.561040878295898, 0.7276197075843811, -0.8303066492080688, -1.552594542503357, -9.27902889251709, -21.53700828552246, -0.5498046875, -0.71240234375, 0.077392578125, 0, 
313, 3631850548, 0.43375521898269653, 0.6285053491592407, -0.37876370549201965, 0.5228716731071472, 9.60116958618164, 0.6958621144294739, -0.645569920539856, -0.4251324534416199, -9.116866111755371, -22.17721176147461, -0.55322265625, -0.71435546875, 0.082275390625, 0, 
314, 3631858881, 0.43436819314956665, 0.6294445991516113, -0.3779609203338623, 0.521812915802002, 9.59073257446289, 0.7858275175094604, -0.5064194798469543, 1.2355672121047974, -8.580644607543945, -22.60039520263672, -0.549560546875, -0.716796875, 0.080810546875, 0, 
315, 3631867214, 0.4349830150604248, 0.6304114460945129, -0.3771461546421051, 0.520721971988678, 9.505484580993652, 0.9107843041419983, -0.600608229637146, 1.3106938600540161, -9.019776344299316, -23.018142700195312, -0.5498046875, -0.72021484375, 0.083984375, 0, 
316, 3631875547, 0.43559738993644714, 0.6314283609390259, -0.37627094984054565, 0.5196082592010498, 9.514608383178711, 1.0124273300170898, -0.6724140644073486, 1.920953631401062, -9.173384666442871, -23.971044540405273, -0.54736328125, -0.721435546875, 0.08544921875, 0, 
317, 3631883880, 0.4362148940563202, 0.6324944496154785, -0.3753354251384735, 0.5184690952301025, 9.479637145996094, 1.0860120058059692, -0.7046296000480652, 2.497389078140259, -9.410073280334473, -24.886869430541992, -0.544677734375, -0.72509765625, 0.08642578125, 0, 
318, 3631892213, 0.43681323528289795, 0.6335965991020203, -0.3743343949317932, 0.5173420906066895, 9.551786422729492, 1.2504855394363403, -0.7368143200874329, 3.400458335876465, -9.225613594055176, -25.470401763916016, -0.545166015625, -0.72900390625, 0.09130859375, 0, 
319, 3631900546, 0.4374735355377197, 0.6346656084060669, -0.37336698174476624, 0.5161717534065247, 9.538860321044922, 1.5537782907485962, -0.9158218502998352, 2.209754228591919, -9.29249095916748, -25.672754287719727, -0.546142578125, -0.730712890625, 0.093994140625, 0, 
320, 3631908879, 0.43823492527008057, 0.6356954574584961, -0.3724573254585266, 0.514914333820343, 9.626063346862793, 1.7784568071365356, -1.1480311155319214, 0.22389422357082367, -9.560738563537598, -26.24394416809082, -0.544921875, -0.733154296875, 0.0966796875, 0, 
321, 3631917212, 0.4390811622142792, 0.6366786956787109, -0.3715779185295105, 0.5136121511459351, 9.713496208190918, 1.700199007987976, -0.9774466156959534, -1.2308160066604614, -9.410957336425781, -26.57645034790039, -0.54345703125, -0.737060546875, 0.1015625, 0, 
322, 3631925545, 0.44000422954559326, 0.6375830769538879, -0.37079107761383057, 0.5122673511505127, 9.687589645385742, 1.6841107606887817, -0.7008695006370544, -3.264280319213867, -9.352967262268066, -26.196950912475586, -0.541748046875, -0.73779296875, 0.10205078125, 0, 
323, 3631933878, 0.441012442111969, 0.6384588479995728, -0.37005165219306946, 0.5108421444892883, 9.607483863830566, 1.8533620834350586, -0.7187623381614685, -4.912749767303467, -9.749540328979492, -26.69045066833496, -0.53955078125, -0.7421875, 0.105224609375, 0, 
324, 3631942211, 0.44208574295043945, 0.6393465995788574, -0.36930564045906067, 0.5093417763710022, 9.656938552856445, 1.7320419549942017, -0.6349976062774658, -5.762707233428955, -10.081476211547852, -27.75328826904297, -0.54248046875, -0.747802734375, 0.10400390625, 0, 
325, 3631950544, 0.4432048499584198, 0.6402407288551331, -0.36852484941482544, 0.5078094601631165, 9.615478515625, 1.4161986112594604, -0.43620699644088745, -6.028430461883545, -10.003788948059082, -28.574176788330078, -0.5400390625, -0.75, 0.106201171875, 0, 
326, 3631958877, 0.4443376660346985, 0.6411563754081726, -0.3677195608615875, 0.5062456130981445, 9.514764785766602, 1.1366181373596191, -0.5307749509811401, -6.022002220153809, -10.171948432922363, -29.221759796142578, -0.5390625, -0.750732421875, 0.109619140625, 0, 
327, 3631967210, 0.445525586605072, 0.6420891880989075, -0.36690276861190796, 0.5046091675758362, 9.488012313842773, 1.083870530128479, -0.6799169778823853, -6.675370216369629, -10.624141693115234, -30.20247459411621, -0.536865234375, -0.75341796875, 0.1123046875, 0, 
328, 3631975543, 0.4467528760433197, 0.6430599689483643, -0.366073340177536, 0.502887487411499, 9.492300987243652, 1.1318014860153198, -0.7735279202461243, -7.147057056427002, -11.323230743408203, -31.333784103393555, -0.537109375, -0.7578125, 0.1181640625, 0, 
329, 3631983876, 0.44800519943237305, 0.64408278465271, -0.36520910263061523, 0.5010896325111389, 9.604765892028809, 1.14299476146698, -0.7760240435600281, -7.1812028884887695, -12.056903839111328, -32.51299285888672, -0.535400390625, -0.76318359375, 0.1181640625, 0, 
330, 3631992209, 0.44929054379463196, 0.6451312303543091, -0.3643115758895874, 0.49923989176750183, 9.62722110748291, 1.223565697669983, -0.7217476963996887, -7.3579792976379395, -12.283320426940918, -33.516082763671875, -0.5380859375, -0.76513671875, 0.118896484375, 0, 
331, 3632000542, 0.4505857825279236, 0.6462931632995605, -0.3632778525352478, 0.49731943011283875, 9.660138130187988, 1.221367597579956, -0.8929107189178467, -6.1436848640441895, -12.837204933166504, -35.77032470703125, -0.5322265625, -0.769775390625, 0.125244140625, 0, 
332, 3632008875, 0.45189082622528076, 0.6475657224655151, -0.3620755970478058, 0.49535292387008667, 9.696707725524902, 1.0624035596847534, -0.7234691381454468, -4.643073558807373, -12.87024974822998, -38.198795318603516, -0.529052734375, -0.77001953125, 0.12841796875, 0, 
333, 3632017208, 0.4533131718635559, 0.6488484740257263, -0.36087167263031006, 0.4932485818862915, 9.512961387634277, 0.913597583770752, -0.7366675138473511, -6.285077095031738, -13.614013671875, -39.896766662597656, -0.529052734375, -0.776123046875, 0.12890625, 0, 
334, 3632025541, 0.4547995626926422, 0.6501940488815308, -0.35964295268058777, 0.49100086092948914, 9.425493240356445, 0.792509913444519, -0.7395132184028625, -7.0215020179748535, -14.804580688476562, -41.781131744384766, -0.525634765625, -0.78076171875, 0.134765625, 0, 
335, 3632033874, 0.45646950602531433, 0.651502251625061, -0.35848304629325867, 0.4885590374469757, 9.51373291015625, 0.7998489737510681, -0.5628963708877563, -10.309455871582031, -15.85356616973877, -43.4129753112793, -0.525634765625, -0.7861328125, 0.137451171875, 0, 
336, 3632042207, 0.4582524001598358, 0.6528046727180481, -0.35728326439857483, 0.4860237240791321, 9.591341972351074, 0.9969590306282043, -0.5820363163948059, -11.563020706176758, -15.802952766418457, -45.10948944091797, -0.521484375, -0.788330078125, 0.14013671875, 0, 
337, 3632050540, 0.46007874608039856, 0.6541650295257568, -0.3559871017932892, 0.4834134876728058, 9.69867992401123, 1.1830050945281982, -0.6075021624565125, -11.29873275756836, -16.084636688232422, -47.00284957885742, -0.518798828125, -0.7919921875, 0.1416015625, 0, 
338, 3632058873, 0.4619188606739044, 0.6555683612823486, -0.35463690757751465, 0.4807429313659668, 9.851713180541992, 1.546733021736145, -0.4675339460372925, -11.10015869140625, -16.46171760559082, -48.191680908203125, -0.515380859375, -0.800537109375, 0.14990234375, 0, 
339, 3632067206, 0.46373647451400757, 0.6570019125938416, -0.3532070219516754, 0.4780809283256531, 9.83924388885498, 2.027442455291748, -0.6765146255493164, -10.119976997375488, -16.2292423248291, -48.837650299072266, -0.518798828125, -0.803466796875, 0.147705078125, 0, 
340, 3632075539, 0.4655739963054657, 0.6585016250610352, -0.35172802209854126, 0.47531428933143616, 9.955877304077148, 2.4722509384155273, -0.8515597581863403, -10.079458236694336, -17.15650749206543, -50.41975021362305, -0.5126953125, -0.80859375, 0.155517578125, 0, 
341, 3632083872, 0.4673568606376648, 0.6600446701049805, -0.3501703441143036, 0.47256654500961304, 10.097240447998047, 2.6567938327789307, -0.5437018275260925, -8.687551498413086, -17.07526206970215, -50.84626007080078, -0.511474609375, -0.8125, 0.15966796875, 0, 
342, 3632092205, 0.4692894518375397, 0.6614822149276733, -0.3487386107444763, 0.4696912467479706, 9.928123474121094, 2.7986910343170166, -0.6837711334228516, -12.17154598236084, -17.592275619506836, -51.00346755981445, -0.5078125, -0.818359375, 0.164306640625, 0, 
343, 3632100538, 0.4712733030319214, 0.6629109978675842, -0.34731197357177734, 0.4667382538318634, 9.76311206817627, 2.9555602073669434, -0.839227557182312, -13.0849027633667, -18.071880340576172, -51.73466491699219, -0.505126953125, -0.822998046875, 0.16845703125, 0, 
344, 3632108871, 0.4732814133167267, 0.664370059967041, -0.34584057331085205, 0.4637145698070526, 9.836016654968262, 2.787519931793213, -0.8745670914649963, -13.175142288208008, -18.461271286010742, -52.91300582885742, -0.500244140625, -0.8271484375, 0.17236328125, 0, 
345, 3632117204, 0.4753659665584564, 0.6658301949501038, -0.3443043828010559, 0.46062082052230835, 10.109192848205566, 2.5149829387664795, -1.01070237159729, -13.769116401672363, -18.366680145263672, -54.4425163269043, -0.500732421875, -0.836181640625, 0.1728515625, 0, 
346, 3632125537, 0.4774525463581085, 0.6673364043235779, -0.3426983654499054, 0.4574699103832245, 10.230626106262207, 2.4841809272766113, -0.9387100338935852, -13.33253288269043, -18.672271728515625, -55.69838333129883, -0.497314453125, -0.838623046875, 0.17822265625, 0, 
347, 3632133870, 0.4795944094657898, 0.6688874363899231, -0.3410507142543793, 0.4541838765144348, 10.513458251953125, 2.371591329574585, -1.0969264507293701, -13.902314186096191, -19.705392837524414, -57.51612854003906, -0.494140625, -0.845703125, 0.181396484375, 0, 
348, 3632142203, 0.48173415660858154, 0.6704880595207214, -0.33930492401123047, 0.4508547782897949, 10.691474914550781, 2.2463812828063965, -0.651646077632904, -13.16336727142334, -19.728498458862305, -58.933475494384766, -0.48681640625, -0.850830078125, 0.18896484375, 0, 
349, 3632150536, 0.4838152527809143, 0.6721594333648682, -0.3374287486076355, 0.4475332200527191, 10.486167907714844, 1.8191066980361938, -0.17781108617782593, -11.292293548583984, -19.55237579345703, -60.04330062866211, -0.489501953125, -0.85791015625, 0.195556640625, 0, 
350, 3632158869, 0.4858938157558441, 0.673962414264679, -0.3353673219680786, 0.44410622119903564, 10.5874662399292, 1.2863489389419556, -0.7807623744010925, -9.758688926696777, -20.071224212646484, -63.05879211425781, -0.485595703125, -0.8623046875, 0.19580078125, 0, 
351, 3632167202, 0.48796287178993225, 0.6759482026100159, -0.33303385972976685, 0.44056156277656555, 11.239463806152344, 0.9136365056037903, -1.015563726425171, -7.311793804168701, -20.552846908569336, -67.1493148803711, -0.47802734375, -0.87060546875, 0.201416015625, 0, 
352, 3632175535, 0.49000558257102966, 0.6780637502670288, -0.33035942912101746, 0.4370431900024414, 11.807930946350098, 0.7058736681938171, -0.3747186064720154, -4.029483795166016, -18.877897262573242, -70.5802993774414, -0.473388671875, -0.876220703125, 0.2060546875, 0, 
353, 3632183868, 0.49211177229881287, 0.6801914572715759, -0.32753175497055054, 0.43348389863967896, 11.759681701660156, 1.1933939456939697, -0.010930335149168968, -3.7861745357513428, -18.061546325683594, -72.72341918945312, -0.470458984375, -0.88330078125, 0.212646484375, 0, 
354, 3632192201, 0.4942152202129364, 0.6824172139167786, -0.3246379494667053, 0.4297534227371216, 11.477337837219238, 2.0196101665496826, 0.26915228366851807, -3.492480993270874, -19.76378059387207, -74.92381286621094, -0.463623046875, -0.889892578125, 0.213623046875, 0, 
355, 3632200534, 0.4963957369327545, 0.6847139596939087, -0.32170379161834717, 0.42577505111694336, 11.53712272644043, 2.4637696743011475, 0.33005857467651367, -4.582297325134277, -21.943674087524414, -77.7701187133789, -0.45703125, -0.895751953125, 0.22216796875, 0, 
356, 3632208867, 0.4988000988960266, 0.6869944334030151, -0.3187713027000427, 0.4214757978916168, 11.81501293182373, 2.4526827335357666, 0.14521203935146332, -8.248695373535156, -23.83841323852539, -81.174560546875, -0.452880859375, -0.902099609375, 0.230712890625, 0, 
357, 3632217200, 0.5014253854751587, 0.6892224550247192, -0.3157999813556671, 0.41693565249443054, 12.204188346862793, 2.010493755340576, 0.45357638597488403, -11.507478713989258, -24.631738662719727, -84.25770568847656, -0.447509765625, -0.912353515625, 0.234619140625, 0, 
358, 3632225533, 0.5041450262069702, 0.6914559006690979, -0.31269556283950806, 0.41227179765701294, 12.3818941116333, 1.329318642616272, 0.7753880620002747, -12.156862258911133, -24.45094108581543, -86.92277526855469, -0.4384765625, -0.921875, 0.24072265625, 0, 
359, 3632233866, 0.5068934559822083, 0.6937990784645081, -0.30941203236579895, 0.407413125038147, 12.296494483947754, 0.7358266115188599, 0.6114017963409424, -11.472333908081055, -25.62041664123535, -90.63264465332031, -0.43701171875, -0.927490234375, 0.24658203125, 0, 
360, 3632242199, 0.5096332430839539, 0.6963006258010864, -0.30586758255958557, 0.40237271785736084, 12.493308067321777, 0.3391152620315552, 0.716649055480957, -9.617730140686035, -26.39893913269043, -94.99286651611328, -0.42626953125, -0.935546875, 0.25390625, 0, 
361, 3632250532, 0.5126141905784607, 0.6987364292144775, -0.3022267520427704, 0.3970804214477539, 12.664905548095703, 0.2265975922346115, 0.7304072380065918, -12.890292167663574, -26.825000762939453, -98.77149963378906, -0.417236328125, -0.943603515625, 0.261962890625, 0, 
362, 3632258865, 0.5156789422035217, 0.701219916343689, -0.29846736788749695, 0.3915390074253082, 12.779621124267578, 0.5163335800170898, 0.7774571180343628, -13.772669792175293, -28.226364135742188, -102.28933715820312, -0.40673828125, -0.95068359375, 0.2666015625, 0, 
363, 3632267198, 0.5188795328140259, 0.7037084698677063, -0.29463592171669006, 0.3857041895389557, 12.851120948791504, 0.8718734979629517, 0.8991144299507141, -15.837082862854004, -30.087766647338867, -105.8617935180664, -0.4013671875, -0.959716796875, 0.275390625, 0, 
364, 3632275531, 0.5222095251083374, 0.7061793804168701, -0.2908177375793457, 0.3795425593852997, 12.858695983886719, 1.3992111682891846, 0.8566062450408936, -18.633380889892578, -32.653804779052734, -108.63610076904297, -0.388427734375, -0.96923828125, 0.280029296875, 0, 
365, 3632283864, 0.5256893634796143, 0.7085602283477783, -0.28709346055984497, 0.3730821907520294, 12.990649223327637, 2.2534632682800293, 0.695075273513794, -22.392915725708008, -35.23748779296875, -110.34937286376953, -0.382568359375, -0.976806640625, 0.28857421875, 0, 
366, 3632292197, 0.5293951034545898, 0.7107930183410645, -0.2835104763507843, 0.36627280712127686, 13.132672309875488, 3.1886677742004395, 0.25280043482780457, -27.794918060302734, -37.93098068237305, -112.01254272460938, -0.37109375, -0.988037109375, 0.295654296875, 0, 
367, 3632300530, 0.5329521298408508, 0.7131143808364868, -0.28006330132484436, 0.3591853082180023, 13.09305477142334, 2.996662139892578, 0.5887611508369446, -27.43537712097168, -42.746490478515625, -112.37516021728516, -0.3603515625, -0.996337890625, 0.30078125, 0, 
368, 3632308863, 0.5372508764266968, 0.7148078083992004, -0.27716702222824097, 0.3515811860561371, 12.859460830688477, 2.2123210430145264, 1.6624795198440552, -44.05244827270508, -45.80961227416992, -111.9352798461914, -0.347900390625, -1.0029296875, 0.3095703125, 0, 
369, 3632317196, 0.5422482490539551, 0.7158896923065186, -0.27472010254859924, 0.3435366153717041, 11.908930778503418, 1.4810141324996948, 1.5316941738128662, -59.256168365478516, -47.927555084228516, -111.90056610107422, -0.340576171875, -1.012451171875, 0.313232421875, 0, 
370, 3632325529, 0.5473941564559937, 0.7168824672698975, -0.27247026562690735, 0.33499079942703247, 11.256287574768066, 0.3660786747932434, 0.7480841875076294, -64.2403793334961, -53.262264251708984, -113.9811019897461, -0.326416015625, -1.01953125, 0.31640625, 0, 
371, 3632333862, 0.5526447892189026, 0.7178480625152588, -0.27028998732566833, 0.3259463310241699, 11.380355834960938, -0.2836499810218811, -0.05733056738972664, -67.63065338134766, -58.27436065673828, -117.52706909179688, -0.316162109375, -1.0283203125, 0.322021484375, 0, 
372, 3632342195, 0.5577024817466736, 0.7189880609512329, -0.2678939402103424, 0.3166651129722595, 11.919988632202148, -0.33682918548583984, -0.8613896369934082, -64.34900665283203, -60.381080627441406, -121.1427230834961, -0.3056640625, -1.036376953125, 0.3251953125, 0, 
373, 3632350528, 0.5623434782028198, 0.7203853726387024, -0.265262633562088, 0.3073597550392151, 12.43557357788086, 0.1934397965669632, -1.4266682863235474, -57.28276443481445, -61.56336975097656, -122.89954376220703, -0.29248046875, -1.044189453125, 0.330078125, 0, 
374, 3632358861, 0.5664300322532654, 0.7219869494438171, -0.26256465911865234, 0.2982805669307709, 12.702754974365234, 1.0047917366027832, -1.599228024482727, -49.140132904052734, -61.60007095336914, -120.10065460205078, -0.279296875, -1.048828125, 0.33642578125, 0, 
375, 3632367194, 0.5697199106216431, 0.7238543033599854, -0.2598595917224884, 0.28973621129989624, 12.020878791809082, 1.7928714752197266, -1.4568308591842651, -37.167579650878906, -60.29650115966797, -113.8271484375, -0.26318359375, -1.056396484375, 0.343505859375, 0, 
376, 3632375527, 0.5720560550689697, 0.7261534929275513, -0.25726571679115295, 0.2815797030925751, 10.569719314575195, 2.3755595684051514, -1.6594243049621582, -23.380464553833008, -62.33829116821289, -107.29446411132812, -0.253662109375, -1.064697265625, 0.351806640625, 0, 
377, 3632383860, 0.5736070275306702, 0.7287652492523193, -0.2552001178264618, 0.2734386622905731, 9.21520709991455, 3.2788546085357666, -2.2946438789367676, -15.040956497192383, -70.42597198486328, -100.10909271240234, -0.244140625, -1.068603515625, 0.35986328125, 0, 
378, 3632392193, 0.5749483108520508, 0.7311654090881348, -0.2536168694496155, 0.26557424664497375, 8.738821029663086, 4.369549751281738, -2.4287219047546387, -15.483386993408203, -71.30236053466797, -91.41602325439453, -0.2353515625, -1.073486328125, 0.37109375, 0, 
379, 3632400526, 0.5761198401451111, 0.7332721948623657, -0.25230154395103455, 0.2583823502063751, 8.343109130859375, 5.742920398712158, -1.605391263961792, -14.700578689575195, -66.2762222290039, -81.9195785522461, -0.2294921875, -1.07861328125, 0.377685546875, 0, 
380, 3632408859, 0.576696515083313, 0.735517144203186, -0.25102970004081726, 0.251871794462204, 7.955304145812988, 7.005794525146484, -1.3275059461593628, -5.425499439239502, -62.20820236206055, -74.29096984863281, -0.220947265625, -1.08203125, 0.38671875, 0, 
381, 3632417192, 0.5772388577461243, 0.7375679016113281, -0.24997128546237946, 0.2456071376800537, 7.81642484664917, 7.848851203918457, -1.8086062669754028, -6.484204292297363, -60.954322814941406, -69.55559539794922, -0.21337890625, -1.0869140625, 0.395263671875, 0, 
382, 3632425525, 0.5782331824302673, 0.7390967011451721, -0.24923014640808105, 0.23934602737426758, 7.625093936920166, 8.312962532043457, -3.7276930809020996, -16.29557228088379, -60.02553176879883, -65.87924194335938, -0.20703125, -1.087890625, 0.4033203125, 0, 
383, 3632433858, 0.5792936086654663, 0.7402552366256714, -0.24890735745429993, 0.2334645539522171, 7.15164041519165, 8.168670654296875, -4.587641716003418, -19.962629318237305, -58.14406204223633, -57.723323822021484, -0.200927734375, -1.087158203125, 0.409423828125, 0, 
384, 3632442191, 0.5816592574119568, 0.7398965358734131, -0.2495424896478653, 0.22797754406929016, 6.937328338623047, 7.634881973266602, -2.5997543334960938, -47.08559036254883, -52.32426834106445, -43.65909957885742, -0.196044921875, -1.089111328125, 0.4111328125, 0, 
385, 3632450524, 0.58537757396698, 0.7379645109176636, -0.2512713372707367, 0.2227640002965927, 7.145492076873779, 6.954400062561035, -0.868277370929718, -75.90424346923828, -48.807926177978516, -29.35438346862793, -0.1943359375, -1.092041015625, 0.406982421875, 0, 
386, 3632458857, 0.5887961983680725, 0.7357972860336304, -0.2535070478916168, 0.21834655106067657, 7.569328784942627, 6.489686012268066, -0.4948967397212982, -73.57679748535156, -45.032798767089844, -15.903586387634277, -0.18896484375, -1.095703125, 0.39990234375, 0, 
387, 3632467190, 0.5915767550468445, 0.7336952686309814, -0.2559291422367096, 0.21505412459373474, 7.83755350112915, 6.13273811340332, -0.8781218528747559, -63.21184539794922, -37.665924072265625, -3.390892744064331, -0.187744140625, -1.098388671875, 0.400390625, 0, 
388, 3632475523, 0.5943504571914673, 0.7311657071113586, -0.25851085782051086, 0.21292294561862946, 7.614438056945801, 5.645472049713135, -0.9010555148124695, -63.02461624145508, -25.9208927154541, 9.361028671264648, -0.186279296875, -1.096923828125, 0.39208984375, 0, 
389, 3632483856, 0.597263514995575, 0.7280656695365906, -0.261368989944458, 0.21190252900123596, 6.578129291534424, 5.067229747772217, -0.46642613410949707, -65.92938232421875, -14.932191848754883, 22.6636905670166, -0.190673828125, -1.097900390625, 0.380615234375, 0, 
390, 3632492189, 0.5994390249252319, 0.7251213192939758, -0.26455917954444885, 0.21189641952514648, 5.3464484214782715, 4.669818878173828, -0.3716582953929901, -54.609092712402344, -10.523929595947266, 36.084716796875, -0.190673828125, -1.095703125, 0.374267578125, 0, 
391, 3632500522, 0.5999696850776672, 0.723063588142395, -0.26813530921936035, 0.21292807161808014, 4.567015171051025, 4.528164863586426, -0.7118752598762512, -28.226852416992188, -12.010690689086914, 49.87193298339844, -0.196533203125, -1.093017578125, 0.37060546875, 0, 
392, 3632508855, 0.598930299282074, 0.7218362092971802, -0.2721062898635864, 0.21497118473052979, 4.331613063812256, 4.340837001800537, -1.155089020729065, -3.213433027267456, -13.34531021118164, 63.86064910888672, -0.205322265625, -1.08837890625, 0.36865234375, 0, 
393, 3632517188, 0.597030758857727, 0.7207998633384705, -0.27661970257759094, 0.21795135736465454, 4.275662899017334, 4.468020915985107, -1.0511237382888794, 8.819465637207031, -12.381209373474121, 78.60758972167969, -0.21337890625, -1.085205078125, 0.36572265625, 0, 
394, 3632525521, 0.5945069789886475, 0.7197476625442505, -0.2815573215484619, 0.2219673991203308, 4.243770599365234, 5.166965961456299, -1.2707695960998535, 17.527605056762695, -7.836878776550293, 93.4319839477539, -0.2294921875, -1.079345703125, 0.3623046875, 0, 
395, 3632533854, 0.5911136865615845, 0.7188382744789124, -0.2867191433906555, 0.2273062914609909, 4.271164417266846, 5.723636627197266, -1.8185522556304932, 31.753604888916016, -0.4687841832637787, 108.3824234008789, -0.239990234375, -1.071533203125, 0.362060546875, 0, 
396, 3632542187, 0.5872398018836975, 0.7177595496177673, -0.29209640622138977, 0.2338167428970337, 4.495345115661621, 5.9399495124816895, -2.0919225215911865, 39.060665130615234, 8.085354804992676, 122.39009094238281, -0.254150390625, -1.061279296875, 0.36279296875, 0, 
397, 3632550520, 0.5832990407943726, 0.7161668539047241, -0.2978013753890991, 0.24124933779239655, 4.664305686950684, 5.942053318023682, -2.026033401489258, 38.230255126953125, 15.83177375793457, 135.17105102539062, -0.269287109375, -1.05322265625, 0.357421875, 0, 
398, 3632558853, 0.5793134570121765, 0.7140145301818848, -0.3039335012435913, 0.2494458705186844, 4.826850414276123, 5.564558029174805, -1.7973251342773438, 35.8818473815918, 21.694469451904297, 148.12652587890625, -0.29052734375, -1.046630859375, 0.35302734375, 0, 
399, 3632567186, 0.5754508972167969, 0.7110852599143982, -0.3106316924095154, 0.2583443522453308, 4.823018550872803, 5.080758094787598, -1.2066651582717896, 29.486175537109375, 27.16665267944336, 161.92645263671875, -0.302490234375, -1.033203125, 0.347412109375, 0, 
400, 3632575519, 0.5716680288314819, 0.707381010055542, -0.31780335307121277, 0.2680084705352783, 4.670854568481445, 4.753255844116211, -0.5122418403625488, 24.1545352935791, 34.090118408203125, 175.81761169433594, -0.31982421875, -1.0205078125, 0.339111328125, 0, 
401, 3632583852, 0.567737877368927, 0.703053891658783, -0.3253341019153595, 0.2785075306892395, 4.299461364746094, 4.517597675323486, -0.0693543329834938, 23.022048950195312, 40.94907760620117, 188.96620178222656, -0.341796875, -1.007080078125, 0.32861328125, 0, 
402, 3632592185, 0.5631710886955261, 0.6984915733337402, -0.33306312561035156, 0.28989076614379883, 4.234800338745117, 4.684885501861572, -0.27167463302612305, 30.530994415283203, 46.09513473510742, 201.45460510253906, -0.363525390625, -0.9931640625, 0.31640625, 0, 
403, 3632600518, 0.5579875111579895, 0.69366854429245, -0.34092873334884644, 0.30209460854530334, 4.3921685218811035, 5.17074728012085, -0.5254524350166321, 37.656044006347656, 51.036529541015625, 212.60231018066406, -0.3818359375, -0.97705078125, 0.302978515625, 0, 
404, 3632608851, 0.552266538143158, 0.6885411739349365, -0.3488154411315918, 0.31505608558654785, 4.723977565765381, 5.768871307373047, -1.0801206827163696, 43.906986236572266, 56.94526672363281, 222.44898986816406, -0.40234375, -0.958251953125, 0.290771484375, 0, 
405, 3632617184, 0.5462939143180847, 0.6828973889350891, -0.35676470398902893, 0.32856205105781555, 5.128783226013184, 6.1876397132873535, -1.3167353868484497, 44.70976257324219, 62.55640411376953, 230.58016967773438, -0.421875, -0.9384765625, 0.275146484375, 0, 
406, 3632625517, 0.5405919551849365, 0.6763674020767212, -0.36490872502326965, 0.34227073192596436, 5.447585105895996, 6.3664350509643555, -1.2760850191116333, 35.62371063232422, 68.42825317382812, 237.22279357910156, -0.44091796875, -0.9208984375, 0.260498046875, 0, 
407, 3632633850, 0.535180389881134, 0.6689422726631165, -0.37328651547431946, 0.3560548722743988, 5.577925682067871, 6.529360294342041, -1.07815420627594, 25.54775619506836, 72.96229553222656, 242.92237854003906, -0.456787109375, -0.896240234375, 0.240234375, 0, 
408, 3632642183, 0.5299088954925537, 0.6607630848884583, -0.3817717730998993, 0.3699440658092499, 5.641117572784424, 6.623559474945068, -0.9551938772201538, 18.7210636138916, 77.64997863769531, 248.0312957763672, -0.4765625, -0.874267578125, 0.220947265625, 0, 
409, 3632650516, 0.5246173143386841, 0.6519538164138794, -0.3902415931224823, 0.3840107321739197, 5.7535905838012695, 6.711694717407227, -0.8577770590782166, 15.322606086730957, 82.37644958496094, 252.44131469726562, -0.494140625, -0.849365234375, 0.198974609375, 0, 
410, 3632658849, 0.5191923379898071, 0.6426281332969666, -0.39851126074790955, 0.3983428180217743, 6.060128211975098, 6.904054164886475, -1.1820359230041504, 15.27260684967041, 88.3100357055664, 256.1934814453125, -0.5029296875, -0.8212890625, 0.17578125, 0, 
411, 3632667182, 0.5135190486907959, 0.632921040058136, -0.40630611777305603, 0.4130910038948059, 6.725412368774414, 7.030735492706299, -1.8519026041030884, 19.62297821044922, 96.00712585449219, 258.2731628417969, -0.521240234375, -0.800048828125, 0.152587890625, 0, 
412, 3632675515, 0.5080080032348633, 0.6226111650466919, -0.41357871890068054, 0.4280838370323181, 7.787962436676025, 6.881650447845459, -2.181828498840332, 18.291719436645508, 106.25508880615234, 258.0484313964844, -0.531494140625, -0.77294921875, 0.128662109375, 0, 
413, 3632683848, 0.5031732320785522, 0.6113877296447754, -0.4204288125038147, 0.4430362582206726, 8.547697067260742, 6.362881183624268, -1.8163708448410034, 8.372891426086426, 117.9873275756836, 255.22682189941406, -0.53515625, -0.745849609375, 0.0986328125, 0, 
414, 3632692181, 0.4990938901901245, 0.5991752743721008, -0.4272202253341675, 0.45759889483451843, 8.379907608032227, 5.704084873199463, -1.1735646724700928, -6.715885639190674, 125.60831451416016, 253.28822326660156, -0.5419921875, -0.720703125, 0.0732421875, 0, 
415, 3632700514, 0.4954581558704376, 0.5860413908958435, -0.4343322515487671, 0.4716481566429138, 7.6645708084106445, 4.716835975646973, -0.5710155367851257, -21.735074996948242, 127.48601531982422, 254.90353393554688, -0.544921875, -0.69482421875, 0.04248046875, 0, 
416, 3632708847, 0.49186328053474426, 0.5720766186714172, -0.441944420337677, 0.4852871298789978, 7.391453266143799, 3.629972219467163, -0.2535679042339325, -33.41457748413086, 126.5029296875, 260.9617919921875, -0.5478515625, -0.665283203125, 0.00634765625, 0, 
417, 3632717180, 0.48786067962646484, 0.5575635433197021, -0.4497189521789551, 0.4988862872123718, 7.826757907867432, 2.5266458988189697, -0.22461330890655518, -35.249515533447266, 126.17752838134766, 267.9045715332031, -0.54638671875, -0.635009765625, -0.02294921875, 0, 
418, 3632725513, 0.48302143812179565, 0.5430339574813843, -0.4570876955986023, 0.5127328634262085, 8.495670318603516, 1.5050365924835205, -0.31499603390693665, -24.621524810791016, 125.83251953125, 272.415771484375, -0.54296875, -0.60498046875, -0.0556640625, 0, 
419, 3632733846, 0.4770091772079468, 0.5291864275932312, -0.4635013937950134, 0.5268872976303101, 9.186644554138184, 0.6689971089363098, -0.204401895403862, -2.6734249591827393, 122.19824981689453, 271.19586181640625, -0.5419921875, -0.571044921875, -0.084716796875, 0, 
420, 3632742179, 0.4699283540248871, 0.5164921283721924, -0.4687303900718689, 0.5410311818122864, 9.897562026977539, 0.1003645658493042, 0.04930202662944794, 21.19561004638672, 114.81828308105469, 263.0116271972656, -0.535888671875, -0.54150390625, -0.11279296875, 0, 
421, 3632750512, 0.4622974991798401, 0.5048623085021973, -0.4728550612926483, 0.5548180341720581, 10.594949722290039, 0.2282685488462448, 0.6680141091346741, 37.886898040771484, 107.8599624633789, 249.97525024414062, -0.5302734375, -0.51025390625, -0.13671875, 0, 
422, 3632758845, 0.45451417565345764, 0.4942547678947449, -0.4760594367980957, 0.5679053068161011, 11.055282592773438, 0.8297556042671204, 1.3437703847885132, 47.92584228515625, 100.15438079833984, 233.7667999267578, -0.52197265625, -0.4853515625, -0.15673828125, 0, 
423, 3632767178, 0.44663846492767334, 0.48490437865257263, -0.47831782698631287, 0.5801841616630554, 11.163551330566406, 1.4100399017333984, 1.5571194887161255, 58.49383544921875, 90.05589294433594, 214.6602783203125, -0.513427734375, -0.464111328125, -0.180908203125, 0, 
424, 3632775511, 0.43898478150367737, 0.476794958114624, -0.47975456714630127, 0.591451108455658, 11.025397300720215, 2.0216550827026367, 1.4939391613006592, 64.54894256591797, 80.00530242919922, 193.142578125, -0.502685546875, -0.436767578125, -0.199462890625, 0, 
425, 3632783844, 0.43196964263916016, 0.46968874335289, -0.4808407127857208, 0.6013374924659729, 10.743635177612305, 2.705606460571289, 0.975558876991272, 60.140811920166016, 69.02745056152344, 170.58914184570312, -0.497314453125, -0.421875, -0.2177734375, 0, 
426, 3632792177, 0.4256243407726288, 0.463628888130188, -0.48170846700668335, 0.6098107695579529, 10.358744621276855, 2.850163459777832, -0.1785682588815689, 54.51190948486328, 57.06858444213867, 148.43031311035156, -0.487548828125, -0.406005859375, -0.235107421875, 0, 
427, 3632800510, 0.420081228017807, 0.4584963619709015, -0.48243680596351624, 0.6169177293777466, 10.028404235839844, 2.446165084838867, -0.6197472214698792, 46.9251823425293, 46.61447525024414, 126.57901000976562, -0.483642578125, -0.39453125, -0.241943359375, 0, 
428, 3632808843, 0.41553279757499695, 0.4542886018753052, -0.4829353094100952, 0.6226939558982849, 9.636123657226562, 1.921769142150879, -0.48390260338783264, 39.13401794433594, 38.401023864746094, 102.96361541748047, -0.476806640625, -0.382568359375, -0.250244140625, 0, 
429, 3632817176, 0.4119405746459961, 0.4512256383895874, -0.48289963603019714, 0.6273180246353149, 8.997392654418945, 1.3443175554275513, -0.16457337141036987, 36.60572052001953, 30.708999633789062, 77.16683959960938, -0.47021484375, -0.375732421875, -0.26025390625, 0, 
430, 3632825509, 0.40933239459991455, 0.44952043890953064, -0.48247063159942627, 0.6305712461471558, 8.377607345581055, 1.0753841400146484, 0.6237934827804565, 32.500953674316406, 19.347049713134766, 49.540313720703125, -0.4677734375, -0.368408203125, -0.264892578125, 0, 
431, 3632833842, 0.4075711965560913, 0.4494573473930359, -0.4814869463443756, 0.6325060129165649, 7.740954399108887, 0.9644348621368408, 0.20150092244148254, 32.548213958740234, 5.609691143035889, 20.377546310424805, -0.468017578125, -0.366455078125, -0.265380859375, 0, 
432, 3632842175, 0.40638428926467896, 0.45138755440711975, -0.4796940088272095, 0.6332570910453796, 7.420743942260742, 0.8215751647949219, -0.5339041948318481, 39.392921447753906, -10.615861892700195, -9.37723159790039, -0.4677734375, -0.367919921875, -0.265380859375, 0, 
433, 3632850508, 0.4059518575668335, 0.4550081193447113, -0.477404922246933, 0.6326727867126465, 7.571725368499756, 0.9647927284240723, -0.6039201617240906, 39.64802551269531, -25.96453857421875, -37.70657730102539, -0.471435546875, -0.376953125, -0.264404296875, 0, 
434, 3632858841, 0.4064103960990906, 0.4599117338657379, -0.4747099280357361, 0.6308580636978149, 7.539863586425781, 1.5548832416534424, -0.8984250426292419, 36.71039581298828, -36.622093200683594, -63.223140716552734, -0.470703125, -0.383056640625, -0.25439453125, 0, 
435, 3632867174, 0.40740910172462463, 0.4660618007183075, -0.47147613763809204, 0.6281195282936096, 7.277564525604248, 2.3895633220672607, -1.2104554176330566, 38.88195037841797, -46.82632064819336, -84.67658233642578, -0.476806640625, -0.39501953125, -0.251953125, 0, 
436, 3632875507, 0.4088176488876343, 0.47324836254119873, -0.46793004870414734, 0.6244720220565796, 7.178076267242432, 3.5651841163635254, -1.276619791984558, 38.88831329345703, -57.1107177734375, -101.97073364257812, -0.482666015625, -0.407958984375, -0.23974609375, 0, 
437, 3632883840, 0.4108585715293884, 0.48090800642967224, -0.46458935737609863, 0.6197572946548462, 7.0318193435668945, 5.235808372497559, -1.178661823272705, 28.7799015045166, -65.2890853881836, -115.16027069091797, -0.489501953125, -0.424072265625, -0.224365234375, 0, 
438, 3632892173, 0.4132992923259735, 0.4890139400959015, -0.46153849363327026, 0.614044725894928, 6.655361652374268, 7.7892560958862305, -1.362172245979309, 19.834794998168945, -74.691162109375, -125.08953094482422, -0.498046875, -0.4345703125, -0.208740234375, 0, 
439, 3632900506, 0.4154484272003174, 0.49795591831207275, -0.4581175446510315, 0.6079395413398743, 7.6220574378967285, 9.533522605895996, -5.3836350440979, 27.165775299072266, -84.21894073486328, -132.69065856933594, -0.50634765625, -0.455078125, -0.194580078125, 0, 
440, 3632908839, 0.41525307297706604, 0.5082576870918274, -0.4539169371128082, 0.6026757955551147, 10.745652198791504, 6.111482620239258, -11.02985954284668, 62.82216262817383, -100.06048583984375, -122.15129852294922, -0.51416015625, -0.47314453125, -0.174560546875, 0, 
441, 3632917172, 0.41075319051742554, 0.518491268157959, -0.45136329531669617, 0.5989487171173096, 18.55144691467285, -5.322094917297363, -7.462778568267822, 88.44763946533203, -125.09911346435547, -65.77741241455078, -0.525146484375, -0.484130859375, -0.1572265625, 0, 
442, 3632925505, 0.4124854803085327, 0.5166350603103638, -0.4633278250694275, 0.5901619791984558, 31.874122619628906, -21.987285614013672, 20.38157081604004, -175.2506866455078, -104.8517074584961, 32.881038665771484, -0.53369140625, -0.483154296875, -0.137939453125, 0, 
