PacketCounter,SampleTimeFine,Quat_W,Quat_X,Quat_Y,Quat_Z,Acc_X,Acc_Y,Acc_Z,Gyr_X,Gyr_Y,Gyr_Z,Mag_X,Mag_Y,Mag_Z,Status,
0, 1021604962, 0.05176740139722824, -0.6767147779464722, -0.06677193194627762, -0.7313932180404663, 0, 0, 0, 0, 0, 0, -0.55908203125, -0.7646484375, 0.2021484375, 0, 
1, 1021613295, 0.05176740884780884, -0.6767259836196899, -0.06677274405956268, -0.7313827276229858, 9.767035484313965, 0.24189484119415283, 0.7758188247680664, 0.6913154125213623, -0.9452933669090271, -0.009374811314046383, -0.557861328125, -0.766357421875, 0.205078125, 0, 
2, 1021621628, 0.051796406507492065, -0.676723837852478, -0.06678948551416397, -0.7313811182975769, 9.790396690368652, 0.23484213650226593, 0.7522144317626953, 1.1216857433319092, -0.7078750133514404, 0.09829463064670563, -0.559326171875, -0.76318359375, 0.2021484375, 0, 
3, 1021629961, 0.051841236650943756, -0.676719069480896, -0.06683345139026642, -0.7313783168792725, 9.761310577392578, 0.19340009987354279, 0.7528553009033203, 1.5453579425811768, -0.7036101818084717, 0.02013278752565384, -0.55908203125, -0.76513671875, 0.205078125, 0, 
4, 1021638294, 0.05188271403312683, -0.6767067909240723, -0.06687992811203003, -0.731382429599762, 9.776627540588379, 0.19239717721939087, 0.7465493679046631, 1.5376352071762085, -0.5631545186042786, -0.06672508269548416, -0.556640625, -0.765625, 0.206298828125, 0, 
5, 1021646627, 0.051924511790275574, -0.6766919493675232, -0.06692825257778168, -0.7313888072967529, 9.776083946228027, 0.2122180014848709, 0.7053133845329285, 1.5609058141708374, -0.5218772292137146, -0.06709648668766022, -0.559326171875, -0.763916015625, 0.202880859375, 0, 
6, 1021654960, 0.051958002150058746, -0.6766913533210754, -0.06696654111146927, -0.7313835620880127, 9.76638412475586, 0.20782624185085297, 0.7012504935264587, 1.3796724081039429, -0.7707579731941223, -0.05232987925410271, -0.55859375, -0.765625, 0.204833984375, 0, 
7, 1021663293, 0.05196656659245491, -0.6766893863677979, -0.06700079143047333, -0.7313815951347351, 9.78526782989502, 0.22339759767055511, 0.7247546315193176, 1.1079308986663818, -0.7497542500495911, -0.25235146284103394, -0.55615234375, -0.76611328125, 0.20361328125, 0, 
8, 1021671626, 0.05196131020784378, -0.6766830086708069, -0.06700190901756287, -0.7313877940177917, 9.773780822753906, 0.20376360416412354, 0.7334527373313904, 0.638012170791626, -0.6144342422485352, -0.11060225963592529, -0.553466796875, -0.764404296875, 0.205322265625, 0, 
9, 1021679959, 0.05193141847848892, -0.6766876578330994, -0.0669870600104332, -0.7313869595527649, 9.753752708435059, 0.23640860617160797, 0.7237246632575989, 0.2515958249568939, -0.8064386248588562, -0.17640526592731476, -0.557861328125, -0.768310546875, 0.2021484375, 0, 
10, 1021688292, 0.05191310495138168, -0.6766881942749023, -0.0669684112071991, -0.7313895225524902, 9.75410270690918, 0.26470527052879333, 0.7074877023696899, 0.31870511174201965, -0.7154055237770081, -0.04989652708172798, -0.55859375, -0.7646484375, 0.20166015625, 0, 
11, 1021696625, 0.05189896374940872, -0.6766974329948425, -0.06696084886789322, -0.7313826680183411, 9.72278118133545, 0.2940390706062317, 0.673289954662323, 0.47272348403930664, -0.8994694352149963, -0.07668901979923248, -0.55615234375, -0.76416015625, 0.204833984375, 0, 
12, 1021704958, 0.05191223323345184, -0.6767190098762512, -0.06698594987392426, -0.7313594222068787, 9.73705768585205, 0.2616080641746521, 0.6430906653404236, 1.0612103939056396, -1.1681370735168457, -0.10191904008388519, -0.55859375, -0.765380859375, 0.202880859375, 0, 
13, 1021713291, 0.05193495750427246, -0.6767464280128479, -0.06701862066984177, -0.7313293814659119, 9.761441230773926, 0.2486235648393631, 0.6575131416320801, 1.2285226583480835, -1.2934420108795166, -0.046950891613960266, -0.558349609375, -0.764892578125, 0.203857421875, 0, 
14, 1021721624, 0.05196677893400192, -0.676755964756012, -0.06705441325902939, -0.7313151359558105, 9.771334648132324, 0.31913840770721436, 0.6927456855773926, 1.3459128141403198, -0.9537715911865234, -0.031966567039489746, -0.55859375, -0.763671875, 0.2041015625, 0, 
15, 1021729957, 0.051963843405246735, -0.6767698526382446, -0.06701532006263733, -0.7313060760498047, 9.743637084960938, 0.3265485465526581, 0.7024949789047241, 0.25757673382759094, -0.9350091814994812, 0.33439382910728455, -0.560302734375, -0.76904296875, 0.201904296875, 0, 
16, 1021738290, 0.05190254747867584, -0.6767878532409668, -0.06691884994506836, -0.7313024997711182, 9.741621017456055, 0.343995064496994, 0.7356196045875549, -0.873317301273346, -0.9299503564834595, 0.2636857330799103, -0.555908203125, -0.768310546875, 0.20556640625, 0, 
17, 1021746623, 0.051826320588588715, -0.6767945885658264, -0.0668163076043129, -0.7313111424446106, 9.73835277557373, 0.29646387696266174, 0.8119692802429199, -1.0734797716140747, -0.7183383703231812, 0.16861851513385773, -0.5595703125, -0.7685546875, 0.203125, 0, 
18, 1021754956, 0.05168291926383972, -0.6768099665641785, -0.06665544956922531, -0.7313218116760254, 9.76085090637207, 0.20158419013023376, 0.8290050625801086, -2.2982375621795654, -0.8035441637039185, 0.023321762681007385, -0.556884765625, -0.767822265625, 0.203369140625, 0, 
19, 1021763289, 0.051592499017715454, -0.676815927028656, -0.06653612852096558, -0.7313334941864014, 9.73377513885498, 0.10785742104053497, 0.8809085488319397, -1.3766369819641113, -0.6834133863449097, 0.17964543402194977, -0.5576171875, -0.766357421875, 0.203369140625, 0, 
20, 1021771622, 0.05154365301132202, -0.6768297553062439, -0.06648572534322739, -0.7313287258148193, 9.743293762207031, 0.052273157984018326, 0.9048416614532471, -0.28645679354667664, -0.9218178391456604, -0.043454550206661224, -0.557861328125, -0.76611328125, 0.204345703125, 0, 
21, 1021779955, 0.05148123577237129, -0.6768438220024109, -0.06644989550113678, -0.7313234806060791, 9.779122352600098, 0.09378111362457275, 0.766663134098053, -0.2652738094329834, -0.9560384750366211, -0.29588282108306885, -0.5595703125, -0.76708984375, 0.205078125, 0, 
22, 1021788288, 0.05143316090106964, -0.6768465638160706, -0.06643037497997284, -0.7313261032104492, 9.757185935974121, 0.21191012859344482, 0.7640380859375, 0.031851302832365036, -0.7640213966369629, -0.3383128046989441, -0.55615234375, -0.764892578125, 0.20263671875, 0, 
23, 1021796621, 0.051398880779743195, -0.6768549680709839, -0.06642255932092667, -0.731321394443512, 9.732108116149902, 0.34357964992523193, 0.7992801070213318, 0.2812058925628662, -0.8888395428657532, -0.28073203563690186, -0.558349609375, -0.76318359375, 0.205322265625, 0, 
24, 1021804954, 0.05134876072406769, -0.6768695712089539, -0.06638355553150177, -0.7313148379325867, 9.705770492553711, 0.49310997128486633, 0.6521674990653992, -0.18936605751514435, -0.9557952284812927, -0.16003775596618652, -0.55810546875, -0.764404296875, 0.205078125, 0, 
25, 1021813287, 0.05130673199892044, -0.676884114742279, -0.06634090095758438, -0.7313082218170166, 9.77212142944336, 0.5063783526420593, 0.5576571226119995, -0.14416973292827606, -0.9515560269355774, -0.0275737252086401, -0.55859375, -0.76611328125, 0.204833984375, 0, 
26, 1021821620, 0.051228106021881104, -0.6769052147865295, -0.06627664715051651, -0.7312999367713928, 9.85180377960205, 0.34784990549087524, 0.6115680932998657, -0.7059411406517029, -1.045253038406372, -0.204183891415596, -0.5576171875, -0.763427734375, 0.201904296875, 0, 
27, 1021829953, 0.051092829555273056, -0.6769136190414429, -0.06614362448453903, -0.7313136458396912, 9.860225677490234, 0.2446041852235794, 0.6234080791473389, -1.9353348016738892, -0.7210918664932251, -0.14343972504138947, -0.559326171875, -0.76513671875, 0.200927734375, 0, 
28, 1021838286, 0.05104793608188629, -0.6768766641616821, -0.06604717671871185, -0.7313597798347473, 9.800246238708496, 0.34217768907546997, 0.551949143409729, -0.7222702503204346, 0.09752620756626129, 0.3433972895145416, -0.558349609375, -0.767333984375, 0.2041015625, 0, 
29, 1021846619, 0.05108494684100151, -0.676872968673706, -0.06601821631193161, -0.7313632965087891, 9.726243019104004, 0.2563721835613251, 0.6243072748184204, 0.7317602038383484, -0.611309289932251, 0.6165474057197571, -0.558349609375, -0.767822265625, 0.20263671875, 0, 
30, 1021854952, 0.051080696284770966, -0.676865816116333, -0.065980926156044, -0.7313735485076904, 9.785066604614258, 0.31317251920700073, 0.568572461605072, 0.25851163268089294, -0.5388978123664856, 0.2539523243904114, -0.5556640625, -0.763671875, 0.205322265625, 0, 
31, 1021863285, 0.05108330026268959, -0.676841676235199, -0.06593679636716843, -0.7313997149467468, 9.766878128051758, 0.35754936933517456, 0.706707775592804, 0.2547976076602936, -0.2140069454908371, 0.37859123945236206, -0.55712890625, -0.762939453125, 0.204345703125, 0, 
32, 1021871618, 0.05110835283994675, -0.676813006401062, -0.06589016318321228, -0.7314287424087524, 9.754783630371094, 0.2083050012588501, 0.743345320224762, 0.4374014735221863, -0.11769741028547287, 0.6030487418174744, -0.5556640625, -0.7666015625, 0.20166015625, 0, 
33, 1021879951, 0.05108118802309036, -0.6768035888671875, -0.06581518054008484, -0.7314460873603821, 9.787599563598633, 0.18024449050426483, 0.7859829664230347, -0.3348805010318756, -0.4502725899219513, 0.38432878255844116, -0.557373046875, -0.765380859375, 0.201904296875, 0, 
34, 1021888284, 0.05109453201293945, -0.6767847537994385, -0.06576512008905411, -0.7314669489860535, 9.758981704711914, 0.20914912223815918, 0.7632154822349548, 0.28932562470436096, -0.29776546359062195, 0.5313032269477844, -0.555908203125, -0.7666015625, 0.2021484375, 0, 
35, 1021896617, 0.051131196320056915, -0.6767718195915222, -0.0657183825969696, -0.731480598449707, 9.746600151062012, 0.13274961709976196, 0.8292147517204285, 0.5484904646873474, -0.4123379588127136, 0.7638292908668518, -0.556396484375, -0.763671875, 0.20068359375, 0, 
36, 1021904950, 0.05111986771225929, -0.6767645478248596, -0.06565619260072708, -0.7314937114715576, 9.695535659790039, 0.17734043300151825, 0.8158389329910278, -0.06078258156776428, -0.5013474822044373, 0.4117872416973114, -0.5576171875, -0.766357421875, 0.1982421875, 0, 
37, 1021913283, 0.05111357569694519, -0.6767650842666626, -0.06564249098300934, -0.7314947843551636, 9.74522590637207, 0.20697467029094696, 0.7929283976554871, 0.4832252562046051, -0.7256768941879272, 0.044991400092840195, -0.558837890625, -0.765625, 0.20361328125, 0, 
38, 1021921616, 0.051161251962184906, -0.6767602562904358, -0.06565535068511963, -0.7314948439598083, 9.70685863494873, 0.17769122123718262, 0.8578404188156128, 1.2525230646133423, -0.6473228931427002, 0.3190893232822418, -0.558349609375, -0.763671875, 0.20263671875, 0, 
39, 1021929949, 0.05117848515510559, -0.6767698526382446, -0.0656404197216034, -0.7314861416816711, 9.75094985961914, 0.2813718318939209, 0.8213108777999878, 0.6918789744377136, -0.8846389055252075, 0.3078703284263611, -0.555908203125, -0.76611328125, 0.201904296875, 0, 
40, 1021938282, 0.05124960094690323, -0.6767568588256836, -0.06566563248634338, -0.7314909100532532, 9.726361274719238, 0.39000222086906433, 0.7502204179763794, 1.5958436727523804, -0.5087370872497559, 0.42837244272232056, -0.556396484375, -0.769775390625, 0.20166015625, 0, 
41, 1021946615, 0.05134250596165657, -0.6767768263816833, -0.06572608649730682, -0.7314605116844177, 9.721339225769043, 0.23365621268749237, 0.7133541107177734, 2.167130708694458, -1.1783572435379028, 0.39270463585853577, -0.556396484375, -0.76416015625, 0.201904296875, 0, 
42, 1021954948, 0.051334574818611145, -0.6767877340316772, -0.0657293051481247, -0.731450617313385, 9.836710929870605, 0.21586564183235168, 0.6817517876625061, 0.6361680030822754, -0.9407852292060852, -0.12932628393173218, -0.55712890625, -0.76416015625, 0.202392578125, 0, 
43, 1021963281, 0.05136861652135849, -0.6767712235450745, -0.06574391573667526, -0.7314621806144714, 9.738802909851074, 0.13627596199512482, 0.8658301830291748, 1.1447768211364746, -0.44119229912757874, 0.163034588098526, -0.558349609375, -0.76708984375, 0.20166015625, 0, 
44, 1021971614, 0.05138459801673889, -0.6767925024032593, -0.06575287133455276, -0.731440544128418, 9.733675003051758, -0.00856231153011322, 0.7452689409255981, 0.9225990176200867, -1.1374640464782715, 0.07604865729808807, -0.559814453125, -0.765869140625, 0.203369140625, 0, 
45, 1021979947, 0.05135458707809448, -0.6768196821212769, -0.06578033417463303, -0.7314150929450989, 9.80643367767334, -0.027230873703956604, 0.7303696274757385, 0.6816076636314392, -1.2916234731674194, -0.5327504873275757, -0.558349609375, -0.765380859375, 0.20068359375, 0, 
46, 1021988280, 0.051292866468429565, -0.6768373250961304, -0.06578726321458817, -0.731402575969696, 9.799972534179688, 0.0058008721098303795, 0.8626255393028259, 0.17406153678894043, -1.085095763206482, -0.6976805329322815, -0.55908203125, -0.766845703125, 0.20263671875, 0, 
47, 1021996613, 0.05121138319373131, -0.6768312454223633, -0.06576082110404968, -0.7314162850379944, 9.739468574523926, 0.14602528512477875, 0.7875494956970215, -0.35229820013046265, -0.6005001664161682, -0.6077232956886292, -0.556884765625, -0.76806640625, 0.202392578125, 0, 
48, 1022004946, 0.051126860082149506, -0.6768326163291931, -0.06573816388845444, -0.7314229607582092, 9.70830249786377, 0.2784103453159332, 0.7245259881019592, -0.3422061800956726, -0.7426847219467163, -0.6798017621040344, -0.56005859375, -0.765380859375, 0.204345703125, 0, 
49, 1022013279, 0.05099103972315788, -0.6768435835838318, -0.06568456441164017, -0.7314270734786987, 9.761475563049316, 0.31764233112335205, 0.6302059292793274, -1.1349157094955444, -0.8924000263214111, -0.8801307678222656, -0.55859375, -0.76611328125, 0.2001953125, 0, 
50, 1022021612, 0.0508405938744545, -0.6768396496772766, -0.06561516225337982, -0.7314475178718567, 9.807441711425781, 0.37119683623313904, 0.5827683806419373, -1.4313234090805054, -0.587129533290863, -0.9220355153083801, -0.55810546875, -0.764892578125, 0.20458984375, 0, 
51, 1022029945, 0.05075451731681824, -0.6768168807029724, -0.06558072566986084, -0.7314776182174683, 9.789874076843262, 0.32363754510879517, 0.6968657374382019, -0.47870442271232605, -0.2785547971725464, -0.6067755818367004, -0.55810546875, -0.7666015625, 0.203369140625, 0, 
52, 1022038278, 0.050683967769145966, -0.6768017411231995, -0.06552048027515411, -0.7315018177032471, 9.738174438476562, 0.27823159098625183, 0.7568495869636536, -0.5935330390930176, -0.3749155104160309, -0.21590237319469452, -0.55615234375, -0.765380859375, 0.201171875, 0, 
53, 1022046611, 0.05058588087558746, -0.6767930388450623, -0.06543879956007004, -0.7315239906311035, 9.754918098449707, 0.33202749490737915, 0.7051271796226501, -1.0689588785171509, -0.4715324640274048, -0.2685140371322632, -0.55712890625, -0.764892578125, 0.203125, 0, 
54, 1022054944, 0.050508055835962296, -0.6767571568489075, -0.06537426263093948, -0.7315683364868164, 9.76835823059082, 0.3997652530670166, 0.6526182293891907, -0.7119988799095154, 0.016892587766051292, -0.2830629050731659, -0.559814453125, -0.765380859375, 0.200439453125, 0, 
55, 1022063277, 0.050436630845069885, -0.6767336130142212, -0.06531254947185516, -0.7316005825996399, 9.761098861694336, 0.39635345339775085, 0.7291680574417114, -0.6171237230300903, -0.219334676861763, -0.20570792257785797, -0.558837890625, -0.766845703125, 0.206787109375, 0, 
56, 1022071610, 0.05037000775337219, -0.6767067909240723, -0.06522959470748901, -0.7316373586654663, 9.737401008605957, 0.31668490171432495, 0.7695959210395813, -0.7925300598144531, -0.12025883793830872, 0.013716422021389008, -0.556640625, -0.767333984375, 0.20166015625, 0, 
57, 1022079943, 0.050305843353271484, -0.6766790747642517, -0.06515372544527054, -0.7316741943359375, 9.712366104125977, 0.3129440248012543, 0.7726000547409058, -0.6928649544715881, -0.1176205575466156, -0.008401468396186829, -0.554931640625, -0.76318359375, 0.201416015625, 0, 
58, 1022088276, 0.0502205565571785, -0.6766627430915833, -0.0650511384010315, -0.7317043542861938, 9.743602752685547, 0.2791540026664734, 0.7795954942703247, -1.1624507904052734, -0.29097768664360046, 0.024269485846161842, -0.557861328125, -0.766357421875, 0.199462890625, 0, 
59, 1022096609, 0.05014022812247276, -0.6766247153282166, -0.06494387984275818, -0.73175448179245, 9.730755805969238, 0.33109796047210693, 0.7231237888336182, -1.1659088134765625, 0.11686493456363678, 0.10200869292020798, -0.555419921875, -0.766357421875, 0.197021484375, 0, 
60, 1022104942, 0.050110578536987305, -0.6766030192375183, -0.06486863642930984, -0.7317832708358765, 9.722609519958496, 0.32064783573150635, 0.712773323059082, -0.36815345287323, -0.21925786137580872, 0.3259027302265167, -0.556396484375, -0.7666015625, 0.2021484375, 0, 
61, 1022113275, 0.05010455101728439, -0.6765875220298767, -0.06481779366731644, -0.7318024039268494, 9.7808256149292, 0.2245490849018097, 0.7241182327270508, 0.1068497821688652, -0.3708685040473938, 0.3665012717247009, -0.555908203125, -0.765625, 0.198974609375, 0, 
62, 1022121608, 0.050077326595783234, -0.6765733361244202, -0.06475305557250977, -0.7318231463432312, 9.766026496887207, 0.25051403045654297, 0.8148876428604126, -0.23729027807712555, -0.37404465675354004, 0.26481276750564575, -0.55712890625, -0.767333984375, 0.200927734375, 0, 
63, 1022129941, 0.050048865377902985, -0.6765668392181396, -0.06467201560735703, -0.7318382859230042, 9.738579750061035, 0.3012350797653198, 0.7102054357528687, -0.40998145937919617, -0.49712106585502625, 0.4323810636997223, -0.55615234375, -0.765625, 0.20068359375, 0, 
64, 1022138274, 0.05003784969449043, -0.6765705347061157, -0.06458094716072083, -0.7318437099456787, 9.717945098876953, 0.24399062991142273, 0.7583944797515869, -0.3448828458786011, -0.6633446216583252, 0.7006261944770813, -0.55712890625, -0.765625, 0.200927734375, 0, 
65, 1022146607, 0.05001862347126007, -0.6765893697738647, -0.06449069082736969, -0.7318354845046997, 9.706028938293457, 0.2716149091720581, 0.8204025030136108, -0.4127093553543091, -0.9568581581115723, 0.6479120850563049, -0.55908203125, -0.7646484375, 0.2021484375, 0, 
66, 1022154940, 0.049991805106401443, -0.6766095161437988, -0.06441402435302734, -0.7318254709243774, 9.743566513061523, 0.21246089041233063, 0.7738445997238159, -0.3443962037563324, -0.99735426902771, 0.43244510889053345, -0.55517578125, -0.763916015625, 0.197998046875, 0, 
67, 1022163273, 0.04993288591504097, -0.676612377166748, -0.06432213634252548, -0.7318349480628967, 9.76148509979248, 0.11252852529287338, 0.7920486330986023, -0.802583634853363, -0.6629092693328857, 0.23854537308216095, -0.558837890625, -0.76806640625, 0.19970703125, 0, 
68, 1022171606, 0.04986361414194107, -0.6766272187232971, -0.06424060463905334, -0.7318331599235535, 9.755433082580566, 0.07521214336156845, 0.8370471596717834, -0.797050952911377, -0.9020950198173523, 0.04062417894601822, -0.554443359375, -0.761962890625, 0.19873046875, 0, 
69, 1022179939, 0.049812257289886475, -0.6766462922096252, -0.06419087201356888, -0.7318233847618103, 9.766112327575684, 0.011566147208213806, 0.8328412771224976, -0.30205586552619934, -1.029115915298462, -0.04983249306678772, -0.55712890625, -0.76416015625, 0.199462890625, 0, 
70, 1022188272, 0.04978165775537491, -0.6766788959503174, -0.0641777291893959, -0.7317965030670166, 9.765583038330078, 0.01058620773255825, 0.8588775992393494, 0.2666313648223877, -1.3268685340881348, -0.17430487275123596, -0.556640625, -0.764404296875, 0.197265625, 0, 
71, 1022196605, 0.04974956437945366, -0.6767120957374573, -0.064170703291893, -0.7317684888839722, 9.779903411865234, 0.13306434452533722, 0.7894020676612854, 0.31412017345428467, -1.3536098003387451, -0.2284277230501175, -0.554931640625, -0.764404296875, 0.198974609375, 0, 
72, 1022204938, 0.04969596862792969, -0.6767346262931824, -0.06415653228759766, -0.7317525148391724, 9.793915748596191, 0.2908918261528015, 0.70201575756073, 0.03661555424332619, -1.1439062356948853, -0.4139772951602936, -0.5576171875, -0.767822265625, 0.197998046875, 0, 
73, 1022213271, 0.04963260889053345, -0.6767743825912476, -0.06412599235773087, -0.7317227721214294, 9.762321472167969, 0.3681568205356598, 0.6701498627662659, -0.21738800406455994, -1.445744276046753, -0.3159259855747223, -0.55517578125, -0.7646484375, 0.199951171875, 0, 
74, 1022221604, 0.04957130551338196, -0.676829993724823, -0.06408682465553284, -0.7316789627075195, 9.766507148742676, 0.32395994663238525, 0.7327349185943604, -0.28554749488830566, -1.7261688709259033, -0.210548996925354, -0.555908203125, -0.76806640625, 0.198486328125, 0, 
75, 1022229937, 0.04944410175085068, -0.6768888831138611, -0.06398133188486099, -0.7316423654556274, 9.752545356750488, 0.2812061309814453, 0.7726830244064331, -1.5738667249679565, -1.7073167562484741, -0.2406969666481018, -0.55517578125, -0.76611328125, 0.1962890625, 0, 
76, 1022238270, 0.04931371659040451, -0.6769486665725708, -0.06387151777744293, -0.7316054105758667, 9.740911483764648, 0.2597721219062805, 0.7812533974647522, -1.6466110944747925, -1.7152574062347412, -0.24802266061306, -0.55712890625, -0.765625, 0.200927734375, 0, 
77, 1022246603, 0.0492282472550869, -0.6770026683807373, -0.0638033077120781, -0.7315671443939209, 9.749738693237305, 0.13694870471954346, 0.7965481877326965, -0.804824948310852, -1.6639008522033691, -0.17071889340877533, -0.55517578125, -0.76904296875, 0.199462890625, 0, 
78, 1022254936, 0.04917029291391373, -0.6770480871200562, -0.0637621060013771, -0.7315325140953064, 9.772550582885742, 0.06278765201568604, 0.8270045518875122, -0.27653124928474426, -1.532704472541809, -0.17271678149700165, -0.558837890625, -0.7646484375, 0.197998046875, 0, 
79, 1022263269, 0.049165017902851105, -0.677093505859375, -0.06379111111164093, -0.7314883470535278, 9.79761791229248, 0.0904451385140419, 0.8012691736221313, 0.9308598041534424, -1.6264784336090088, -0.27320143580436707, -0.556884765625, -0.76708984375, 0.19970703125, 0, 
80, 1022271602, 0.04921212047338486, -0.6771206259727478, -0.06387797743082047, -0.731452465057373, 9.816981315612793, 0.11671537160873413, 0.7746370434761047, 2.0042755603790283, -1.3551723957061768, -0.32279059290885925, -0.55908203125, -0.76611328125, 0.19970703125, 0, 
81, 1022279935, 0.049291130155324936, -0.677146315574646, -0.06401798874139786, -0.7314110994338989, 9.809773445129395, 0.19948914647102356, 0.6375631093978882, 2.843167543411255, -1.4040699005126953, -0.47788479924201965, -0.558349609375, -0.76708984375, 0.199462890625, 0, 
82, 1022288268, 0.04940022900700569, -0.6771548986434937, -0.06419055163860321, -0.7313806414604187, 9.770800590515137, 0.2702089250087738, 0.5905669331550598, 3.4563207626342773, -1.1201616525650024, -0.5181503295898438, -0.560791015625, -0.76806640625, 0.2021484375, 0, 
83, 1022296601, 0.0495266318321228, -0.6771513819694519, -0.064348965883255, -0.731361448764801, 9.739672660827637, 0.3006218373775482, 0.640677809715271, 3.468897819519043, -0.8751360177993774, -0.21208588778972626, -0.556396484375, -0.765380859375, 0.2041015625, 0, 
84, 1022304934, 0.04960272088646889, -0.6771516799926758, -0.06443332880735397, -0.7313487529754639, 9.712737083435059, 0.33188170194625854, 0.7101362347602844, 2.2460997104644775, -0.8406592607498169, -0.04851336404681206, -0.55859375, -0.767333984375, 0.199951171875, 0, 
85, 1022313267, 0.049636371433734894, -0.6771542429924011, -0.06446198374032974, -0.7313416004180908, 9.70070743560791, 0.3913034200668335, 0.7220437526702881, 1.2857961654663086, -0.8176575303077698, 0.05925852805376053, -0.557373046875, -0.76806640625, 0.199951171875, 0, 
86, 1022321600, 0.049582913517951965, -0.6771801114082336, -0.06442117691040039, -0.7313247919082642, 9.723711013793945, 0.3440803587436676, 0.7576720714569092, -0.2367011457681656, -1.1674199104309082, -0.15983280539512634, -0.55810546875, -0.76611328125, 0.200439453125, 0, 
87, 1022329933, 0.04950455576181412, -0.67720627784729, -0.06434828042984009, -0.7313122749328613, 9.750877380371094, 0.31512564420700073, 0.7778645157814026, -0.7897380590438843, -1.1341983079910278, -0.09733408689498901, -0.558349609375, -0.765625, 0.198974609375, 0, 
88, 1022338266, 0.04943007230758667, -0.6772302985191345, -0.0642695352435112, -0.7313018441200256, 9.72442626953125, 0.23673048615455627, 0.8117547035217285, -0.8130214214324951, -1.0820732116699219, -0.023846853524446487, -0.559326171875, -0.767333984375, 0.19921875, 0, 
89, 1022346599, 0.04936816915869713, -0.6772497892379761, -0.0642027035355568, -0.731293797492981, 9.740962028503418, 0.2324177324771881, 0.8060466051101685, -0.573861300945282, -1.0141187906265259, 0.0037012568209320307, -0.5576171875, -0.762939453125, 0.201416015625, 0, 
90, 1022354932, 0.04937916249036789, -0.6772701740264893, -0.0642278715968132, -0.7312719821929932, 9.748459815979004, 0.2549988627433777, 0.6679539084434509, 1.0399764776229858, -1.1466213464736938, -0.12812240421772003, -0.56005859375, -0.76513671875, 0.201416015625, 0, 
91, 1022363265, 0.04940389096736908, -0.6772984266281128, -0.06427842378616333, -0.7312397360801697, 9.796277046203613, 0.21668778359889984, 0.6437150239944458, 1.4282112121582031, -1.3320682048797607, -0.19395096600055695, -0.55810546875, -0.768798828125, 0.20166015625, 0, 
92, 1022371598, 0.049461785703897476, -0.6772963404655457, -0.06434006989002228, -0.7312323451042175, 9.812713623046875, 0.21751654148101807, 0.6481990218162537, 1.8460307121276855, -0.768887996673584, -0.026049677282571793, -0.5595703125, -0.761962890625, 0.199951171875, 0, 
93, 1022379931, 0.0495578795671463, -0.6772965788841248, -0.06440810859203339, -0.7312197685241699, 9.765978813171387, 0.21275535225868225, 0.7100797891616821, 2.270996332168579, -0.8147888779640198, 0.32218867540359497, -0.5556640625, -0.765380859375, 0.201171875, 0, 
94, 1022388264, 0.04962920397520065, -0.6773170232772827, -0.06445520371198654, -0.7311918139457703, 9.750941276550293, 0.24491916596889496, 0.7979824542999268, 1.8298553228378296, -1.1649994850158691, 0.27978426218032837, -0.555908203125, -0.763916015625, 0.200927734375, 0, 
95, 1022396597, 0.049656085669994354, -0.677334725856781, -0.06449093669652939, -0.7311704754829407, 9.776755332946777, 0.28358516097068787, 0.7388861775398254, 1.2974377870559692, -1.1117475032806396, -0.05057530477643013, -0.5576171875, -0.767333984375, 0.20361328125, 0, 
96, 1022404930, 0.04971092939376831, -0.6773453950881958, -0.06456204503774643, -0.73115074634552, 9.772459983825684, 0.1899275779724121, 0.7680529356002808, 1.9136009216308594, -1.0235447883605957, -0.12632940709590912, -0.556884765625, -0.765625, 0.199462890625, 0, 
97, 1022413263, 0.04974433034658432, -0.677357017993927, -0.06459854543209076, -0.7311344742774963, 9.756913185119629, 0.10424531996250153, 0.7909905910491943, 1.3650593757629395, -0.9974057078361511, -0.001319133210927248, -0.55810546875, -0.76513671875, 0.202880859375, 0, 
98, 1022421596, 0.04978607967495918, -0.6773794889450073, -0.0646548643708229, -0.731105625629425, 9.726948738098145, 0.1242048442363739, 0.76343834400177, 1.6442415714263916, -1.2268706560134888, -0.10145797580480576, -0.556396484375, -0.763916015625, 0.20361328125, 0, 
99, 1022429929, 0.04984382539987564, -0.6774085164070129, -0.06475771218538284, -0.7310656905174255, 9.737163543701172, 0.1577436774969101, 0.725071907043457, 2.267000913619995, -1.4173381328582764, -0.34279531240463257, -0.5546875, -0.764404296875, 0.20068359375, 0, 
100, 1022438262, 0.04987400025129318, -0.6774213910102844, -0.06482891738414764, -0.7310454249382019, 9.780102729797363, 0.30825796723365784, 0.6253137588500977, 1.6887593269348145, -1.070675015449524, -0.3710990250110626, -0.55615234375, -0.766845703125, 0.201416015625, 0, 
101, 1022446595, 0.04991990327835083, -0.6774301528930664, -0.06490172445774078, -0.7310276627540588, 9.761112213134766, 0.33944839239120483, 0.6902056932449341, 1.8496038913726807, -0.9980714321136475, -0.21586395800113678, -0.555419921875, -0.7666015625, 0.197509765625, 0, 
102, 1022454928, 0.04992477968335152, -0.6774507164955139, -0.0649295225739479, -0.731005847454071, 9.750505447387695, 0.30346614122390747, 0.7736084461212158, 1.012171983718872, -1.1552660465240479, -0.2127390205860138, -0.551513671875, -0.764892578125, 0.2001953125, 0, 
103, 1022463261, 0.04988791421055794, -0.6774850487709045, -0.06493610888719559, -0.7309759855270386, 9.735017776489258, 0.27285218238830566, 0.7427367568016052, 0.40576788783073425, -1.3956941366195679, -0.40055543184280396, -0.558837890625, -0.764404296875, 0.20263671875, 0, 
104, 1022471594, 0.0498252771794796, -0.6775293946266174, -0.06491174548864365, -0.7309412360191345, 9.754240036010742, 0.22282527387142181, 0.704097330570221, -0.1523534506559372, -1.5404911041259766, -0.3750179708003998, -0.558837890625, -0.7607421875, 0.203857421875, 0, 
105, 1022479927, 0.04975874349474907, -0.6775693297386169, -0.06487464904785156, -0.7309120893478394, 9.797056198120117, 0.17146079242229462, 0.7863120436668396, -0.3141585886478424, -1.4418764114379883, -0.2877759039402008, -0.5576171875, -0.765625, 0.20263671875, 0, 
106, 1022488260, 0.04969192296266556, -0.6775915026664734, -0.06485500186681747, -0.7308977246284485, 9.786526679992676, 0.22246772050857544, 0.7624358534812927, -0.14036601781845093, -1.1339678764343262, -0.49420106410980225, -0.556884765625, -0.76611328125, 0.202392578125, 0, 
107, 1022496593, 0.049677059054374695, -0.677606999874115, -0.06489096581935883, -0.7308811545372009, 9.752816200256348, 0.16601718962192535, 0.72147136926651, 0.9071665406227112, -1.081919550895691, -0.4783201813697815, -0.55810546875, -0.764892578125, 0.202392578125, 0, 
108, 1022504926, 0.04968181997537613, -0.6776396036148071, -0.06494560092687607, -0.7308458089828491, 9.800663948059082, 0.14187389612197876, 0.6295490264892578, 1.2831578254699707, -1.422460913658142, -0.445354700088501, -0.55615234375, -0.76611328125, 0.20068359375, 0, 
109, 1022513259, 0.049702130258083344, -0.6776509881019592, -0.06502683460712433, -0.730826735496521, 9.7924165725708, 0.19867631793022156, 0.6336473226547241, 1.6938053369522095, -1.0635286569595337, -0.5485032200813293, -0.55810546875, -0.766357421875, 0.200927734375, 0, 
110, 1022521592, 0.04974423348903656, -0.6776651740074158, -0.06512738764286041, -0.7308017015457153, 9.759549140930176, 0.19564786553382874, 0.6651661396026611, 2.0946552753448486, -1.1375921964645386, -0.5216467380523682, -0.560791015625, -0.7666015625, 0.205810546875, 0, 
111, 1022529925, 0.04977543652057648, -0.6776781678199768, -0.06520693004131317, -0.730780303478241, 9.777873039245605, 0.19799673557281494, 0.6706992983818054, 1.7810344696044922, -1.0916147232055664, -0.41990694403648376, -0.556396484375, -0.76416015625, 0.201904296875, 0, 
112, 1022538258, 0.04979773983359337, -0.6776828169822693, -0.06527072936296463, -0.7307689189910889, 9.760502815246582, 0.29670771956443787, 0.6857308149337769, 1.5373151302337646, -0.9084727764129639, -0.39488184452056885, -0.558837890625, -0.76708984375, 0.2021484375, 0, 
113, 1022546591, 0.04981044679880142, -0.677684485912323, -0.06532561779022217, -0.7307615280151367, 9.746206283569336, 0.35390836000442505, 0.6748707294464111, 1.3559023141860962, -0.8472932577133179, -0.39622658491134644, -0.55859375, -0.766357421875, 0.20556640625, 0, 
114, 1022554924, 0.04980744421482086, -0.6776780486106873, -0.06537109613418579, -0.7307636141777039, 9.756027221679688, 0.35124778747558594, 0.6846059560775757, 1.1079820394515991, -0.6798273324966431, -0.498119980096817, -0.558349609375, -0.7666015625, 0.20166015625, 0, 
115, 1022563257, 0.049809377640485764, -0.6776619553565979, -0.0654117539525032, -0.730774998664856, 9.772643089294434, 0.35034623742103577, 0.6349220871925354, 1.1078797578811646, -0.4919470548629761, -0.4004017114639282, -0.557861328125, -0.769775390625, 0.2001953125, 0, 
116, 1022571590, 0.0498427078127861, -0.6776411533355713, -0.0654558390378952, -0.730787992477417, 9.762521743774414, 0.32392340898513794, 0.6379547715187073, 1.4321047067642212, -0.40250205993652344, -0.14108321070671082, -0.556884765625, -0.76513671875, 0.203857421875, 0, 
117, 1022579923, 0.04987579584121704, -0.6776216626167297, -0.06548858433961868, -0.7308009266853333, 9.736993789672852, 0.39024481177330017, 0.6453652381896973, 1.3196837902069092, -0.4114670753479004, -0.017648208886384964, -0.5556640625, -0.765380859375, 0.20361328125, 0, 
118, 1022588256, 0.04990232735872269, -0.6775998473167419, -0.06552153825759888, -0.7308163046836853, 9.726407051086426, 0.41833415627479553, 0.6230699419975281, 1.2531380653381348, -0.36684709787368774, -0.10727240890264511, -0.5537109375, -0.766357421875, 0.201416015625, 0, 
119, 1022596589, 0.04994603991508484, -0.6775746941566467, -0.06555557250976562, -0.7308335304260254, 9.768136978149414, 0.35597553849220276, 0.6048014760017395, 1.4321047067642212, -0.30552661418914795, 0.06863334029912949, -0.557373046875, -0.768798828125, 0.205322265625, 0, 
120, 1022604922, 0.04995797201991081, -0.677550196647644, -0.06554801017045975, -0.73085618019104, 9.766777992248535, 0.29216501116752625, 0.6360164880752563, 0.7067351341247559, -0.257602334022522, 0.11530248075723648, -0.55615234375, -0.763916015625, 0.202392578125, 0, 
121, 1022613255, 0.0499737523496151, -0.6775277256965637, -0.06553900241851807, -0.7308767437934875, 9.766040802001953, 0.2862353026866913, 0.7519497871398926, 0.7336045503616333, -0.2968177795410156, 0.18917393684387207, -0.55615234375, -0.76611328125, 0.20361328125, 0, 
122, 1022621588, 0.04998454451560974, -0.6775026321411133, -0.06552321463823318, -0.7309005856513977, 9.730663299560547, 0.2570016384124756, 0.7418070435523987, 0.6077873706817627, -0.23447270691394806, 0.17979910969734192, -0.556396484375, -0.767333984375, 0.202880859375, 0, 
123, 1022629921, 0.04998595267534256, -0.6774938106536865, -0.06549903750419617, -0.7309108972549438, 9.75678539276123, 0.22022172808647156, 0.761985182762146, 0.4472373127937317, -0.5320845246315002, 0.20538774132728577, -0.559326171875, -0.767578125, 0.203857421875, 0, 
124, 1022638254, 0.04998927563428879, -0.6774929165840149, -0.06548319011926651, -0.7309128642082214, 9.768329620361328, 0.22714568674564362, 0.7714698910713196, 0.55097496509552, -0.6885619163513184, 0.14437463879585266, -0.560302734375, -0.76611328125, 0.206787109375, 0, 
125, 1022646587, 0.04998777434229851, -0.6774951815605164, -0.06546292454004288, -0.7309126257896423, 9.753008842468262, 0.21894852817058563, 0.7609909772872925, 0.46153008937835693, -0.7470647692680359, 0.15577296912670135, -0.5595703125, -0.7666015625, 0.205322265625, 0, 
126, 1022654920, 0.04997846484184265, -0.6774932742118835, -0.0654483512043953, -0.7309165000915527, 9.72867488861084, 0.247702956199646, 0.7739089727401733, 0.4479801654815674, -0.6741410493850708, 0.002779144560918212, -0.556640625, -0.76416015625, 0.204833984375, 0, 
127, 1022663253, 0.049965351819992065, -0.6775104999542236, -0.0654333233833313, -0.7309028506278992, 9.741843223571777, 0.2654062509536743, 0.7600038647651672, 0.40786823630332947, -1.0369666814804077, 0.013127295300364494, -0.5576171875, -0.76513671875, 0.205322265625, 0, 
128, 1022671586, 0.0499584823846817, -0.6775283217430115, -0.06542511284351349, -0.7308874130249023, 9.763437271118164, 0.2281542271375656, 0.741542398929596, 0.5338391065597534, -1.053359866142273, -0.001792996539734304, -0.55712890625, -0.766357421875, 0.206298828125, 0, 
129, 1022679919, 0.049972355365753174, -0.6775379776954651, -0.06543970853090286, -0.7308762073516846, 9.730291366577148, 0.18430045247077942, 0.7677647471427917, 0.9610333442687988, -0.9334340691566467, 0.0010373765835538507, -0.560302734375, -0.764404296875, 0.20751953125, 0, 
130, 1022688252, 0.04997153580188751, -0.6775355339050293, -0.06545538455247879, -0.7308771014213562, 9.733996391296387, 0.19116728007793427, 0.7098768949508667, 0.8238689303398132, -0.709667980670929, -0.1932593733072281, -0.55615234375, -0.765869140625, 0.201171875, 0, 
131, 1022696585, 0.05000369995832443, -0.677545428276062, -0.06548432260751724, -0.730863094329834, 9.758702278137207, 0.18984360992908478, 0.6755216121673584, 1.277164101600647, -0.9557949900627136, 0.05275251716375351, -0.558837890625, -0.76611328125, 0.201904296875, 0, 
132, 1022704918, 0.050024084746837616, -0.6775527596473694, -0.0655042827129364, -0.7308530211448669, 9.824987411499023, 0.25390446186065674, 0.6938472390174866, 1.0967886447906494, -0.8931939601898193, -0.002587037393823266, -0.5576171875, -0.7666015625, 0.205810546875, 0, 
133, 1022713251, 0.05003586784005165, -0.6775543689727783, -0.06551671028137207, -0.7308496236801147, 9.767457008361816, 0.24710211157798767, 0.7263640761375427, 0.9164388179779053, -0.781080424785614, -0.011577633209526539, -0.56005859375, -0.765625, 0.206787109375, 0, 
134, 1022721584, 0.0500103160738945, -0.6775639653205872, -0.06548915058374405, -0.730845034122467, 9.722587585449219, 0.23937703669071198, 0.761527419090271, 0.1889946311712265, -0.8730099201202393, -0.022335613146424294, -0.55615234375, -0.765869140625, 0.202880859375, 0, 
135, 1022729917, 0.04996785148978233, -0.6775758266448975, -0.06544090807437897, -0.7308412194252014, 9.723345756530762, 0.32398802042007446, 0.7317286729812622, -0.20455528795719147, -0.895243227481842, 0.016213813796639442, -0.55859375, -0.7666015625, 0.2060546875, 0, 
136, 1022738250, 0.04992472380399704, -0.6775891184806824, -0.06539592891931534, -0.7308358550071716, 9.732830047607422, 0.3285086154937744, 0.6662658452987671, -0.16992484033107758, -0.922163724899292, -0.03342657908797264, -0.5546875, -0.76318359375, 0.204833984375, 0, 
137, 1022746583, 0.04988151043653488, -0.6776028275489807, -0.06534639745950699, -0.7308305501937866, 9.773308753967285, 0.32420259714126587, 0.6868517398834229, -0.22563578188419342, -0.9261594414710999, 0.024628087878227234, -0.56005859375, -0.769775390625, 0.200927734375, 0, 
138, 1022754916, 0.0498223751783371, -0.6776012778282166, -0.06528444588184357, -0.7308416366577148, 9.815094947814941, 0.19903500378131866, 0.6605149507522583, -0.4932277500629425, -0.6236041784286499, -0.061141178011894226, -0.55712890625, -0.7666015625, 0.201171875, 0, 
139, 1022763249, 0.04976408928632736, -0.6775884628295898, -0.0652182400226593, -0.7308633923530579, 9.783916473388672, 0.1333218365907669, 0.6894196271896362, -0.5403322577476501, -0.4118000268936157, -0.014600113034248352, -0.559814453125, -0.7646484375, 0.20361328125, 0, 
140, 1022771582, 0.04972749203443527, -0.6775756478309631, -0.06515005230903625, -0.7308838367462158, 9.763187408447266, 0.13201287388801575, 0.6904782652854919, -0.3426416218280792, -0.39599609375, 0.2064635455608368, -0.557861328125, -0.76513671875, 0.2041015625, 0, 
141, 1022779915, 0.049731574952602386, -0.6775528192520142, -0.0651220977306366, -0.7309072017669678, 9.77221393585205, 0.1829339563846588, 0.67796790599823, 0.43192002177238464, -0.2657988965511322, 0.24688279628753662, -0.558349609375, -0.763916015625, 0.20361328125, 0, 
142, 1022788248, 0.04977459833025932, -0.677533745765686, -0.06513998657464981, -0.7309204339981079, 9.801812171936035, 0.29475435614585876, 0.6194934248924255, 1.2670977115631104, -0.38787633180618286, 0.20397894084453583, -0.55908203125, -0.7666015625, 0.204833984375, 0, 
143, 1022796581, 0.049782827496528625, -0.6775286197662354, -0.0651363730430603, -0.7309250235557556, 9.810346603393555, 0.3547664284706116, 0.6320323944091797, 0.7189019322395325, -0.631160318851471, 0.08909910917282104, -0.5576171875, -0.76171875, 0.206787109375, 0, 
144, 1022804914, 0.049751535058021545, -0.6775071024894714, -0.06508246064186096, -0.7309517860412598, 9.780946731567383, 0.37763476371765137, 0.6989826560020447, -0.16423846781253815, -0.2564241290092468, 0.11402177810668945, -0.5556640625, -0.7646484375, 0.202880859375, 0, 
145, 1022813247, 0.049668170511722565, -0.6774970293045044, -0.06497250497341156, -0.7309765219688416, 9.735663414001465, 0.3070932924747467, 0.7816052436828613, -1.216573715209961, -0.40011996030807495, 0.14058372378349304, -0.55615234375, -0.765625, 0.203369140625, 0, 
146, 1022821580, 0.04958224669098854, -0.6774827241897583, -0.06485038995742798, -0.7310064435005188, 9.718388557434082, 0.24243846535682678, 0.7531943917274475, -1.3680306673049927, -0.30301639437675476, 0.20515719056129456, -0.557373046875, -0.763671875, 0.203857421875, 0, 
147, 1022829913, 0.04950988292694092, -0.677496075630188, -0.06474849581718445, -0.731007993221283, 9.711830139160156, 0.16932210326194763, 0.7866052985191345, -1.0286420583724976, -0.8501365184783936, 0.21355870366096497, -0.55712890625, -0.764892578125, 0.203125, 0, 
148, 1022838246, 0.04942416772246361, -0.6775142550468445, -0.0646791160106659, -0.7310030460357666, 9.751456260681152, 0.12982410192489624, 0.7713053822517395, -0.8389430046081543, -0.9890424609184265, -0.23188567161560059, -0.55810546875, -0.76708984375, 0.203369140625, 0, 
149, 1022846579, 0.04933477193117142, -0.6775187253952026, -0.06460543721914291, -0.7310115098953247, 9.768072128295898, 0.17219038307666779, 0.8113111853599548, -0.9025174975395203, -0.7316449880599976, -0.23316635191440582, -0.557373046875, -0.76708984375, 0.20263671875, 0, 
150, 1022854912, 0.04929376021027565, -0.6775296330451965, -0.06455699354410172, -0.7310084700584412, 9.70539379119873, 0.23301076889038086, 0.8571896553039551, -0.19835664331912994, -0.8698850870132446, 0.014126250520348549, -0.55615234375, -0.76806640625, 0.202392578125, 0, 
151, 1022863245, 0.049266740679740906, -0.677548348903656, -0.06454735994338989, -0.7309937477111816, 9.710205078125, 0.283939003944397, 0.8264250159263611, 0.3325880169868469, -1.0771042108535767, -0.17438170313835144, -0.558837890625, -0.76611328125, 0.201904296875, 0, 
152, 1022871578, 0.04922065883874893, -0.6775630116462708, -0.06453802436590195, -0.730984091758728, 9.720076560974121, 0.3629710078239441, 0.6632544994354248, 0.15976879000663757, -1.0027461051940918, -0.3921283185482025, -0.558837890625, -0.765380859375, 0.201171875, 0, 
153, 1022879911, 0.04917028546333313, -0.677578330039978, -0.0645311176776886, -0.730974018573761, 9.77258014678955, 0.33263587951660156, 0.6661015152931213, 0.13914932310581207, -1.0224177837371826, -0.4398220181465149, -0.558349609375, -0.76904296875, 0.202392578125, 0, 
154, 1022888244, 0.0491185188293457, -0.6775950193405151, -0.06448603421449661, -0.7309660315513611, 9.776598930358887, 0.20608055591583252, 0.7658191323280334, -0.2796306014060974, -0.9898108839988708, -0.1182609274983406, -0.555419921875, -0.76416015625, 0.204345703125, 0, 
155, 1022896577, 0.04907522350549698, -0.6776174902915955, -0.06443219631910324, -0.7309528589248657, 9.760326385498047, 0.17529472708702087, 0.7195831537246704, -0.2681810259819031, -1.0842760801315308, 0.07588216662406921, -0.55908203125, -0.767822265625, 0.202880859375, 0, 
156, 1022904910, 0.049039728939533234, -0.6776397824287415, -0.06438104808330536, -0.7309390306472778, 9.761113166809082, 0.225521981716156, 0.7407269477844238, -0.19687099754810333, -1.0818171501159668, 0.11122981458902359, -0.555419921875, -0.763427734375, 0.20068359375, 0, 
157, 1022913243, 0.0490008145570755, -0.6776669025421143, -0.06434576958417892, -0.7309195399284363, 9.772250175476074, 0.20692458748817444, 0.7518210411071777, -0.037857845425605774, -1.199233055114746, -0.04344174638390541, -0.555419921875, -0.763427734375, 0.20361328125, 0, 
158, 1022921576, 0.04896478354930878, -0.6777018308639526, -0.06432876735925674, -0.7308911085128784, 9.777085304260254, 0.1676197201013565, 0.7284383773803711, 0.17603382468223572, -1.3676975965499878, -0.18977585434913635, -0.55810546875, -0.766845703125, 0.201171875, 0, 
159, 1022929909, 0.04894540458917618, -0.677712082862854, -0.06432534009218216, -0.7308832406997681, 9.795811653137207, 0.13061091303825378, 0.7724140286445618, 0.46457815170288086, -0.926543653011322, -0.1685672551393509, -0.557861328125, -0.766357421875, 0.2021484375, 0, 
160, 1022938242, 0.04893006384372711, -0.6777236461639404, -0.06431540846824646, -0.7308743000030518, 9.742549896240234, 0.1420051008462906, 0.812362551689148, 0.4344046413898468, -0.9377371668815613, -0.08109467476606369, -0.558837890625, -0.76416015625, 0.203125, 0, 
161, 1022946575, 0.04894009232521057, -0.6777353286743164, -0.0643334686756134, -0.730861246585846, 9.710134506225586, 0.24499233067035675, 0.7663484811782837, 0.9587535858154297, -0.976542592048645, -0.06731420755386353, -0.556884765625, -0.767578125, 0.20263671875, 0, 
162, 1022954908, 0.04896017909049988, -0.6777659058570862, -0.06438194960355759, -0.7308273315429688, 9.730064392089844, 0.2794424295425415, 0.6443865299224854, 1.386959433555603, -1.3684275150299072, -0.23510023951530457, -0.56103515625, -0.764404296875, 0.206298828125, 0, 
163, 1022963241, 0.04896867275238037, -0.6777791976928711, -0.06442485004663467, -0.7308106422424316, 9.788250923156738, 0.2660428285598755, 0.6579757332801819, 1.1960309743881226, -1.0457651615142822, -0.30991944670677185, -0.557861328125, -0.767578125, 0.2001953125, 0, 
164, 1022971574, 0.04899292439222336, -0.6777887940406799, -0.06445173174142838, -0.7307977080345154, 9.763466835021973, 0.27026984095573425, 0.7244040966033936, 1.1308685541152954, -0.9456647038459778, -0.03003268875181675, -0.556396484375, -0.7666015625, 0.20263671875, 0, 
165, 1022979907, 0.049013905227184296, -0.6777991056442261, -0.0644659548997879, -0.7307854890823364, 9.745877265930176, 0.27160775661468506, 0.738588273525238, 1.0235576629638672, -0.9430392980575562, 0.0765993744134903, -0.5615234375, -0.766357421875, 0.204345703125, 0, 
166, 1022988240, 0.04905502125620842, -0.6778123378753662, -0.06450257450342178, -0.7307671308517456, 9.718840599060059, 0.30972611904144287, 0.7075818777084351, 1.4099482297897339, -1.024620532989502, 0.05831080675125122, -0.55908203125, -0.765869140625, 0.202880859375, 0, 
167, 1022996573, 0.04910033196210861, -0.6778508424758911, -0.06456001847982407, -0.7307233810424805, 9.745911598205566, 0.2459224909543991, 0.7079415917396545, 1.6934211254119873, -1.5290672779083252, -0.03570624068379402, -0.55859375, -0.7646484375, 0.20166015625, 0, 
168, 1023004906, 0.04909248277544975, -0.6778889298439026, -0.06456532329320908, -0.7306880354881287, 9.755125999450684, 0.2676665484905243, 0.704683780670166, 0.66124427318573, -1.4524040222167969, -0.10740049928426743, -0.557861328125, -0.763916015625, 0.200927734375, 0, 
169, 1023013239, 0.04909435659646988, -0.6779187917709351, -0.06456395238637924, -0.7306604385375977, 9.674714088439941, 0.33801475167274475, 0.709826648235321, 0.688933253288269, -1.2887545824050903, 0.057926587760448456, -0.5576171875, -0.763671875, 0.205078125, 0, 
170, 1023021572, 0.04913543164730072, -0.6779531836509705, -0.06458668410778046, -0.730623722076416, 9.656105995178223, 0.3139806091785431, 0.6072439551353455, 1.2749100923538208, -1.398511528968811, 0.21822045743465424, -0.560791015625, -0.768310546875, 0.203857421875, 0, 
171, 1023029905, 0.04913187772035599, -0.6779897809028625, -0.06458701193332672, -0.7305899262428284, 9.776885032653809, 0.2589472234249115, 0.6164105534553528, 0.6555322408676147, -1.42148756980896, -0.0024589665699750185, -0.557373046875, -0.767822265625, 0.2021484375, 0, 
172, 1023038238, 0.04911003261804581, -0.6780109405517578, -0.06457667797803879, -0.7305726408958435, 9.864458084106445, 0.2724592089653015, 0.6935182809829712, 0.3582022488117218, -1.117856502532959, -0.12868592143058777, -0.5595703125, -0.765380859375, 0.204345703125, 0, 
173, 1023046571, 0.04908505827188492, -0.6780370473861694, -0.0645623654127121, -0.7305513620376587, 9.811005592346191, 0.1909954696893692, 0.7408844232559204, 0.30459168553352356, -1.2076599597930908, -0.09922953695058823, -0.556884765625, -0.7646484375, 0.20361328125, 0, 
174, 1023054904, 0.04905787482857704, -0.6780570149421692, -0.06453613936901093, -0.7305369973182678, 9.772514343261719, 0.17080989480018616, 0.7664056420326233, 0.1651221662759781, -1.0704957246780396, -0.03708941116929054, -0.558837890625, -0.767333984375, 0.2041015625, 0, 
175, 1023063237, 0.049047067761421204, -0.6780791282653809, -0.06453735381364822, -0.7305170297622681, 9.733352661132812, 0.21556523442268372, 0.6852065920829773, 0.5950570702552795, -1.1547152996063232, -0.10586364567279816, -0.55615234375, -0.765380859375, 0.202880859375, 0, 
176, 1023071570, 0.049059703946113586, -0.6781029105186462, -0.064572274684906, -0.7304911017417908, 9.754439353942871, 0.25440555810928345, 0.6042975187301636, 1.158800721168518, -1.2226954698562622, -0.19643555581569672, -0.5595703125, -0.768310546875, 0.20361328125, 0, 
177, 1023079903, 0.049078717827796936, -0.6781133413314819, -0.06459856778383255, -0.7304778695106506, 9.77611255645752, 0.3131231963634491, 0.6380550861358643, 1.126065731048584, -0.9650676250457764, -0.054788846522569656, -0.5576171875, -0.763671875, 0.205078125, 0, 
178, 1023088236, 0.049109794199466705, -0.678126335144043, -0.06462925672531128, -0.730461061000824, 9.766992568969727, 0.38167569041252136, 0.6557797789573669, 1.283260464668274, -1.0105839967727661, 0.012973610311746597, -0.559326171875, -0.766357421875, 0.2041015625, 0, 
179, 1023096569, 0.04913809150457382, -0.6781314015388489, -0.06464633345603943, -0.730452835559845, 9.740927696228027, 0.4322749078273773, 0.63737553358078, 1.1191625595092773, -0.8489197492599487, 0.11690335720777512, -0.558349609375, -0.764892578125, 0.203857421875, 0, 
180, 1023104902, 0.049159981310367584, -0.6781413555145264, -0.06463715434074402, -0.730443000793457, 9.737394332885742, 0.40448611974716187, 0.5997658967971802, 0.8026092648506165, -0.896421492099762, 0.2852529287338257, -0.557861328125, -0.765625, 0.201416015625, 0, 
181, 1023113235, 0.04914825037121773, -0.6781644821166992, -0.06459958851337433, -0.7304255962371826, 9.77794361114502, 0.3269636034965515, 0.6428045630455017, 0.19260624051094055, -1.1134763956069946, 0.2462424635887146, -0.5625, -0.767822265625, 0.205078125, 0, 
182, 1023121568, 0.04910735785961151, -0.6781800389289856, -0.064525306224823, -0.7304205298423767, 9.808794975280762, 0.27025559544563293, 0.711629331111908, -0.4492224454879761, -0.9201913475990295, 0.26427486538887024, -0.558837890625, -0.765380859375, 0.2041015625, 0, 
183, 1023129901, 0.04906068369746208, -0.6781947612762451, -0.06443550437688828, -0.7304178476333618, 9.75905990600586, 0.23438435792922974, 0.7579009532928467, -0.6648942828178406, -0.889531135559082, 0.3647339344024658, -0.55712890625, -0.766845703125, 0.20361328125, 0, 
184, 1023138234, 0.04903126507997513, -0.6782113909721375, -0.06436432898044586, -0.7304106950759888, 9.789287567138672, 0.18002989888191223, 0.7892304062843323, -0.3567807078361511, -0.9434235095977783, 0.34844323992729187, -0.560302734375, -0.763916015625, 0.200439453125, 0, 
185, 1023146567, 0.049019791185855865, -0.6782358288764954, -0.06432460993528366, -0.7303921580314636, 9.793980598449707, 0.1233007088303566, 0.75574791431427, 0.17316503822803497, -1.1362475156784058, 0.2702942192554474, -0.556640625, -0.76318359375, 0.2021484375, 0, 
186, 1023154900, 0.04900448024272919, -0.678245484828949, -0.06428726017475128, -0.7303875684738159, 9.803836822509766, 0.12578989565372467, 0.6751854419708252, 0.114585280418396, -0.8603822588920593, 0.1676323562860489, -0.556640625, -0.76513671875, 0.205078125, 0, 
187, 1023163233, 0.04903349652886391, -0.6782522797584534, -0.06430293619632721, -0.7303779125213623, 9.735241889953613, 0.12101862579584122, 0.689083456993103, 1.112771987915039, -0.8781071901321411, 0.13904687762260437, -0.557373046875, -0.765869140625, 0.20458984375, 0, 
188, 1023171566, 0.04909469559788704, -0.6782614588737488, -0.06437453627586365, -0.7303590774536133, 9.755804061889648, 0.14982886612415314, 0.6723828315734863, 1.9551730155944824, -0.993371307849884, -0.06985002756118774, -0.55859375, -0.765380859375, 0.205322265625, 0, 
189, 1023179899, 0.049132294952869415, -0.6782574653625488, -0.0644272193312645, -0.7303556799888611, 9.778538703918457, 0.175970658659935, 0.6177248358726501, 1.5664000511169434, -0.7289554476737976, -0.13419297337532043, -0.56005859375, -0.765380859375, 0.2021484375, 0, 
190, 1023188232, 0.0491509735584259, -0.678245484828949, -0.06442920863628387, -0.7303651571273804, 9.792549133300781, 0.2639971375465393, 0.642046332359314, 0.870205283164978, -0.5071106553077698, 0.11527686566114426, -0.556640625, -0.76611328125, 0.20361328125, 0, 
191, 1023196565, 0.04913029819726944, -0.6782305240631104, -0.06438538432121277, -0.730384349822998, 9.765253067016602, 0.32260024547576904, 0.6861149072647095, 0.039100125432014465, -0.39402374625205994, 0.15649016201496124, -0.557861328125, -0.765869140625, 0.2021484375, 0, 
192, 1023204898, 0.04906832054257393, -0.6782210469245911, -0.06430657207965851, -0.730404257774353, 9.75384521484375, 0.40212568640708923, 0.710162878036499, -0.6919173002243042, -0.4491969048976898, 0.05608237162232399, -0.559326171875, -0.760986328125, 0.200927734375, 0, 
193, 1023213231, 0.0489935427904129, -0.6782068014144897, -0.06422156095504761, -0.730430006980896, 9.715012550354004, 0.4247644245624542, 0.6791982054710388, -0.8840368986129761, -0.36107105016708374, -0.008388661779463291, -0.557861328125, -0.76513671875, 0.2041015625, 0, 
194, 1023221564, 0.04892798513174057, -0.6782023906707764, -0.06414158642292023, -0.7304455637931824, 9.759553909301758, 0.28168660402297974, 0.6235632300376892, -0.7333995699882507, -0.5450324416160583, 0.03885679319500923, -0.55615234375, -0.76318359375, 0.20166015625, 0, 
195, 1023229897, 0.048850759863853455, -0.6781887412071228, -0.06404558569192886, -0.7304719090461731, 9.830788612365723, 0.20201773941516876, 0.7012718915939331, -1.0177559852600098, -0.3554999828338623, 0.07040072232484818, -0.55908203125, -0.765625, 0.20458984375, 0, 
196, 1023238230, 0.04884567856788635, -0.6781418919563293, -0.06400252878665924, -0.7305193543434143, 9.80264949798584, 0.16849951446056366, 0.709998369216919, 0.17401032149791718, 0.20697583258152008, 0.24178557097911835, -0.5595703125, -0.763671875, 0.203369140625, 0, 
197, 1023246563, 0.04891694337129593, -0.6780984401702881, -0.06403511017560959, -0.7305521368980408, 9.756057739257812, 0.14396904408931732, 0.7113602161407471, 1.6726479530334473, 0.04770650714635849, 0.3326904773712158, -0.558837890625, -0.766357421875, 0.20703125, 0, 
198, 1023254896, 0.04899664223194122, -0.6780538558959961, -0.06408638507127762, -0.730583667755127, 9.708909034729004, 0.29973331093788147, 0.6471840143203735, 1.9578368663787842, 0.0483468659222126, 0.2278001755475998, -0.558349609375, -0.76611328125, 0.201416015625, 0, 
199, 1023263229, 0.049081046134233475, -0.6780169010162354, -0.06415294855833054, -0.7306065559387207, 9.76517391204834, 0.4163961112499237, 0.5837674140930176, 2.139979600906372, -0.12061743438243866, 0.16038352251052856, -0.555419921875, -0.7646484375, 0.20166015625, 0, 
200, 1023271562, 0.04915577173233032, -0.6779740452766418, -0.06420101225376129, -0.7306369543075562, 9.811548233032227, 0.34436991810798645, 0.6622608304023743, 1.8392558097839355, 0.016213810071349144, 0.20652756094932556, -0.560546875, -0.762939453125, 0.203125, 0, 
201, 1023279895, 0.04916505143046379, -0.67793208360672, -0.06417325884103775, -0.7306777238845825, 9.807799339294434, 0.2448561191558838, 0.7042331695556641, 0.48111218214035034, 0.09408107399940491, 0.2687189280986786, -0.557373046875, -0.763671875, 0.203857421875, 0, 
202, 1023288228, 0.049154456704854965, -0.6778867840766907, -0.06411091983318329, -0.7307259440422058, 9.719268798828125, 0.23926259577274323, 0.7096406817436218, -0.0733591690659523, 0.2043631672859192, 0.3660402297973633, -0.557861328125, -0.768798828125, 0.202392578125, 0, 
203, 1023296561, 0.04915541782975197, -0.6778440475463867, -0.06406748294830322, -0.7307692766189575, 9.690535545349121, 0.18654614686965942, 0.7372220754623413, 0.2435017228126526, 0.13015872240066528, 0.32708096504211426, -0.558837890625, -0.767333984375, 0.2041015625, 0, 
204, 1023304894, 0.04913610219955444, -0.6778223514556885, -0.06401332467794418, -0.7307955622673035, 9.737630844116211, 0.20281173288822174, 0.7392033934593201, 0.002407738007605076, -0.24752314388751984, 0.24354013800621033, -0.557373046875, -0.765869140625, 0.2021484375, 0, 
205, 1023313227, 0.049125052988529205, -0.6777968406677246, -0.06397368013858795, -0.7308233380317688, 9.738853454589844, 0.20842668414115906, 0.7885866165161133, 0.1717434674501419, -0.20341546833515167, 0.19792120158672333, -0.559326171875, -0.761474609375, 0.202392578125, 0, 
206, 1023321560, 0.04908990114927292, -0.6777773499488831, -0.06392394006252289, -0.7308482527732849, 9.767450332641602, 0.2021462768316269, 0.7913835048675537, -0.13967442512512207, -0.29840582609176636, 0.043428935110569, -0.5546875, -0.7666015625, 0.198974609375, 0, 
207, 1023329893, 0.04905232787132263, -0.6777632236480713, -0.06389164924621582, -0.7308667302131653, 9.76546859741211, 0.2044711709022522, 0.8253594040870667, 0.00021772098261862993, -0.4323170483112335, -0.1210784837603569, -0.558349609375, -0.765869140625, 0.200927734375, 0, 
208, 1023338226, 0.0490199476480484, -0.6777514219284058, -0.06385437399148941, -0.730883002281189, 9.73124885559082, 0.22045060992240906, 0.792398989200592, 0.016431530937552452, -0.4628492295742035, -0.03278622031211853, -0.556396484375, -0.766845703125, 0.20263671875, 0, 
209, 1023346559, 0.04900360107421875, -0.6777414679527283, -0.06384054571390152, -0.7308945655822754, 9.742715835571289, 0.12116915732622147, 0.7496393918991089, 0.38566073775291443, -0.5321869850158691, -0.07184793800115585, -0.561767578125, -0.76416015625, 0.201904296875, 0, 
210, 1023354892, 0.04897794872522354, -0.6777270436286926, -0.0638449639081955, -0.7309092283248901, 9.757600784301758, 0.07442533224821091, 0.7232096195220947, 0.5245923399925232, -0.47258260846138, -0.35250309109687805, -0.55810546875, -0.765380859375, 0.19970703125, 0, 
211, 1023363225, 0.04896164685487747, -0.6776959896087646, -0.06384453922510147, -0.7309392094612122, 9.756141662597656, 0.1224139854311943, 0.7179526686668396, 0.5174075365066528, -0.1571817398071289, -0.22692930698394775, -0.55615234375, -0.765380859375, 0.202880859375, 0, 
212, 1023371558, 0.0489683672785759, -0.6776738166809082, -0.06388120353221893, -0.7309561371803284, 9.742959022521973, 0.19221088290214539, 0.6641482710838318, 1.1264243125915527, -0.3676410913467407, -0.3380310535430908, -0.55615234375, -0.762451171875, 0.19921875, 0, 
213, 1023379891, 0.04898501932621002, -0.6776710748672485, -0.06394808739423752, -0.7309516668319702, 9.769723892211914, 0.2181694507598877, 0.682062566280365, 1.5142236948013306, -0.7790313363075256, -0.4755025804042816, -0.55859375, -0.7666015625, 0.200439453125, 0, 
214, 1023388224, 0.048998236656188965, -0.6776720285415649, -0.06401750445365906, -0.7309438586235046, 9.831646919250488, 0.20352059602737427, 0.6645229458808899, 1.5010582208633423, -0.849342405796051, -0.5434828400611877, -0.55517578125, -0.769287109375, 0.2001953125, 0, 
215, 1023396557, 0.048982784152030945, -0.677675187587738, -0.0640343576669693, -0.7309404015541077, 9.80396556854248, 0.23643045127391815, 0.6826460957527161, 0.7071706056594849, -0.8225755095481873, -0.3270425498485565, -0.556884765625, -0.764404296875, 0.2041015625, 0, 
216, 1023404890, 0.04893968626856804, -0.6776561737060547, -0.0639992207288742, -0.7309641242027283, 9.749276161193848, 0.298938512802124, 0.7543888688087463, -0.1223336011171341, -0.3357257843017578, -0.1775834858417511, -0.559326171875, -0.767333984375, 0.204345703125, 0, 
217, 1023413223, 0.04889298230409622, -0.6776605248451233, -0.06397315114736557, -0.7309654951095581, 9.724154472351074, 0.271450400352478, 0.7590954303741455, -0.022053856402635574, -0.7900710701942444, -0.24159348011016846, -0.5576171875, -0.765625, 0.2001953125, 0, 
218, 1023421556, 0.048844821751117706, -0.6776500940322876, -0.06397140026092529, -0.7309783697128296, 9.76528263092041, 0.3212842345237732, 0.6260668635368347, 0.06586700677871704, -0.5506804585456848, -0.5331090688705444, -0.556884765625, -0.76416015625, 0.20068359375, 0, 
219, 1023429889, 0.048828884959220886, -0.6776418685913086, -0.0639701634645462, -0.7309871315956116, 9.764824867248535, 0.31754329800605774, 0.6758649945259094, 0.5182143449783325, -0.5831849575042725, -0.1798887550830841, -0.556396484375, -0.764404296875, 0.20361328125, 0, 
220, 1023438222, 0.04883692413568497, -0.6776314973831177, -0.06397449970245361, -0.7309958934783936, 9.764839172363281, 0.3132373094558716, 0.7729791402816772, 0.767479419708252, -0.5394743084907532, -0.013357824645936489, -0.559326171875, -0.766357421875, 0.201904296875, 0, 
221, 1023446555, 0.04885032773017883, -0.6776261925697327, -0.06398595124483109, -0.7309988737106323, 9.802799224853516, 0.29019084572792053, 0.7352765202522278, 0.9210237860679626, -0.6514468789100647, 0.002138788579031825, -0.556396484375, -0.765625, 0.202392578125, 0, 
222, 1023454888, 0.04887207970023155, -0.6776093244552612, -0.06400295346975327, -0.7310115098953247, 9.773609161376953, 0.2869291305541992, 0.6929030418395996, 1.03469979763031, -0.43495529890060425, 0.0005763202789239585, -0.558837890625, -0.765869140625, 0.201416015625, 0, 
223, 1023463221, 0.04890361428260803, -0.6776013970375061, -0.06401823461055756, -0.7310153841972351, 9.760054588317871, 0.2378820925951004, 0.6965152621269226, 1.1286145448684692, -0.6019985675811768, 0.14584745466709137, -0.556396484375, -0.76416015625, 0.20068359375, 0, 
224, 1023471554, 0.048912204802036285, -0.6775953769683838, -0.06401175260543823, -0.7310211658477783, 9.798114776611328, 0.24345415830612183, 0.7237103581428528, 0.6909183859825134, -0.6053540706634521, 0.10145797580480576, -0.55712890625, -0.766357421875, 0.20068359375, 0, 
225, 1023479887, 0.04891279339790344, -0.6775799989700317, -0.06400523334741592, -0.7310360670089722, 9.759804725646973, 0.265148401260376, 0.6818447113037109, 0.6174183487892151, -0.435313880443573, 0.025037916377186775, -0.55615234375, -0.76513671875, 0.200439453125, 0, 
226, 1023488220, 0.04891771823167801, -0.6775854229927063, -0.06400547921657562, -0.7310304641723633, 9.7566499710083, 0.2316301316022873, 0.6783469915390015, 0.7182230949401855, -0.8330644965171814, 0.01892891712486744, -0.560791015625, -0.765380859375, 0.20361328125, 0, 
227, 1023496553, 0.048909008502960205, -0.6775726079940796, -0.06396577507257462, -0.7310464382171631, 9.767544746398926, 0.2142493575811386, 0.6688694357872009, 0.19561590254306793, -0.4398348033428192, 0.2416190654039383, -0.557861328125, -0.766357421875, 0.2021484375, 0, 
228, 1023504886, 0.04894706606864929, -0.677564263343811, -0.06395204365253448, -0.7310526967048645, 9.790446281433105, 0.22821860015392303, 0.6659797430038452, 0.8593447208404541, -0.5472736954689026, 0.4607360064983368, -0.560546875, -0.764892578125, 0.20361328125, 0, 
229, 1023513219, 0.04902476817369461, -0.6775583028793335, -0.06398582458496094, -0.7310501337051392, 9.769916534423828, 0.1844479888677597, 0.7322134971618652, 1.7492600679397583, -0.6524202227592468, 0.44260120391845703, -0.559326171875, -0.7646484375, 0.203125, 0, 
230, 1023521552, 0.04913114383816719, -0.6775590777397156, -0.06406193971633911, -0.731035590171814, 9.819050788879395, 0.17440170049667358, 0.779202938079834, 2.4391796588897705, -0.8316429257392883, 0.336430162191391, -0.557373046875, -0.765869140625, 0.20166015625, 0, 
231, 1023529885, 0.04923675209283829, -0.6775515675544739, -0.064176045358181, -0.7310254573822021, 9.765562057495117, 0.22305624186992645, 0.8039206266403198, 2.8253397941589355, -0.7374337911605835, -0.02077314257621765, -0.556884765625, -0.764892578125, 0.201416015625, 0, 
232, 1023538218, 0.0493512898683548, -0.6775490641593933, -0.06429658085107803, -0.7310095429420471, 9.738804817199707, 0.20559161901474, 0.7738652229309082, 2.9110450744628906, -0.8353826403617859, -0.004098277539014816, -0.5576171875, -0.766357421875, 0.200439453125, 0, 
233, 1023546551, 0.04946642369031906, -0.6775502562522888, -0.064406618475914, -0.7309909462928772, 9.731030464172363, 0.16400139033794403, 0.7917433977127075, 2.875108480453491, -0.8935270309448242, 0.12690572440624237, -0.558349609375, -0.7666015625, 0.20166015625, 0, 
234, 1023554884, 0.0495777353644371, -0.677565336227417, -0.06452573835849762, -0.7309589982032776, 9.722068786621094, 0.08434635400772095, 0.8482735753059387, 2.914170026779175, -1.1634241342544556, 0.007133563980460167, -0.55712890625, -0.765625, 0.199951171875, 0, 
235, 1023563217, 0.04964070022106171, -0.6775821447372437, -0.0646214485168457, -0.7309306859970093, 9.754786491394043, 0.05953935161232948, 0.7460359334945679, 2.2422444820404053, -1.1763209104537964, -0.2438346892595291, -0.556640625, -0.763427734375, 0.205078125, 0, 
236, 1023571550, 0.04969114065170288, -0.6775893568992615, -0.06472007930278778, -0.7309118509292603, 9.743566513061523, 0.1961178481578827, 0.6784511804580688, 2.13584303855896, -1.0018367767333984, -0.4298197031021118, -0.55859375, -0.765380859375, 0.205322265625, 0, 
237, 1023579883, 0.04978515952825546, -0.6776005625724792, -0.06484870612621307, -0.7308837175369263, 9.729964256286621, 0.32709401845932007, 0.6872386336326599, 2.8655927181243896, -1.114539384841919, -0.2428869754076004, -0.56103515625, -0.767822265625, 0.20263671875, 0, 
238, 1023588216, 0.04987756162881851, -0.6776087284088135, -0.06496071070432663, -0.7308598160743713, 9.74736499786377, 0.3968128263950348, 0.7006259560585022, 2.5739872455596924, -1.0312546491622925, -0.1351919174194336, -0.555419921875, -0.766357421875, 0.205078125, 0, 
239, 1023596549, 0.0499381385743618, -0.6776179075241089, -0.06506328284740448, -0.7308380007743835, 9.748553276062012, 0.36389458179473877, 0.6597709655761719, 2.2884271144866943, -1.0463287830352783, -0.3429618179798126, -0.557373046875, -0.767333984375, 0.201904296875, 0, 
240, 1023604882, 0.0499611422419548, -0.6776302456855774, -0.06512828916311264, -0.7308191657066345, 9.783169746398926, 0.2922309637069702, 0.6656243801116943, 1.5048877000808716, -1.055498719215393, -0.3903481662273407, -0.557373046875, -0.76708984375, 0.2001953125, 0, 
241, 1023613215, 0.04995708912611008, -0.6776276230812073, -0.0651504397392273, -0.7308199405670166, 9.808686256408691, 0.2471025586128235, 0.7331380844116211, 0.8667344450950623, -0.7203875184059143, -0.2685524523258209, -0.55712890625, -0.764892578125, 0.2001953125, 0, 
242, 1023621548, 0.049975961446762085, -0.6776180267333984, -0.06518369168043137, -0.7308245897293091, 9.792922019958496, 0.1709098070859909, 0.7612125873565674, 1.1599406003952026, -0.5956205725669861, -0.17103904485702515, -0.556396484375, -0.76318359375, 0.20556640625, 0, 
243, 1023629881, 0.04998157173395157, -0.677609384059906, -0.06522492319345474, -0.7308285236358643, 9.774459838867188, 0.06348147988319397, 0.8121981620788574, 1.1493619680404663, -0.6350664496421814, -0.3576899468898773, -0.560546875, -0.7666015625, 0.20458984375, 0, 
244, 1023638214, 0.049934618175029755, -0.6776067614555359, -0.06521229445934296, -0.7308353185653687, 9.783843040466309, 0.1306108981370926, 0.7445035576820374, 0.05540357902646065, -0.6772274971008301, -0.4003888964653015, -0.55615234375, -0.76220703125, 0.204345703125, 0, 
245, 1023646547, 0.049942802637815475, -0.677605390548706, -0.06526924669742584, -0.7308308482170105, 9.763680458068848, 0.1932125985622406, 0.7470428943634033, 1.3342583179473877, -0.7947584390640259, -0.46569234132766724, -0.558837890625, -0.766357421875, 0.204345703125, 0, 
246, 1023654880, 0.05001363903284073, -0.6776198148727417, -0.06535856425762177, -0.7308047413825989, 9.767385482788086, 0.10752648115158081, 0.7942970991134644, 2.227221727371216, -1.1174211502075195, -0.12691853940486908, -0.5546875, -0.7666015625, 0.2041015625, 0, 
247, 1023663213, 0.05009080097079277, -0.6776238679885864, -0.06548438221216202, -0.7307844758033752, 9.745381355285645, 0.14720956981182098, 0.7428669929504395, 2.6783270835876465, -0.9814991354942322, -0.39905697107315063, -0.558349609375, -0.764892578125, 0.206298828125, 0, 
248, 1023671546, 0.050179317593574524, -0.6776148676872253, -0.06562423706054688, -0.7307742238044739, 9.790681838989258, 0.2526218593120575, 0.67010098695755, 2.95589542388916, -0.7524949908256531, -0.44727572798728943, -0.5576171875, -0.7666015625, 0.205810546875, 0, 
249, 1023679879, 0.05027559772133827, -0.6775983572006226, -0.06576626002788544, -0.7307701706886292, 9.754000663757324, 0.4098915755748749, 0.611359179019928, 3.0203921794891357, -0.617815375328064, -0.3866468667984009, -0.55908203125, -0.765869140625, 0.205322265625, 0, 
250, 1023688212, 0.05036903917789459, -0.6775999665260315, -0.06591305136680603, -0.7307488918304443, 9.767428398132324, 0.45088788866996765, 0.5870113372802734, 3.1168556213378906, -0.961122989654541, -0.44366419315338135, -0.55712890625, -0.764892578125, 0.2060546875, 0, 
251, 1023696545, 0.050425752997398376, -0.6775986552238464, -0.06601497530937195, -0.730737030506134, 9.805140495300293, 0.44209185242652893, 0.6112220287322998, 2.245945692062378, -0.851647675037384, -0.3919233977794647, -0.55615234375, -0.76611328125, 0.2060546875, 0, 
252, 1023704878, 0.05044396221637726, -0.6775996685028076, -0.06606531888246536, -0.7307303547859192, 9.764538764953613, 0.34560391306877136, 0.714833676815033, 1.326522707939148, -0.8226523399353027, -0.31899967789649963, -0.555908203125, -0.76513671875, 0.20458984375, 0, 
253, 1023713211, 0.05043158680200577, -0.6775965094566345, -0.06605426222085953, -0.7307350635528564, 9.727487564086914, 0.2867288589477539, 0.7133888006210327, 0.4512588083744049, -0.661820650100708, -0.046541064977645874, -0.557861328125, -0.76513671875, 0.2041015625, 0, 
254, 1023721544, 0.05043671652674675, -0.6775884628295898, -0.06606044620275497, -0.7307416200637817, 9.712265968322754, 0.31935298442840576, 0.6553935408592224, 0.7684910297393799, -0.5906130075454712, -0.055301129817962646, -0.55615234375, -0.763916015625, 0.202392578125, 0, 
255, 1023729877, 0.0504746288061142, -0.6775858402252197, -0.06608354300260544, -0.7307392954826355, 9.745870590209961, 0.38937216997146606, 0.5928705334663391, 1.2694413661956787, -0.7111407518386841, 0.14594991505146027, -0.556396484375, -0.7626953125, 0.20556640625, 0, 
256, 1023738210, 0.0505455806851387, -0.677579402923584, -0.06613104045391083, -0.7307361364364624, 9.785204887390137, 0.36600616574287415, 0.6174198985099792, 1.8603490591049194, -0.663536787033081, 0.23502342402935028, -0.556884765625, -0.764892578125, 0.20703125, 0, 
257, 1023746543, 0.05062877759337425, -0.6775594353675842, -0.06618867069482803, -0.7307435870170593, 9.809350967407227, 0.3311844766139984, 0.7043813467025757, 2.0417490005493164, -0.42855173349380493, 0.2561039328575134, -0.55810546875, -0.767822265625, 0.204345703125, 0, 
258, 1023754876, 0.05072123557329178, -0.6775225400924683, -0.06622051447629929, -0.730768620967865, 9.766107559204102, 0.2885124087333679, 0.7255327105522156, 1.7837752103805542, -0.06671227514743805, 0.5407165288925171, -0.555908203125, -0.765380859375, 0.205078125, 0, 
259, 1023763209, 0.0507972314953804, -0.6774868965148926, -0.06624382734298706, -0.7307941913604736, 9.720499992370605, 0.2996175289154053, 0.6848675608634949, 1.624390721321106, -0.08608943969011307, 0.4760277569293976, -0.5595703125, -0.766845703125, 0.2060546875, 0, 
260, 1023771542, 0.05087534710764885, -0.6774458289146423, -0.06624630093574524, -0.7308266162872314, 9.746914863586426, 0.32232141494750977, 0.6760581135749817, 1.4178376197814941, 0.05290620028972626, 0.6665464639663696, -0.557373046875, -0.7666015625, 0.2041015625, 0, 
261, 1023779875, 0.05095991492271423, -0.6774035692214966, -0.06623739004135132, -0.7308606505393982, 9.769610404968262, 0.26568520069122314, 0.7067580819129944, 1.3767778873443604, 0.09004683792591095, 0.8511481881141663, -0.55810546875, -0.767333984375, 0.20361328125, 0, 
262, 1023788208, 0.05102907121181488, -0.6773713827133179, -0.06622844934463501, -0.7308866381645203, 9.80899429321289, 0.23429852724075317, 0.7702968120574951, 1.1446360349655151, -0.0979488343000412, 0.6895992159843445, -0.558349609375, -0.76416015625, 0.20556640625, 0, 
263, 1023796541, 0.05106346309185028, -0.6773527264595032, -0.06619831919670105, -0.730904221534729, 9.763265609741211, 0.3076866865158081, 0.7951744198799133, 0.6952727437019348, -0.3304876387119293, 0.5779339671134949, -0.5576171875, -0.7666015625, 0.202880859375, 0, 
264, 1023804874, 0.05107877776026726, -0.6773375272750854, -0.06613671034574509, -0.7309226989746094, 9.739668846130371, 0.33864420652389526, 0.7498754262924194, 0.26294293999671936, -0.34676554799079895, 0.6718486547470093, -0.553955078125, -0.76513671875, 0.205078125, 0, 
265, 1023813207, 0.051114700734615326, -0.6773166656494141, -0.06611109524965286, -0.7309417724609375, 9.704690933227539, 0.27980491518974304, 0.7208277583122253, 0.7548131346702576, -0.2968945801258087, 0.5476963520050049, -0.55908203125, -0.765625, 0.202392578125, 0, 
266, 1023821540, 0.051133204251527786, -0.6773025989532471, -0.06606583297252655, -0.7309576869010925, 9.715521812438965, 0.12321512401103973, 0.7500396370887756, 0.40084996819496155, -0.3923076093196869, 0.5495149493217468, -0.558349609375, -0.7666015625, 0.207275390625, 0, 
267, 1023829873, 0.05114590376615524, -0.677284300327301, -0.06603672355413437, -0.7309764623641968, 9.734762191772461, 0.08481841534376144, 0.7352406978607178, 0.5022182464599609, -0.34424248337745667, 0.34832796454429626, -0.56201171875, -0.76513671875, 0.206298828125, 0, 
268, 1023838206, 0.05117423087358475, -0.6772705316543579, -0.06604333221912384, -0.7309865355491638, 9.759803771972656, 0.05490522086620331, 0.7642240524291992, 0.9934609532356262, -0.47839707136154175, 0.16814465820789337, -0.554443359375, -0.76318359375, 0.203857421875, 0, 
269, 1023846539, 0.05119425803422928, -0.6772623062133789, -0.06605617702007294, -0.7309916019439697, 9.801919937133789, -0.008118883706629276, 0.8212392926216125, 0.9964576959609985, -0.5956845283508301, 0.05257321521639824, -0.55810546875, -0.76708984375, 0.205810546875, 0, 
270, 1023854872, 0.0511879101395607, -0.6772617697715759, -0.06606380641460419, -0.7309918403625488, 9.765554428100586, 0.03822479397058487, 0.8632122278213501, 0.6670330762863159, -0.7362555861473083, -0.1729729324579239, -0.55712890625, -0.763671875, 0.205078125, 0, 
271, 1023863205, 0.05114143714308739, -0.677266538143158, -0.06605001538991928, -0.7309918999671936, 9.74930191040039, 0.1373988687992096, 0.8381771445274353, 0.10562029480934143, -0.8151473999023438, -0.35419362783432007, -0.558349609375, -0.767333984375, 0.2041015625, 0, 
272, 1023871538, 0.051078781485557556, -0.6772928237915039, -0.06602774560451508, -0.7309739589691162, 9.736442565917969, 0.18477939069271088, 0.7782722115516663, -0.16631323099136353, -1.2043300867080688, -0.42399245500564575, -0.558349609375, -0.767822265625, 0.205322265625, 0, 
273, 1023879871, 0.05100057274103165, -0.6773449182510376, -0.06602005660533905, -0.7309318780899048, 9.758559226989746, 0.19344747066497803, 0.6567278504371643, -0.12392165511846542, -1.7164866924285889, -0.6566464304924011, -0.559326171875, -0.76513671875, 0.203369140625, 0, 
274, 1023888204, 0.05094420909881592, -0.677389919757843, -0.06603927910327911, -0.7308924794197083, 9.782219886779785, 0.17286944389343262, 0.6690073013305664, 0.32626137137413025, -1.615156888961792, -0.7138943672180176, -0.55517578125, -0.765625, 0.204345703125, 0, 
275, 1023896537, 0.050945401191711426, -0.6774066686630249, -0.06611184775829315, -0.7308703064918518, 9.727779388427734, 0.11792963743209839, 0.6861932873725891, 1.4291590452194214, -1.1605297327041626, -0.6529068350791931, -0.555908203125, -0.762939453125, 0.206298828125, 0, 
276, 1023904870, 0.05099024623632431, -0.6774375438690186, -0.06623002886772156, -0.7308277487754822, 9.733036994934082, 0.084417425096035, 0.7803258299827576, 2.3208930492401123, -1.4785304069519043, -0.6266523003578186, -0.558349609375, -0.768310546875, 0.2001953125, 0, 
277, 1023913203, 0.05101248249411583, -0.6774604320526123, -0.06634709984064102, -0.730794370174408, 9.757909774780273, 0.21510328352451324, 0.7660165429115295, 2.0789153575897217, -1.3378571271896362, -0.8423497080802917, -0.560791015625, -0.769287109375, 0.205322265625, 0, 
278, 1023921536, 0.050996243953704834, -0.6774623990058899, -0.06642532348632812, -0.7307865619659424, 9.794533729553223, 0.3516177535057068, 0.7244800329208374, 1.360410451889038, -0.8919388055801392, -0.9169639945030212, -0.557373046875, -0.76416015625, 0.206298828125, 0, 
279, 1023929869, 0.050927236676216125, -0.6774636507034302, -0.06645214557647705, -0.7307878136634827, 9.806254386901855, 0.38715478777885437, 0.6567668914794922, 0.3042330741882324, -0.8180161714553833, -0.9628390669822693, -0.558349609375, -0.767333984375, 0.2041015625, 0, 
280, 1023938202, 0.05081671103835106, -0.6774735450744629, -0.06643353402614594, -0.730787992477417, 9.79200553894043, 0.3286159038543701, 0.6457872986793518, -0.35060763359069824, -0.910662829875946, -0.9487255811691284, -0.559326171875, -0.765869140625, 0.205810546875, 0, 
281, 1023946535, 0.05071302503347397, -0.6774907112121582, -0.06642033159732819, -0.7307805418968201, 9.771333694458008, 0.22914151847362518, 0.6650643348693848, -0.42419734597206116, -1.0622735023498535, -0.9175531268119812, -0.560791015625, -0.768310546875, 0.206787109375, 0, 
282, 1023954868, 0.05061304569244385, -0.6774967908859253, -0.06639933586120605, -0.7307837009429932, 9.806046485900879, 0.19562336802482605, 0.6760368347167969, -0.43697887659072876, -0.8386357426643372, -0.8395578265190125, -0.553955078125, -0.767822265625, 0.203369140625, 0, 
283, 1023963201, 0.05053968355059624, -0.6774929761886597, -0.06639929860830307, -0.7307922840118408, 9.754440307617188, 0.21146662533283234, 0.7053203582763672, -0.008401469327509403, -0.6822606921195984, -0.7646872997283936, -0.55712890625, -0.766845703125, 0.203125, 0, 
284, 1023971534, 0.05046383664011955, -0.6774812340736389, -0.06640326231718063, -0.7308080792427063, 9.759403228759766, 0.3047468662261963, 0.6772669553756714, 0.1005614846944809, -0.5363236665725708, -0.8488684892654419, -0.556640625, -0.76611328125, 0.206298828125, 0, 
285, 1023979867, 0.05040633678436279, -0.6774677634239197, -0.06641733646392822, -0.7308232188224792, 9.744739532470703, 0.3836570084095001, 0.6587767601013184, 0.2822688817977905, -0.5219284892082214, -0.7520980834960938, -0.558349609375, -0.766357421875, 0.203857421875, 0, 
286, 1023988200, 0.050366539508104324, -0.6774612069129944, -0.06644932180643082, -0.730829119682312, 9.74443244934082, 0.4080983102321625, 0.6613375544548035, 0.48026689887046814, -0.6716692447662354, -0.7552741169929504, -0.556884765625, -0.76513671875, 0.20654296875, 0, 
287, 1023996533, 0.05030929297208786, -0.6774524450302124, -0.06645992398262024, -0.730840265750885, 9.726284980773926, 0.40236884355545044, 0.6958785653114319, 0.24932895600795746, -0.6023826599121094, -0.7073755264282227, -0.557373046875, -0.766357421875, 0.20751953125, 0, 
288, 1024004866, 0.05022171139717102, -0.6774359941482544, -0.06643939018249512, -0.7308634519577026, 9.743494987487793, 0.4005378782749176, 0.6803285479545593, -0.35145291686058044, -0.4160007834434509, -0.7554150223731995, -0.555908203125, -0.77001953125, 0.20361328125, 0, 
289, 1024013199, 0.050126973539590836, -0.6774148344993591, -0.06637982279062271, -0.7308949828147888, 9.769152641296387, 0.3944080173969269, 0.6678113341331482, -0.8148400783538818, -0.2743028700351715, -0.45839235186576843, -0.559326171875, -0.767578125, 0.205078125, 0, 
290, 1024021532, 0.05003993585705757, -0.6774035692214966, -0.0663219466805458, -0.7309166789054871, 9.786005020141602, 0.341476708650589, 0.680943489074707, -0.6520360708236694, -0.45465272665023804, -0.39051464200019836, -0.557373046875, -0.767822265625, 0.205078125, 0, 
291, 1024029865, 0.04996750131249428, -0.6774189472198486, -0.06628873944282532, -0.7309104800224304, 9.78076171875, 0.21276846528053284, 0.7414565682411194, -0.33252400159835815, -0.9901951551437378, -0.41897204518318176, -0.556640625, -0.76513671875, 0.2060546875, 0, 
292, 1024038198, 0.04988647997379303, -0.67741459608078, -0.06624563783407211, -0.7309238314628601, 9.760919570922852, 0.21819747984409332, 0.7443105578422546, -0.4209955632686615, -0.6045472025871277, -0.45357686281204224, -0.5537109375, -0.767578125, 0.2080078125, 0, 
293, 1024046531, 0.04985218495130539, -0.6774078011512756, -0.0662379264831543, -0.7309331893920898, 9.751764297485352, 0.24135123193264008, 0.7091543078422546, 0.278695672750473, -0.6056997776031494, -0.3043995499610901, -0.555908203125, -0.76416015625, 0.201416015625, 0, 
294, 1024054864, 0.049818072468042374, -0.6774039268493652, -0.06621972471475601, -0.7309407591819763, 9.781920433044434, 0.25898298621177673, 0.7146191000938416, 0.36737215518951416, -0.6347463726997375, -0.20242930948734283, -0.555419921875, -0.76806640625, 0.203125, 0, 
295, 1024063197, 0.049817319959402084, -0.6773900389671326, -0.06624185293912888, -0.7309517860412598, 9.798550605773926, 0.3160272538661957, 0.6484126448631287, 0.8940008282661438, -0.5086987018585205, -0.25194162130355835, -0.5546875, -0.767822265625, 0.205078125, 0, 
296, 1024071530, 0.049862075597047806, -0.6773489117622375, -0.06630358099937439, -0.7309811115264893, 9.739513397216797, 0.3159177899360657, 0.5806834101676941, 1.824950098991394, -0.042596470564603806, -0.21031847596168518, -0.55810546875, -0.767578125, 0.20068359375, 0, 
297, 1024079863, 0.04988184571266174, -0.6773543953895569, -0.06631983816623688, -0.7309731841087341, 9.724175453186035, 0.17065252363681793, 0.7042975425720215, 1.030678391456604, -0.855131208896637, 0.03858784958720207, -0.5556640625, -0.768310546875, 0.204345703125, 0, 
298, 1024088196, 0.049847476184368134, -0.6773285269737244, -0.06626952439546585, -0.7310039401054382, 9.78322982788086, 0.32576191425323486, 0.706550657749176, -0.11660880595445633, -0.1809517741203308, 0.046720366925001144, -0.556640625, -0.76806640625, 0.20703125, 0, 
299, 1024096529, 0.04987979307770729, -0.6772927641868591, -0.06626685708761215, -0.7310351729393005, 9.72790241241455, 0.2548771798610687, 0.8818240165710449, 0.9501728415489197, -0.05394357815384865, 0.27682584524154663, -0.551513671875, -0.76708984375, 0.20654296875, 0, 
300, 1024104862, 0.04989669844508171, -0.6772539019584656, -0.0662635862827301, -0.731070339679718, 9.749217987060547, 0.3149039149284363, 0.7201768159866333, 0.5973368287086487, -0.000051228475058451295, 0.08927842229604721, -0.556884765625, -0.766357421875, 0.20458984375, 0, 
301, 1024113195, 0.049933839589357376, -0.6772235035896301, -0.06629034876823425, -0.7310935258865356, 9.78200626373291, 0.35179126262664795, 0.6730754375457764, 1.2943898439407349, -0.19831819832324982, 0.06206328794360161, -0.55517578125, -0.766357421875, 0.203857421875, 0, 
302, 1024121528, 0.04999620467424393, -0.6771966814994812, -0.0663372129201889, -0.7311099767684937, 9.777012825012207, 0.33813971281051636, 0.748638927936554, 1.7190736532211304, -0.2827683389186859, 0.11818407475948334, -0.558837890625, -0.76806640625, 0.204833984375, 0, 
303, 1024129861, 0.05006534233689308, -0.6771633625030518, -0.06637851893901825, -0.7311323285102844, 9.750356674194336, 0.2658591568470001, 0.7003932595252991, 1.7411915063858032, -0.15806543827056885, 0.24606314301490784, -0.555908203125, -0.76611328125, 0.204833984375, 0, 
304, 1024138194, 0.0501345731317997, -0.6771304607391357, -0.06640854477882385, -0.7311554551124573, 9.69306755065918, 0.2680527865886688, 0.7312709093093872, 1.59193754196167, -0.1428249627351761, 0.33220380544662476, -0.55712890625, -0.7685546875, 0.201171875, 0, 
305, 1024146527, 0.05020134150981903, -0.6771024465560913, -0.0664394274353981, -0.7311739921569824, 9.710814476013184, 0.2532893121242523, 0.6792840361595154, 1.6151312589645386, -0.24127328395843506, 0.3256593644618988, -0.5556640625, -0.7685546875, 0.205078125, 0, 
306, 1024154860, 0.05021795630455017, -0.6770845055580139, -0.0664447471499443, -0.731188952922821, 9.765182495117188, 0.2702561616897583, 0.7134674787521362, 0.9768884778022766, -0.39740484952926636, 0.06361294537782669, -0.556640625, -0.76806640625, 0.2041015625, 0, 
307, 1024163193, 0.05022319406270981, -0.677065372467041, -0.06642807275056839, -0.7312078475952148, 9.812270164489746, 0.2754988968372345, 0.6860935688018799, 0.5570327639579773, -0.34998008608818054, 0.1583215892314911, -0.556884765625, -0.770751953125, 0.201171875, 0, 
308, 1024171526, 0.05021887272596359, -0.6770524382591248, -0.06639983505010605, -0.7312225103378296, 9.801261901855469, 0.20625223219394684, 0.8100523352622986, 0.28289639949798584, -0.45086175203323364, 0.15807825326919556, -0.554443359375, -0.767333984375, 0.200439453125, 0, 
309, 1024179859, 0.05016399919986725, -0.6770482063293457, -0.06633920222520828, -0.731235682964325, 9.762837409973145, 0.19425727427005768, 0.8018693923950195, -0.44919684529304504, -0.5766276121139526, -0.01990225911140442, -0.56103515625, -0.76708984375, 0.20458984375, 0, 
310, 1024188192, 0.05012232065200806, -0.6770380735397339, -0.06630519032478333, -0.731251060962677, 9.74109935760498, 0.18200409412384033, 0.7633799910545349, -0.13736914098262787, -0.5037551522254944, -0.16364935040473938, -0.557373046875, -0.76611328125, 0.2041015625, 0, 
311, 1024196525, 0.050087179988622665, -0.6770424246788025, -0.0662773996591568, -0.7312519550323486, 9.761728286743164, 0.1292661726474762, 0.7779360413551331, 0.06945300102233887, -0.7835906744003296, -0.1102949008345604, -0.553466796875, -0.765625, 0.20068359375, 0, 
312, 1024204858, 0.05006951838731766, -0.677051305770874, -0.0662841796875, -0.7312443256378174, 9.759088516235352, 0.10235718637704849, 0.7832720875740051, 0.5448275208473206, -0.9132754802703857, -0.2654659152030945, -0.556884765625, -0.765625, 0.2021484375, 0, 
313, 1024213191, 0.050075042992830276, -0.6770462393760681, -0.06631699204444885, -0.7312456965446472, 9.760275840759277, 0.17297719419002533, 0.7893233895301819, 1.062734603881836, -0.6888563632965088, -0.2745205760002136, -0.557861328125, -0.76806640625, 0.207275390625, 0, 
314, 1024221524, 0.05008377507328987, -0.6770362854003906, -0.06633158028125763, -0.7312529683113098, 9.755232810974121, 0.29415351152420044, 0.7222154140472412, 0.9389281868934631, -0.5641279220581055, -0.09477267414331436, -0.555908203125, -0.76611328125, 0.204833984375, 0, 
315, 1024229857, 0.050127431750297546, -0.6770269870758057, -0.06638824939727783, -0.731253445148468, 9.706477165222168, 0.3439619243144989, 0.6433088779449463, 1.663170576095581, -0.6368979215621948, -0.11564826965332031, -0.559326171875, -0.769775390625, 0.205078125, 0, 
316, 1024238190, 0.05017753317952156, -0.6770285367965698, -0.06647033244371414, -0.7312411665916443, 9.744193077087402, 0.31224334239959717, 0.6436872482299805, 2.002840995788574, -0.8706790208816528, -0.2850607633590698, -0.557373046875, -0.766845703125, 0.201904296875, 0, 
317, 1024246523, 0.05019903555512428, -0.6770216226577759, -0.06652728468179703, -0.7312408685684204, 9.789695739746094, 0.2678811252117157, 0.6669239401817322, 1.4581286907196045, -0.687358021736145, -0.33887630701065063, -0.553955078125, -0.7705078125, 0.2001953125, 0, 
318, 1024254856, 0.050224967300891876, -0.6769939661026001, -0.06657684594392776, -0.7312601804733276, 9.769710540771484, 0.2561289966106415, 0.7490814924240112, 1.2632811069488525, -0.2890053987503052, -0.2870331108570099, -0.55712890625, -0.7705078125, 0.20458984375, 0, 
319, 1024263189, 0.05022183060646057, -0.676974356174469, -0.06659121811389923, -0.7312772274017334, 9.754239082336426, 0.24233831465244293, 0.7531943917274475, 0.7930423021316528, -0.3918849229812622, -0.21381482481956482, -0.5595703125, -0.766845703125, 0.204833984375, 0, 
320, 1024271522, 0.05019277706742287, -0.6769706010818481, -0.06658804416656494, -0.7312829494476318, 9.766777992248535, 0.2692401707172394, 0.7665272355079651, 0.32645338773727417, -0.6651888489723206, -0.30938151478767395, -0.55859375, -0.768310546875, 0.204345703125, 0, 
321, 1024279855, 0.050171494483947754, -0.6769652366638184, -0.06659596413373947, -0.7312886714935303, 9.741779327392578, 0.27687275409698486, 0.768437385559082, 0.5600424408912659, -0.6530861258506775, -0.3146708607673645, -0.55615234375, -0.767578125, 0.201171875, 0, 
322, 1024288188, 0.05016930401325226, -0.6769599318504333, -0.06663133203983307, -0.7312905192375183, 9.737923622131348, 0.2564147114753723, 0.7786509990692139, 0.8491246700286865, -0.6916611194610596, -0.40567827224731445, -0.55615234375, -0.768310546875, 0.201904296875, 0, 
323, 1024296521, 0.05014018714427948, -0.676967978477478, -0.0666537955403328, -0.7312830686569214, 9.729546546936035, 0.2603345215320587, 0.7118076682090759, 0.6370643973350525, -0.9264668226242065, -0.5089291930198669, -0.556884765625, -0.7685546875, 0.205810546875, 0, 
324, 1024304854, 0.050122037529945374, -0.6769673824310303, -0.0666864812374115, -0.7312817573547363, 9.76134204864502, 0.2705566883087158, 0.7314715385437012, 0.8043895363807678, -0.7774817943572998, -0.5232347846031189, -0.557861328125, -0.768310546875, 0.20556640625, 0, 
325, 1024313187, 0.05013129860162735, -0.6769574880599976, -0.06673534214496613, -0.7312857508659363, 9.789652824401855, 0.2819862365722656, 0.659384548664093, 1.2602587938308716, -0.6249616742134094, -0.3927174508571625, -0.55859375, -0.7685546875, 0.203857421875, 0, 
326, 1024321520, 0.0501629076898098, -0.6769577264785767, -0.06679964065551758, -0.7312775254249573, 9.779838562011719, 0.25774192810058594, 0.695085883140564, 1.6767973899841309, -0.8249576687812805, -0.3068329095840454, -0.556884765625, -0.769287109375, 0.203857421875, 0, 
327, 1024329853, 0.05017152801156044, -0.6769542098045349, -0.0668344721198082, -0.7312770485877991, 9.756285667419434, 0.26857468485832214, 0.7428941130638123, 1.1133099794387817, -0.7202466726303101, -0.25990763306617737, -0.554931640625, -0.76611328125, 0.20263671875, 0, 
328, 1024338186, 0.05018826574087143, -0.6769371628761292, -0.06685082614421844, -0.7312902212142944, 9.770218849182129, 0.2639613747596741, 0.7448899149894714, 1.0070619583129883, -0.4322658181190491, -0.04244278371334076, -0.553955078125, -0.767333984375, 0.200439453125, 0, 
329, 1024346519, 0.05020222067832947, -0.6769086122512817, -0.0668681412935257, -0.7313141226768494, 9.756585121154785, 0.2885671555995941, 0.665178656578064, 0.9811660647392273, -0.22427822649478912, -0.08229852467775345, -0.55615234375, -0.767578125, 0.201171875, 0, 
330, 1024354852, 0.05022977292537689, -0.6768938899040222, -0.0668913796544075, -0.731323778629303, 9.742250442504883, 0.3251110315322876, 0.6568527221679688, 1.1558295488357544, -0.4837760627269745, 0.0036756431218236685, -0.55712890625, -0.767822265625, 0.207275390625, 0, 
331, 1024363185, 0.050280943512916565, -0.67686927318573, -0.06692218035459518, -0.731340229511261, 9.739775657653809, 0.331570029258728, 0.7131742238998413, 1.4679901599884033, -0.3088820278644562, 0.17377977073192596, -0.55712890625, -0.76708984375, 0.20361328125, 0, 
332, 1024371518, 0.05035736411809921, -0.6768428087234497, -0.06699000298976898, -0.7313532829284668, 9.74785327911377, 0.30305200815200806, 0.6918609738349915, 1.7587629556655884, -0.32778534293174744, 0.04427420347929001, -0.555419921875, -0.768310546875, 0.203857421875, 0, 
333, 1024379851, 0.050403669476509094, -0.6768269538879395, -0.0670299381017685, -0.7313610911369324, 9.77644157409668, 0.25946223735809326, 0.7524075508117676, 1.5168877840042114, -0.48782315850257874, 0.05469919741153717, -0.558837890625, -0.76904296875, 0.2021484375, 0, 
334, 1024388184, 0.050430405884981155, -0.6768062710762024, -0.06705449521541595, -0.731376051902771, 9.77395248413086, 0.2825086712837219, 0.7598465085029602, 1.1834160089492798, -0.37699028849601746, -0.023129653185606003, -0.556884765625, -0.767578125, 0.20263671875, 0, 
335, 1024396517, 0.05047603324055672, -0.6767893433570862, -0.067082479596138, -0.7313859462738037, 9.758466720581055, 0.27250900864601135, 0.7447897791862488, 1.38738214969635, -0.45065686106681824, 0.15695121884346008, -0.556396484375, -0.771484375, 0.199951171875, 0, 
336, 1024404850, 0.0504927895963192, -0.6767758131027222, -0.06708622723817825, -0.7313971519470215, 9.752429008483887, 0.2362801432609558, 0.7530727386474609, 0.8618805408477783, -0.47701385617256165, 0.07854604721069336, -0.559814453125, -0.768798828125, 0.204833984375, 0, 
337, 1024413183, 0.05049300193786621, -0.6767568588256836, -0.06708162277936935, -0.7314150929450989, 9.767664909362793, 0.2668657600879669, 0.7630367279052734, 0.6324538588523865, -0.3734555244445801, -0.004841090179979801, -0.557373046875, -0.76806640625, 0.203369140625, 0, 
338, 1024421516, 0.05049079656600952, -0.6767359972000122, -0.06708096712827682, -0.7314345836639404, 9.724390029907227, 0.3272572159767151, 0.7724356651306152, 0.6478864550590515, -0.3407333791255951, -0.08433486521244049, -0.5537109375, -0.769775390625, 0.1982421875, 0, 
339, 1024429849, 0.05049285665154457, -0.6767174005508423, -0.06708627194166183, -0.7314510941505432, 9.74710750579834, 0.32992443442344666, 0.6797130703926086, 0.7493060231208801, -0.39709749817848206, -0.07617674767971039, -0.557861328125, -0.7705078125, 0.203857421875, 0, 
340, 1024438182, 0.050491154193878174, -0.6767094731330872, -0.06708485633134842, -0.7314586639404297, 9.771363258361816, 0.32924535870552063, 0.7058926224708557, 0.6000006198883057, -0.5820834636688232, -0.05553165823221207, -0.556884765625, -0.768798828125, 0.2060546875, 0, 
341, 1024446515, 0.05047479271888733, -0.676690936088562, -0.06705891340970993, -0.7314793467521667, 9.777692794799805, 0.3176005184650421, 0.7249191999435425, 0.2599332928657532, -0.3533099591732025, 0.027125472202897072, -0.555419921875, -0.76904296875, 0.203369140625, 0, 
342, 1024454848, 0.050489768385887146, -0.6766817569732666, -0.06705810129642487, -0.7314868569374084, 9.74979019165039, 0.2572806179523468, 0.757149875164032, 0.7557607889175415, -0.5555471181869507, 0.10549221932888031, -0.559326171875, -0.765380859375, 0.20556640625, 0, 
343, 1024463181, 0.05049041658639908, -0.6766840815544128, -0.06705870479345322, -0.7314845323562622, 9.767579078674316, 0.18405695259571075, 0.7687947154045105, 0.6928265690803528, -0.7815927267074585, -0.015470997430384159, -0.556640625, -0.76904296875, 0.204345703125, 0, 
344, 1024471514, 0.05049946904182434, -0.6766796112060547, -0.06705544888973236, -0.7314883470535278, 9.757672309875488, 0.17472964525222778, 0.7249191999435425, 0.8779151439666748, -0.6348745226860046, 0.0920959934592247, -0.554931640625, -0.76611328125, 0.20263671875, 0, 
345, 1024479847, 0.05056504160165787, -0.6766603589057922, -0.0671183243393898, -0.7314958572387695, 9.746967315673828, 0.1518080085515976, 0.7824282050132751, 1.9287902116775513, -0.45516493916511536, 0.03208182752132416, -0.555419921875, -0.767578125, 0.20361328125, 0, 
346, 1024488180, 0.050632867962121964, -0.6766489744186401, -0.06719019263982773, -0.731495201587677, 9.766084671020508, 0.18814906477928162, 0.7421736121177673, 1.9432368278503418, -0.6142038106918335, -0.038651883602142334, -0.557861328125, -0.76806640625, 0.2021484375, 0, 
347, 1024496513, 0.050707459449768066, -0.6766365766525269, -0.06727101653814316, -0.731494128704071, 9.762743949890137, 0.3003354072570801, 0.7745978832244873, 2.196868896484375, -0.6079026460647583, -0.032120250165462494, -0.556640625, -0.7685546875, 0.202392578125, 0, 
348, 1024504846, 0.05078256130218506, -0.676621675491333, -0.06733457744121552, -0.7314968705177307, 9.746624946594238, 0.3949034512042999, 0.7588639259338379, 2.0912868976593018, -0.5284216403961182, 0.11858108639717102, -0.5556640625, -0.768798828125, 0.199951171875, 0, 
349, 1024513179, 0.05084499716758728, -0.6766144633293152, -0.06738748401403427, -0.7314942479133606, 9.768383979797363, 0.35885801911354065, 0.6759738326072693, 1.8001811504364014, -0.665560245513916, 0.11171648651361465, -0.556396484375, -0.767822265625, 0.202880859375, 0, 
350, 1024521512, 0.050850484520196915, -0.6766089200973511, -0.06741625815629959, -0.7314962148666382, 9.76441764831543, 0.3163774013519287, 0.7260349988937378, 0.988107442855835, -0.6729370951652527, -0.2560911178588867, -0.55810546875, -0.767578125, 0.2060546875, 0, 
351, 1024529845, 0.050826385617256165, -0.6766059398651123, -0.06738682836294174, -0.731503427028656, 9.762164115905762, 0.29236531257629395, 0.7320433855056763, 0.1549789160490036, -0.6386396884918213, 0.004777054768055677, -0.555419921875, -0.764892578125, 0.205078125, 0, 
352, 1024538178, 0.05080113559961319, -0.6765994429588318, -0.06736371666193008, -0.7315134406089783, 9.728689193725586, 0.22258931398391724, 0.7714698910713196, 0.23969802260398865, -0.580124020576477, -0.08446294814348221, -0.554931640625, -0.768798828125, 0.201171875, 0, 
353, 1024546511, 0.050774749368429184, -0.6766021847724915, -0.06735532730817795, -0.731513500213623, 9.74449634552002, 0.21072275936603546, 0.7558838129043579, 0.3482639193534851, -0.7800558805465698, -0.203428253531456, -0.5576171875, -0.768798828125, 0.206787109375, 0, 
354, 1024554844, 0.050757504999637604, -0.6766080856323242, -0.06737355142831802, -0.7315075993537903, 9.752050399780273, 0.19068048894405365, 0.7329732775688171, 0.6840409636497498, -0.87669837474823, -0.37079164385795593, -0.556884765625, -0.770751953125, 0.20361328125, 0, 
355, 1024563177, 0.05075596272945404, -0.676603376865387, -0.06739458441734314, -0.7315101027488708, 9.776885032653809, 0.1931052953004837, 0.6946340203285217, 0.8786835670471191, -0.6792894601821899, -0.2360863983631134, -0.554443359375, -0.766357421875, 0.20068359375, 0, 
356, 1024571510, 0.05075012147426605, -0.6765906810760498, -0.06738931685686111, -0.7315227389335632, 9.82899284362793, 0.24331825971603394, 0.7267717719078064, 0.6387549042701721, -0.4864911735057831, -0.058963969349861145, -0.556640625, -0.76953125, 0.20263671875, 0, 
357, 1024579843, 0.05074422061443329, -0.6765667200088501, -0.06739973276853561, -0.7315443754196167, 9.808714866638184, 0.2428751140832901, 0.7230454683303833, 0.7267142534255981, -0.3041946589946747, -0.21272622048854828, -0.5556640625, -0.767822265625, 0.201416015625, 0, 
358, 1024588176, 0.05071863904595375, -0.676529586315155, -0.06743612140417099, -0.7315770387649536, 9.817277908325195, 0.21752503514289856, 0.7001557350158691, 0.7837828397750854, -0.10419871658086777, -0.6904829740524292, -0.549072265625, -0.76708984375, 0.20263671875, 0, 
359, 1024596509, 0.050650063902139664, -0.6764922738075256, -0.06744042783975601, -0.7316158413887024, 9.769732475280762, 0.2688467502593994, 0.6924166679382324, 0.07480637729167938, -0.06611034274101257, -0.8104343414306641, -0.554443359375, -0.76611328125, 0.202880859375, 0, 
360, 1024604842, 0.0505644753575325, -0.6764618158340454, -0.06740972399711609, -0.7316527962684631, 9.741119384765625, 0.3561043441295624, 0.801140308380127, -0.47273632884025574, -0.13862423598766327, -0.6669434309005737, -0.55126953125, -0.767822265625, 0.203369140625, 0, 
361, 1024613175, 0.05047516152262688, -0.6764480471611023, -0.0673665702342987, -0.7316756844520569, 9.732823371887207, 0.34823617339134216, 0.8240218162536621, -0.596939742565155, -0.43759357929229736, -0.5451734066009521, -0.554931640625, -0.77001953125, 0.19921875, 0, 
362, 1024621508, 0.05038660019636154, -0.676438570022583, -0.0673350915312767, -0.7316935062408447, 9.755884170532227, 0.27758753299713135, 0.8458666205406189, -0.5051640272140503, -0.5305988788604736, -0.6571332812309265, -0.558349609375, -0.76953125, 0.20361328125, 0, 
363, 1024629841, 0.05029932036995888, -0.6764287352561951, -0.06730640679597855, -0.7317112684249878, 9.721951484680176, 0.20855560898780823, 0.7688449621200562, -0.4289359748363495, -0.529984176158905, -0.6521127820014954, -0.55615234375, -0.76708984375, 0.203857421875, 0, 
364, 1024638174, 0.050263017416000366, -0.6764190793037415, -0.06733228266239166, -0.7317200899124146, 9.7271089553833, 0.14386488497257233, 0.732200562953949, 0.6130127310752869, -0.6041373610496521, -0.6537521481513977, -0.556640625, -0.771484375, 0.203369140625, 0, 
365, 1024646507, 0.050256311893463135, -0.676418662071228, -0.06739812344312668, -0.7317149043083191, 9.729745864868164, 0.13821956515312195, 0.699159562587738, 1.2850021123886108, -0.8295938968658447, -0.6967840790748596, -0.551513671875, -0.7705078125, 0.208740234375, 0, 
366, 1024654840, 0.05028047412633896, -0.6764190196990967, -0.06748003512620926, -0.7317055463790894, 9.774212837219238, 0.21879158914089203, 0.6863359808921814, 1.7954680919647217, -0.85684734582901, -0.5422021150588989, -0.55615234375, -0.77197265625, 0.202880859375, 0, 
367, 1024663173, 0.05029928684234619, -0.6764106154441833, -0.06754003465175629, -0.7317066192626953, 9.758967399597168, 0.35071781277656555, 0.686551034450531, 1.4624574184417725, -0.6633318066596985, -0.3960472643375397, -0.553466796875, -0.76806640625, 0.20361328125, 0, 
368, 1024671506, 0.05029819905757904, -0.6764145493507385, -0.06757313758134842, -0.7316998243331909, 9.747121810913086, 0.4514087736606598, 0.6730181574821472, 0.937160849571228, -0.8610224723815918, -0.35155537724494934, -0.55615234375, -0.771728515625, 0.201171875, 0, 
369, 1024679839, 0.05028238892555237, -0.6764255166053772, -0.06760066747665405, -0.7316882014274597, 9.758259773254395, 0.3569266200065613, 0.7425007224082947, 0.8132902979850769, -0.9858406186103821, -0.4167179465293884, -0.557373046875, -0.7685546875, 0.205810546875, 0, 
370, 1024688172, 0.05022097006440163, -0.6764324903488159, -0.06757067888975143, -0.7316887378692627, 9.768243789672852, 0.31127026677131653, 0.7684299349784851, -0.15656700730323792, -0.8315532207489014, -0.36317139863967896, -0.557861328125, -0.772705078125, 0.19873046875, 0, 
371, 1024696505, 0.05019412562251091, -0.6764419674873352, -0.06755228340625763, -0.7316834926605225, 9.778608322143555, 0.27946871519088745, 0.7611483335494995, 0.2429894506931305, -0.8928609490394592, -0.10681135207414627, -0.554931640625, -0.769287109375, 0.20361328125, 0, 
372, 1024704838, 0.05017619580030441, -0.6764605641365051, -0.0675341933965683, -0.7316691875457764, 9.768243789672852, 0.22973501682281494, 0.7772994637489319, 0.26332715153694153, -1.0577653646469116, -0.02430790849030018, -0.55517578125, -0.768798828125, 0.202880859375, 0, 
373, 1024713171, 0.05015498399734497, -0.6764674782752991, -0.06750847399234772, -0.7316666841506958, 9.776139259338379, 0.3312336206436157, 0.7794094085693359, 0.22119171917438507, -0.8298755884170532, 0.01433116476982832, -0.555908203125, -0.774169921875, 0.201171875, 0, 
374, 1024721504, 0.050167426466941833, -0.6764689683914185, -0.06749844551086426, -0.7316653728485107, 9.740140914916992, 0.35598310828208923, 0.761641800403595, 0.8578847646713257, -0.7352821826934814, 0.19954770803451538, -0.5546875, -0.77099609375, 0.20361328125, 0, 
375, 1024729837, 0.050195224583148956, -0.6764798760414124, -0.06752658635377884, -0.7316506505012512, 9.757851600646973, 0.33644869923591614, 0.7580655217170715, 1.2282922267913818, -0.9750313758850098, 0.018864884972572327, -0.554931640625, -0.769287109375, 0.201416015625, 0, 
376, 1024738170, 0.05018949508666992, -0.6764935851097107, -0.06753449887037277, -0.731637716293335, 9.772623062133789, 0.35099053382873535, 0.7334741353988647, 0.7888543605804443, -0.9985452890396118, -0.1379326432943344, -0.557861328125, -0.768798828125, 0.202880859375, 0, 
377, 1024746503, 0.050176091492176056, -0.6764980554580688, -0.06750313937664032, -0.7316373586654663, 9.765718460083008, 0.3623484671115875, 0.7539024353027344, 0.23686762154102325, -0.7736011147499084, 0.14165952801704407, -0.55322265625, -0.76953125, 0.203369140625, 0, 
378, 1024754836, 0.05014339089393616, -0.6765089631080627, -0.06744885444641113, -0.7316344976425171, 9.749982833862305, 0.379751592874527, 0.719826340675354, 0.05408445745706558, -0.8546444773674011, 0.17185869812965393, -0.553955078125, -0.769775390625, 0.2021484375, 0, 
379, 1024763169, 0.050113216042518616, -0.6765171885490417, -0.06739627569913864, -0.7316337823867798, 9.75298023223877, 0.3264557421207428, 0.6895269155502319, -0.13475649058818817, -0.8151730298995972, 0.1740359216928482, -0.555908203125, -0.7705078125, 0.203857421875, 0, 
380, 1024771502, 0.050042763352394104, -0.6765185594558716, -0.06729178875684738, -0.7316471338272095, 9.742329597473145, 0.3548668324947357, 0.692652702331543, -0.9202682375907898, -0.6124107241630554, 0.23089951276779175, -0.552490234375, -0.76708984375, 0.20166015625, 0, 
381, 1024779835, 0.05001413822174072, -0.6765100955963135, -0.06721749901771545, -0.7316637635231018, 9.75579833984375, 0.2742471396923065, 0.6665233373641968, -0.34279531240463257, -0.46973949670791626, 0.3651949167251587, -0.55419921875, -0.76904296875, 0.19970703125, 0, 
382, 1024788168, 0.049973003566265106, -0.6765027046203613, -0.06714122742414474, -0.7316803932189941, 9.78493881225586, 0.24893324077129364, 0.7722566723823547, -0.44709640741348267, -0.48708027601242065, 0.24555085599422455, -0.55615234375, -0.767333984375, 0.20458984375, 0, 
383, 1024796501, 0.04995281249284744, -0.6764994263648987, -0.06708595901727676, -0.731689989566803, 9.757150650024414, 0.3079441785812378, 0.7353910207748413, -0.07113072276115417, -0.5939684510231018, 0.28258901834487915, -0.557861328125, -0.76953125, 0.203125, 0, 
384, 1024804834, 0.049981702119112015, -0.6764913201332092, -0.0670795738697052, -0.7316960692405701, 9.756490707397461, 0.32691311836242676, 0.7016868591308594, 0.5162164568901062, -0.5721195936203003, 0.27341917157173157, -0.555419921875, -0.767578125, 0.203125, 0, 
385, 1024813167, 0.04996747151017189, -0.6764946579933167, -0.06702632457017899, -0.7316988110542297, 9.78736400604248, 0.3574633300304413, 0.7309132814407349, 0.006506016012281179, -0.7192092537879944, 0.3347780406475067, -0.552734375, -0.766845703125, 0.202880859375, 0, 
386, 1024821500, 0.049991682171821594, -0.6764916777610779, -0.06702420115470886, -0.7316998839378357, 9.77840805053711, 0.2572377026081085, 0.7526364326477051, 0.890709400177002, -0.6670074462890625, 0.22535403072834015, -0.556640625, -0.767578125, 0.203857421875, 0, 
387, 1024829833, 0.05001965910196304, -0.6764916181564331, -0.06702177226543427, -0.731698215007782, 9.742636680603027, 0.15430112183094025, 0.7483661770820618, 0.9168103337287903, -0.7220523953437805, 0.2869050204753876, -0.55517578125, -0.7685546875, 0.2021484375, 0, 
388, 1024838166, 0.050025589764118195, -0.6764939427375793, -0.06701064854860306, -0.7316969037055969, 9.795310974121094, 0.17746202647686005, 0.7335311770439148, 0.6466441750526428, -0.7530328631401062, 0.13451313972473145, -0.5556640625, -0.766357421875, 0.201416015625, 0, 
389, 1024846499, 0.05008484050631523, -0.6764906048774719, -0.06703576445579529, -0.7316936254501343, 9.809366226196289, 0.2604493200778961, 0.7746314406394958, 1.4895061254501343, -0.6944530606269836, 0.3417835235595703, -0.555419921875, -0.771240234375, 0.20166015625, 0, 
390, 1024854832, 0.050127215683460236, -0.6764829158782959, -0.0670224204659462, -0.7316989898681641, 9.769681930541992, 0.2743256390094757, 0.7606263160705566, 1.111311912536621, -0.5507828593254089, 0.518291175365448, -0.553466796875, -0.769775390625, 0.20458984375, 0, 
391, 1024863165, 0.05015033483505249, -0.6764723658561707, -0.06700631976127625, -0.7317086458206177, 9.75828742980957, 0.24841850996017456, 0.763437032699585, 0.7323493957519531, -0.5064446330070496, 0.3476491868495941, -0.554931640625, -0.7705078125, 0.199462890625, 0, 
392, 1024871498, 0.05019284784793854, -0.6764684915542603, -0.06701891869306564, -0.7317081093788147, 9.717666625976562, 0.1738927662372589, 0.8231491446495056, 1.2395880222320557, -0.6649454832077026, 0.2772356867790222, -0.55712890625, -0.77001953125, 0.202880859375, 0, 
393, 1024879831, 0.05027713254094124, -0.676470935344696, -0.06709461659193039, -0.7316932082176208, 9.709585189819336, 0.09267893433570862, 0.8142015337944031, 2.238184690475464, -0.8728819489479065, 0.13630616664886475, -0.55517578125, -0.764892578125, 0.20068359375, 0, 
394, 1024888164, 0.050315260887145996, -0.6764724254608154, -0.06713470071554184, -0.7316854596138, 9.735941886901855, 0.09725005179643631, 0.820087730884552, 1.4243179559707642, -0.8124067187309265, -0.01859593577682972, -0.554443359375, -0.76904296875, 0.204345703125, 0, 
395, 1024896497, 0.05035678297281265, -0.6764771342277527, -0.06715896725654602, -0.7316760420799255, 9.746957778930664, 0.21467827260494232, 0.8102383017539978, 1.3164050579071045, -0.8483178019523621, 0.18341073393821716, -0.557373046875, -0.7705078125, 0.203369140625, 0, 
396, 1024904830, 0.05040443688631058, -0.6764904856681824, -0.06720130890607834, -0.7316564917564392, 9.761754989624023, 0.27725279331207275, 0.8171190023422241, 1.5981874465942383, -1.0294618606567383, 0.08067203313112259, -0.556884765625, -0.767822265625, 0.203369140625, 0, 
397, 1024913163, 0.050447214394807816, -0.6765140891075134, -0.06728965789079666, -0.7316235303878784, 9.745094299316406, 0.23384304344654083, 0.7970563173294067, 1.980556845664978, -1.299384593963623, -0.3660530149936676, -0.554931640625, -0.769287109375, 0.201416015625, 0, 
398, 1024921496, 0.050440628081560135, -0.6765344738960266, -0.06733465194702148, -0.7316010594367981, 9.817292213439941, 0.1990945041179657, 0.7691028714179993, 1.2036000490188599, -1.1815847158432007, -0.47516965866088867, -0.554931640625, -0.771728515625, 0.20263671875, 0, 
399, 1024929829, 0.05043116584420204, -0.6765459179878235, -0.06735263019800186, -0.7315895557403564, 9.768265724182129, 0.157355397939682, 0.7689735293388367, 0.7753044962882996, -0.9784126281738281, -0.2635192275047302, -0.556396484375, -0.77001953125, 0.2041015625, 0, 
400, 1024938162, 0.05040982365608215, -0.6765865683555603, -0.06736738979816437, -0.731552004814148, 9.718188285827637, 0.16869980096817017, 0.7324582934379578, 0.588371753692627, -1.5213574171066284, -0.3274267613887787, -0.554931640625, -0.768310546875, 0.200927734375, 0, 
401, 1024946495, 0.05034942179918289, -0.676628589630127, -0.06737036257982254, -0.7315170168876648, 9.733868598937988, 0.24163737893104553, 0.7159925103187561, 0.15157222747802734, -1.5408241748809814, -0.5905361771583557, -0.55810546875, -0.768310546875, 0.201416015625, 0, 
402, 1024954828, 0.050296805799007416, -0.6766722202301025, -0.06737088412046432, -0.7314802408218384, 9.721685409545898, 0.3436511158943176, 0.7116290926933289, 0.14805027842521667, -1.56460702419281, -0.5077124834060669, -0.55517578125, -0.769287109375, 0.205810546875, 0, 
403, 1024963161, 0.05023149028420448, -0.6767120957374573, -0.06737937033176422, -0.731447160243988, 9.747393608093262, 0.34822186827659607, 0.6934896111488342, 0.1606268733739853, -1.5101256370544434, -0.6953880190849304, -0.55615234375, -0.766845703125, 0.201416015625, 0, 
404, 1024971494, 0.050219468772411346, -0.6767458319664001, -0.06741344183683395, -0.7314136624336243, 9.746306419372559, 0.3187807500362396, 0.7305055260658264, 0.5068801641464233, -1.4299020767211914, -0.4506184756755829, -0.55615234375, -0.766845703125, 0.204345703125, 0, 
405, 1024979827, 0.05019599199295044, -0.6767715811729431, -0.06744221597909927, -0.7313887476921082, 9.763588905334473, 0.2729027271270752, 0.7603331208229065, 0.7561193704605103, -1.2682886123657227, -0.48264896869659424, -0.557861328125, -0.77001953125, 0.203125, 0, 
406, 1024988160, 0.050161685794591904, -0.6767948269844055, -0.06746045500040054, -0.7313679456710815, 9.810453414916992, 0.2657209634780884, 0.729525625705719, 0.8069636821746826, -1.1954163312911987, -0.4923056364059448, -0.55322265625, -0.76904296875, 0.203857421875, 0, 
407, 1024996493, 0.050137609243392944, -0.6768193244934082, -0.06747724860906601, -0.7313452959060669, 9.795024871826172, 0.3371778726577759, 0.7672139406204224, 0.6296876072883606, -1.2262557744979858, -0.3791418969631195, -0.556396484375, -0.767333984375, 0.20556640625, 0, 
408, 1025004826, 0.05010410398244858, -0.6768462657928467, -0.06747612357139587, -0.7313227653503418, 9.763008117675781, 0.37119677662849426, 0.7673999071121216, 0.35574325919151306, -1.2436479330062866, -0.32207340002059937, -0.55615234375, -0.768798828125, 0.204345703125, 0, 
409, 1025013159, 0.050052933394908905, -0.6768785715103149, -0.067458376288414, -0.7312979698181152, 9.729513168334961, 0.33368727564811707, 0.7320291996002197, 0.02613932639360428, -1.3252806663513184, -0.3207414448261261, -0.553466796875, -0.768798828125, 0.207275390625, 0, 
410, 1025021492, 0.05001454055309296, -0.6769108772277832, -0.0674649104475975, -0.7312700748443604, 9.713088989257812, 0.26894688606262207, 0.750612199306488, 0.33648136258125305, -1.3585021495819092, -0.43797776103019714, -0.557373046875, -0.766845703125, 0.204833984375, 0, 
411, 1025029825, 0.04994674026966095, -0.6769418120384216, -0.06745709478855133, -0.7312467098236084, 9.725462913513184, 0.1618974506855011, 0.769667387008667, -0.029277069494128227, -1.3200297355651855, -0.5827239155769348, -0.555908203125, -0.76953125, 0.206787109375, 0, 
412, 1025038158, 0.04989543557167053, -0.6769711971282959, -0.06745649874210358, -0.7312231063842773, 9.742945671081543, 0.13504570722579956, 0.7118009328842163, 0.1096673384308815, -1.297822117805481, -0.5091085433959961, -0.554443359375, -0.76904296875, 0.201416015625, 0, 
413, 1025046491, 0.04986252635717392, -0.6770053505897522, -0.0674915611743927, -0.7311906218528748, 9.718994140625, 0.14939090609550476, 0.745892345905304, 0.7330921292304993, -1.435754656791687, -0.6225539445877075, -0.55517578125, -0.77099609375, 0.203369140625, 0, 
414, 1025054824, 0.049811042845249176, -0.6770467162132263, -0.06750970333814621, -0.7311540842056274, 9.724177360534668, 0.2880670726299286, 0.7264884114265442, 0.31107205152511597, -1.5499941110610962, -0.6628963947296143, -0.5556640625, -0.768798828125, 0.20556640625, 0, 
415, 1025063157, 0.04977279156446457, -0.6770762801170349, -0.06751912087202072, -0.731128454208374, 9.70834732055664, 0.46914082765579224, 0.666194498538971, 0.4233136773109436, -1.3106292486190796, -0.4478393495082855, -0.556884765625, -0.76806640625, 0.205322265625, 0, 
416, 1025071490, 0.04971804842352867, -0.6771189570426941, -0.0675274208188057, -0.7310919165611267, 9.765044212341309, 0.5430185198783875, 0.6061411499977112, 0.13199014961719513, -1.5632750988006592, -0.6057894229888916, -0.555419921875, -0.7724609375, 0.20556640625, 0, 
417, 1025079823, 0.049631938338279724, -0.6771577596664429, -0.06749290227890015, -0.7310650944709778, 9.794795989990234, 0.5090821385383606, 0.6483980417251587, -0.4703670144081116, -1.4310033321380615, -0.5109399557113647, -0.553466796875, -0.765869140625, 0.202880859375, 0, 
418, 1025088156, 0.049525998532772064, -0.6771918535232544, -0.06742171943187714, -0.7310472130775452, 9.822697639465332, 0.4249865710735321, 0.6858432292938232, -0.9571400284767151, -1.289587140083313, -0.3871975839138031, -0.55517578125, -0.768310546875, 0.207763671875, 0, 
419, 1025096489, 0.049466121941804886, -0.6772091388702393, -0.0673561617732048, -0.7310413718223572, 9.776956558227539, 0.2955125570297241, 0.7254914045333862, -0.5429577231407166, -0.9734305739402771, 0.009426037780940533, -0.557861328125, -0.767578125, 0.20703125, 0, 
420, 1025104822, 0.04943188279867172, -0.6772324442863464, -0.06730541586875916, -0.7310266494750977, 9.782042503356934, 0.23662319779396057, 0.7430373430252075, -0.39750730991363525, -1.1099159717559814, 0.10713153332471848, -0.555419921875, -0.771728515625, 0.203125, 0, 
421, 1025113155, 0.04940709099173546, -0.6772428750991821, -0.06726066768169403, -0.7310227751731873, 9.801191329956055, 0.3230009377002716, 0.6977670788764954, -0.003893363755196333, -0.8680152297019958, 0.16061407327651978, -0.5537109375, -0.76904296875, 0.20556640625, 0, 
422, 1025121488, 0.04945828765630722, -0.6772424578666687, -0.0672873929142952, -0.7310173511505127, 9.800832748413086, 0.39192572236061096, 0.6557225584983826, 1.0645147562026978, -0.7597182393074036, 0.20664282143115997, -0.5595703125, -0.76904296875, 0.201416015625, 0, 
423, 1025129821, 0.04947708919644356, -0.6772521734237671, -0.0672975406050682, -0.7310060858726501, 9.812856674194336, 0.32100528478622437, 0.6475898027420044, 0.9609307646751404, -0.9265180826187134, 0.09235212951898575, -0.556884765625, -0.769775390625, 0.203369140625, 0, 
424, 1025138154, 0.0494394525885582, -0.6772491931915283, -0.06724420189857483, -0.731016218662262, 9.766992568969727, 0.2333686500787735, 0.706235945224762, -0.11049981415271759, -0.602728545665741, 0.08213204145431519, -0.5546875, -0.768310546875, 0.205078125, 0, 
425, 1025146487, 0.049359261989593506, -0.6772357821464539, -0.06715625524520874, -0.731042206287384, 9.711750984191895, 0.19070909917354584, 0.7548681497573853, -0.9665018916130066, -0.3724053204059601, -0.03634659945964813, -0.55810546875, -0.76806640625, 0.2060546875, 0, 
426, 1025154820, 0.049297451972961426, -0.6772284507751465, -0.06706935167312622, -0.7310610413551331, 9.713088989257812, 0.2223389744758606, 0.6774243116378784, -0.7643543481826782, -0.48036935925483704, 0.13517911732196808, -0.55419921875, -0.768798828125, 0.20068359375, 0, 
427, 1025163153, 0.0492154061794281, -0.677240252494812, -0.06699718534946442, -0.7310622334480286, 9.798830032348633, 0.1901087611913681, 0.647253692150116, -0.8177344799041748, -0.8695776462554932, -0.1616770327091217, -0.556884765625, -0.768798828125, 0.20361328125, 0, 
428, 1025171486, 0.04913197457790375, -0.6772428750991821, -0.06694863736629486, -0.7310699224472046, 9.827576637268066, 0.171796515583992, 0.7202767729759216, -0.9538740515708923, -0.7393548488616943, -0.451041042804718, -0.556396484375, -0.76904296875, 0.203857421875, 0, 
429, 1025179819, 0.04904875159263611, -0.6772415041923523, -0.0669005960226059, -0.7310811877250671, 9.78900146484375, 0.21392007172107697, 0.7638020515441895, -0.5875905156135559, -0.6594897508621216, -0.41792184114456177, -0.553466796875, -0.768798828125, 0.204345703125, 0, 
430, 1025188152, 0.04899819940328598, -0.6772381067276001, -0.06687561422586441, -0.7310901284217834, 9.694812774658203, 0.21517182886600494, 0.72232985496521, -0.27653127908706665, -0.6514980792999268, -0.33598193526268005, -0.555908203125, -0.768798828125, 0.20166015625, 0, 
431, 1025196485, 0.048922449350357056, -0.6772525310516357, -0.06686613708734512, -0.7310827374458313, 9.72848129272461, 0.2544051706790924, 0.7589094638824463, -0.12360149621963501, -1.0110836029052734, -0.6747941970825195, -0.555908203125, -0.770263671875, 0.204345703125, 0, 
432, 1025204818, 0.048876337707042694, -0.6772660613059998, -0.06688782572746277, -0.7310712933540344, 9.767850875854492, 0.18102429807186127, 0.7859258651733398, 0.45506247878074646, -1.0327531099319458, -0.6810952425003052, -0.5546875, -0.7685546875, 0.202880859375, 0, 
433, 1025213151, 0.04883970320224762, -0.6772745251655579, -0.06693078577518463, -0.7310619354248047, 9.821175575256348, 0.15799938142299652, 0.7601685523986816, 0.7740494608879089, -0.9711125493049622, -0.7732425928115845, -0.554443359375, -0.767333984375, 0.2060546875, 0, 
434, 1025221484, 0.048818543553352356, -0.6772714853286743, -0.06696946918964386, -0.731062650680542, 9.77127742767334, 0.24280326068401337, 0.7124732136726379, 0.877479612827301, -0.7395597696304321, -0.6107714176177979, -0.556884765625, -0.771484375, 0.204833984375, 0, 
435, 1025229817, 0.0488288551568985, -0.6772724986076355, -0.06703562289476395, -0.731054961681366, 9.750161170959473, 0.26554855704307556, 0.7900128960609436, 1.4483184814453125, -0.8513402938842773, -0.5254504084587097, -0.55419921875, -0.770751953125, 0.2041015625, 0, 
436, 1025238150, 0.04881494492292404, -0.6772754788398743, -0.0670963004231453, -0.7310475707054138, 9.727672576904297, 0.32282108068466187, 0.740738570690155, 1.3358464241027832, -0.8792341947555542, -0.7196319103240967, -0.554443359375, -0.770263671875, 0.205078125, 0, 
