PacketCounter,SampleTimeFine,Quat_W,Quat_X,Quat_Y,Quat_Z,Acc_X,Acc_Y,Acc_Z,Gyr_X,Gyr_Y,Gyr_Z,Mag_X,Mag_Y,Mag_Z,Status,
0, 1049970494, 0.27676743268966675, 0.6854207515716553, -0.2819545567035675, 0.6116339564323425, 0, 0, 0, 0, 0, 0, -0.614013671875, -0.35986328125, -0.535888671875, 0, 
1, 1049978827, 0.2768653333187103, 0.685438871383667, -0.28198325634002686, 0.6115560531616211, 9.769110679626465, 0.35396742820739746, -1.0563567876815796, -0.872869074344635, -2.4919960498809814, 0.1917225569486618, -0.614013671875, -0.36328125, -0.537841796875, 0, 
2, 1049987160, 0.27695709466934204, 0.6854652762413025, -0.28198328614234924, 0.611484944820404, 9.726415634155273, 0.28413692116737366, -0.9644089937210083, -0.7091684937477112, -2.426910638809204, 0.01670048199594021, -0.614501953125, -0.36279296875, -0.538818359375, 0, 
3, 1049995493, 0.27707991003990173, 0.6855044364929199, -0.28197336196899414, 0.6113900542259216, 9.74608325958252, 0.3109630346298218, -1.0168644189834595, -0.7696437835693359, -2.5845401287078857, -0.5285881161689758, -0.615966796875, -0.36376953125, -0.536376953125, 0, 
4, 1050003826, 0.27720823884010315, 0.6855489015579224, -0.28196659684181213, 0.6112850308418274, 9.746270179748535, 0.3841933310031891, -1.0810500383377075, -0.9258137941360474, -2.7271862030029297, -0.5683926939964294, -0.617919921875, -0.36279296875, -0.534912109375, 0, 
5, 1050012159, 0.2773473560810089, 0.6855770349502563, -0.28197047114372253, 0.6111885905265808, 9.71980094909668, 0.36475875973701477, -1.0849688053131104, -1.0876188278198242, -2.4949159622192383, -0.4961093068122864, -0.614990234375, -0.36474609375, -0.538330078125, 0, 
6, 1050020492, 0.2775014340877533, 0.6855822205543518, -0.2819775938987732, 0.6111095547676086, 9.657760620117188, 0.3686351180076599, -0.925472617149353, -1.2956318855285645, -2.1040940284729004, -0.4070741832256317, -0.615478515625, -0.36181640625, -0.538330078125, 0, 
7, 1050028825, 0.27765676379203796, 0.6856013536453247, -0.28199243545532227, 0.6110106706619263, 9.680717468261719, 0.34034886956214905, -0.9501075148582458, -1.3746776580810547, -2.4218645095825195, -0.5051255226135254, -0.614990234375, -0.36376953125, -0.538330078125, 0, 
8, 1050037158, 0.27781903743743896, 0.6856048107147217, -0.2820093035697937, 0.6109253168106079, 9.652474403381348, 0.3813427686691284, -0.9605323076248169, -1.4796446561813354, -2.1539649963378906, -0.40207943320274353, -0.615478515625, -0.3603515625, -0.538818359375, 0, 
9, 1050045491, 0.2779654860496521, 0.6856075525283813, -0.28204214572906494, 0.6108404994010925, 9.619623184204102, 0.35810160636901855, -0.8144029378890991, -1.4507519006729126, -2.2559099197387695, -0.14199252426624298, -0.613525390625, -0.361328125, -0.537841796875, 0, 
10, 1050053824, 0.2781049907207489, 0.6856186389923096, -0.2820734679698944, 0.610750138759613, 9.655509948730469, 0.34419116377830505, -0.9073272347450256, -1.3272398710250854, -2.40521502494812, -0.12803274393081665, -0.614013671875, -0.36328125, -0.537841796875, 0, 
11, 1050062157, 0.27822157740592957, 0.6856514811515808, -0.2820931375026703, 0.6106510162353516, 9.649982452392578, 0.3729899525642395, -0.9209232330322266, -1.0001206398010254, -2.71010160446167, -0.18786759674549103, -0.612548828125, -0.36279296875, -0.535888671875, 0, 
12, 1050070490, 0.27832671999931335, 0.6856939196586609, -0.2821033000946045, 0.6105505228042603, 9.684317588806152, 0.3974100351333618, -0.9445925354957581, -0.9445633292198181, -2.823982000350952, -0.1783134788274765, -0.614990234375, -0.365234375, -0.537841796875, 0, 
13, 1050078823, 0.27844563126564026, 0.6857224106788635, -0.28212350606918335, 0.6104549765586853, 9.697075843811035, 0.39049598574638367, -0.9749088287353516, -1.028117060661316, -2.6304924488067627, -0.17257589101791382, -0.614990234375, -0.36376953125, -0.538330078125, 0, 
14, 1050087156, 0.27859535813331604, 0.6857336759567261, -0.2821691632270813, 0.6103529334068298, 9.691449165344238, 0.37445956468582153, -0.9973083734512329, -1.546728491783142, -2.533132791519165, -0.12849381566047668, -0.615966796875, -0.3623046875, -0.535888671875, 0, 
15, 1050095489, 0.2787688076496124, 0.685753345489502, -0.2822301983833313, 0.6102234721183777, 9.725811958312988, 0.3837037682533264, -1.0324232578277588, -2.052865982055664, -2.822983503341675, -0.3397088348865509, -0.614501953125, -0.36181640625, -0.539306640625, 0, 
16, 1050103822, 0.27896860241889954, 0.6857870817184448, -0.2823171019554138, 0.6100540161132812, 9.695138931274414, 0.4264375567436218, -0.9993406534194946, -2.5430710315704346, -3.318132162094116, -0.5034605860710144, -0.613037109375, -0.36669921875, -0.538818359375, 0, 
17, 1050112155, 0.27916574478149414, 0.6858288049697876, -0.28239375352859497, 0.6098815202713013, 9.698226928710938, 0.3566236197948456, -0.9842386245727539, -2.4883077144622803, -3.382577896118164, -0.6426995992660522, -0.613037109375, -0.36083984375, -0.535888671875, 0, 
18, 1050120488, 0.2793896496295929, 0.6858857870101929, -0.28248241543769836, 0.6096738576889038, 9.674088478088379, 0.3859773576259613, -0.9650008678436279, -2.6322598457336426, -3.7779335975646973, -0.948584794998169, -0.611572265625, -0.3642578125, -0.533935546875, 0, 
19, 1050128821, 0.2795984745025635, 0.6859636902809143, -0.28256773948669434, 0.6094511151313782, 9.678279876708984, 0.3927910029888153, -0.907459557056427, -2.7269551753997803, -4.1451640129089355, -0.9911299347877502, -0.612548828125, -0.3671875, -0.534912109375, 0, 
20, 1050137154, 0.2798130512237549, 0.6860427260398865, -0.28265076875686646, 0.6092247366905212, 9.700762748718262, 0.3661164343357086, -0.9694603681564331, -2.577650308609009, -4.158355712890625, -1.0723272562026978, -0.613525390625, -0.365234375, -0.537841796875, 0, 
21, 1050145487, 0.27999821305274963, 0.6861385703086853, -0.28272154927253723, 0.6089990139007568, 9.688019752502441, 0.4101371765136719, -0.9439953565597534, -2.326169490814209, -4.360246658325195, -1.0120311975479126, -0.613037109375, -0.365234375, -0.535888671875, 0, 
22, 1050153820, 0.28019601106643677, 0.6862252354621887, -0.2828059494495392, 0.6087712645530701, 9.699877738952637, 0.3953728675842285, -0.9497228860855103, -1.9597067832946777, -4.291268348693848, -0.9998902082443237, -0.614013671875, -0.36669921875, -0.533935546875, 0, 
23, 1050162153, 0.2803455591201782, 0.6863456964492798, -0.2828488051891327, 0.6085467338562012, 9.785340309143066, 0.4113828241825104, -1.0437835454940796, -1.6547181606292725, -4.5842695236206055, -1.0688692331314087, -0.611572265625, -0.36572265625, -0.533935546875, 0, 
24, 1050170486, 0.2805105447769165, 0.686450719833374, -0.28290125727653503, 0.6083274483680725, 9.804377555847168, 0.381635844707489, -1.1269569396972656, -1.735223650932312, -4.386783599853516, -1.0182043313980103, -0.613525390625, -0.36767578125, -0.532958984375, 0, 
25, 1050178819, 0.2806764841079712, 0.6865574717521667, -0.2829338312149048, 0.6081153750419617, 9.6962251663208, 0.393047571182251, -0.9678360819816589, -1.7281029224395752, -4.250439167022705, -1.2033183574676514, -0.613037109375, -0.36669921875, -0.533447265625, 0, 
26, 1050187152, 0.2808639109134674, 0.686667263507843, -0.28300464153289795, 0.6078718304634094, 9.672298431396484, 0.44905945658683777, -0.9526419043540955, -1.8689041137695312, -4.625636100769043, -1.1776784658432007, -0.613037109375, -0.36767578125, -0.536376953125, 0, 
27, 1050195485, 0.2810104787349701, 0.6867834329605103, -0.2830561399459839, 0.6076487898826599, 9.669031143188477, 0.46272045373916626, -0.9090633392333984, -1.7097119092941284, -4.5802741050720215, -0.940055251121521, -0.615478515625, -0.36865234375, -0.531982421875, 0, 
28, 1050203818, 0.2811189293861389, 0.6868941783905029, -0.2830784320831299, 0.6074632406234741, 9.704242706298828, 0.477468341588974, -0.9823237061500549, -1.1813157796859741, -4.234071731567383, -0.6837079524993896, -0.614013671875, -0.36962890625, -0.532470703125, 0, 
29, 1050212151, 0.28119927644729614, 0.6869785785675049, -0.28309863805770874, 0.6073212027549744, 9.706172943115234, 0.48145592212677, -1.0287246704101562, -0.6300716996192932, -3.686925172805786, -0.24562767148017883, -0.614990234375, -0.36865234375, -0.531494140625, 0, 
30, 1050220484, 0.2812284529209137, 0.687065601348877, -0.2830779254436493, 0.6072187423706055, 9.70553207397461, 0.44166332483291626, -1.021946668624878, -0.17083415389060974, -3.4074490070343018, 0.022924741730093956, -0.616455078125, -0.3662109375, -0.532470703125, 0, 
31, 1050228817, 0.2812526524066925, 0.6871519684791565, -0.283052533864975, 0.6071216464042664, 9.802224159240723, 0.4096596837043762, -1.0459942817687988, 0.462157666683197, -3.320258140563965, -0.04199453815817833, -0.614990234375, -0.36962890625, -0.531982421875, 0, 
32, 1050237150, 0.28126659989356995, 0.6872605085372925, -0.282992422580719, 0.607020378112793, 9.938711166381836, 0.42295968532562256, -1.2031100988388062, 0.9329473972320557, -3.4601118564605713, -0.3600209057331085, -0.613037109375, -0.36474609375, -0.529541015625, 0, 
33, 1050245483, 0.28133341670036316, 0.6873629689216614, -0.28289276361465454, 0.6069198250770569, 10.19347858428955, 0.34895598888397217, -1.2834084033966064, 0.730492353439331, -3.0349669456481934, -1.1740669012069702, -0.614501953125, -0.36767578125, -0.531494140625, 0, 
34, 1050253816, 0.28149038553237915, 0.6874486207962036, -0.28274697065353394, 0.606817901134491, 10.426841735839844, 0.31148961186408997, -1.4598546028137207, 0.16477638483047485, -2.388514518737793, -2.273711681365967, -0.613525390625, -0.36767578125, -0.533935546875, 0, 
35, 1050262149, 0.28178682923316956, 0.6874436736106873, -0.282503217458725, 0.6067994832992554, 10.576970100402832, 0.25771671533584595, -1.7029107809066772, -0.3356104791164398, 0.08762629330158234, -3.716970682144165, -0.614501953125, -0.37109375, -0.532470703125, 0, 
36, 1050270482, 0.28224432468414307, 0.6874068379402161, -0.2821385860443115, 0.6067981719970703, 10.855076789855957, 0.1761718988418579, -1.8874365091323853, -1.0351353883743286, 1.597559928894043, -5.972894191741943, -0.612548828125, -0.3701171875, -0.531982421875, 0, 
37, 1050278815, 0.2829483151435852, 0.6873055100440979, -0.2816324234008789, 0.6068202257156372, 11.090999603271484, 0.08303471654653549, -2.0252444744110107, -2.2153115272521973, 3.8752546310424805, -9.06860637664795, -0.612548828125, -0.373046875, -0.531982421875, 0, 
38, 1050287148, 0.2839001715183258, 0.6871045231819153, -0.2809053659439087, 0.6069402694702148, 11.561094284057617, -0.1816510260105133, -2.0225369930267334, -2.622065305709839, 7.451770782470703, -12.441923141479492, -0.612060546875, -0.3720703125, -0.537841796875, 0, 
39, 1050295481, 0.2852942645549774, 0.686649739742279, -0.2797727882862091, 0.6073243618011475, 12.251973152160645, -0.3918520510196686, -2.2282555103302, -3.4872138500213623, 15.35763931274414, -17.968921661376953, -0.609619140625, -0.38037109375, -0.535888671875, 0, 
40, 1050303814, 0.28773239254951477, 0.685547411441803, -0.27810758352279663, 0.6081835627555847, 13.165504455566406, -0.6519138813018799, -1.8262827396392822, -9.523425102233887, 31.36073112487793, -27.34878158569336, -0.607177734375, -0.3798828125, -0.543701171875, 0, 
41, 1050312147, 0.29043450951576233, 0.6846135854721069, -0.27568042278289795, 0.6090555191040039, 11.971925735473633, -0.34003010392189026, -2.5587098598480225, -5.010783672332764, 34.092472076416016, -37.34698486328125, -0.605224609375, -0.3857421875, -0.546142578125, 0, 
42, 1050320480, 0.29368820786476135, 0.6841755509376526, -0.2725037932395935, 0.6094170808792114, 14.68822956085205, -1.4218363761901855, -2.0323898792266846, -3.8827085494995117, 30.22323226928711, -52.92027282714844, -0.602783203125, -0.3935546875, -0.549560546875, 0, 
43, 1050328813, 0.2976592779159546, 0.6830167174339294, -0.2679877281188965, 0.6107915043830872, 14.45864200592041, -0.28176093101501465, -2.268359422683716, 1.477873682975769, 53.88788986206055, -64.7637710571289, -0.595458984375, -0.4052734375, -0.55712890625, 0, 
44, 1050337146, 0.30220550298690796, 0.682499349117279, -0.2631217837333679, 0.6112526655197144, 13.286422729492188, 0.5700234770774841, -2.4601094722747803, -1.709595799446106, 43.4820556640625, -78.97338104248047, -0.58837890625, -0.415283203125, -0.56640625, 0, 
45, 1050345479, 0.3074173629283905, 0.6822402477264404, -0.25787365436553955, 0.6111795902252197, 13.890695571899414, 0.45021337270736694, -1.9455698728561401, -5.618441581726074, 40.28590774536133, -91.32128143310547, -0.5830078125, -0.430419921875, -0.572265625, 0, 
46, 1050353812, 0.3131110370159149, 0.6824526190757751, -0.2525274455547333, 0.610283613204956, 12.462045669555664, 1.6472318172454834, -2.849951982498169, -10.241556167602539, 30.73846435546875, -101.43450164794922, -0.578125, -0.446533203125, -0.578125, 0, 
47, 1050362145, 0.319227397441864, 0.6836342215538025, -0.24785830080509186, 0.6077010035514832, 11.389124870300293, 1.5870840549468994, -3.279822587966919, -21.573606491088867, 5.31519079208374, -109.26227569580078, -0.5712890625, -0.459716796875, -0.57958984375, 0, 
48, 1050370478, 0.3256033658981323, 0.6857297420501709, -0.24375292658805847, 0.6036043167114258, 12.779875755310059, 0.29466697573661804, -4.144534111022949, -29.875200271606445, -18.12687873840332, -115.88735961914062, -0.561279296875, -0.479248046875, -0.58251953125, 0, 
49, 1050378811, 0.3322821259498596, 0.6872773766517639, -0.23924411833286285, 0.5999975204467773, 14.492278099060059, -0.6265302300453186, -4.611008644104004, -30.191699981689453, -6.157447814941406, -118.18194580078125, -0.554931640625, -0.495849609375, -0.57958984375, 0, 
50, 1050387144, 0.3388884961605072, 0.6876654624938965, -0.23408636450767517, 0.5978884696960449, 14.747406005859375, -0.9682254791259766, -3.9370720386505127, -24.530349731445312, 20.32417106628418, -113.05714416503906, -0.550048828125, -0.510986328125, -0.58203125, 0, 
51, 1050395477, 0.34471216797828674, 0.6872708201408386, -0.22907249629497528, 0.5969541668891907, 12.815611839294434, -3.9556963443756104, -4.332454681396484, -18.169822692871094, 34.64901351928711, -97.26654815673828, -0.540283203125, -0.52880859375, -0.58544921875, 0, 
52, 1050403810, 0.3504931926727295, 0.6852444410324097, -0.22460556030273438, 0.597614586353302, 11.863910675048828, -8.023499488830566, -5.1377692222595215, -24.979555130004883, 60.43058395385742, -79.05961608886719, -0.532958984375, -0.5400390625, -0.5947265625, 0, 
53, 1050412143, 0.354080468416214, 0.6826130151748657, -0.21966363489627838, 0.6003421545028687, 12.178155899047852, -8.453401565551758, -5.3916449546813965, 3.0759620666503906, 80.35315704345703, -53.663917541503906, -0.522705078125, -0.55322265625, -0.605712890625, 0, 
54, 1050420476, 0.35742998123168945, 0.6793093681335449, -0.2154230922460556, 0.603632390499115, 5.593122482299805, -10.348691940307617, -4.310454845428467, -2.072221279144287, 87.11283111572266, -40.39460754394531, -0.511962890625, -0.561279296875, -0.615478515625, 0, 
55, 1050428809, 0.3595462739467621, 0.6772493720054626, -0.2133239209651947, 0.6054331660270691, 1.2385976314544678, -9.064107894897461, -3.9034433364868164, -6.610807418823242, 48.63369369506836, -21.11050033569336, -0.5068359375, -0.563232421875, -0.627197265625, 0, 
56, 1050437142, 0.36018016934394836, 0.6772613525390625, -0.21333536505699158, 0.605038583278656, 2.0112123489379883, -10.61820125579834, -5.9890313148498535, -6.593962669372559, -3.766970634460449, -6.1379523277282715, -0.505859375, -0.567138671875, -0.630126953125, 0, 
57, 1050445475, 0.36002135276794434, 0.6781089305877686, -0.2146269977092743, 0.6037256121635437, 3.4649717807769775, -12.226447105407715, -5.88611364364624, -8.3971586227417, -28.02036476135254, 5.472997188568115, -0.50341796875, -0.567626953125, -0.623779296875, 0, 
58, 1050453808, 0.3595260977745056, 0.6787956357002258, -0.21671181917190552, 0.6025029420852661, 4.11298131942749, -12.419296264648438, -5.345955848693848, -12.40116024017334, -30.661314010620117, 16.44989013671875, -0.50732421875, -0.565673828125, -0.625244140625, 0, 
59, 1050462141, 0.35827770829200745, 0.6793642044067383, -0.21964310109615326, 0.6015436053276062, 3.890681028366089, -12.339367866516113, -4.603734493255615, -12.156989097595215, -33.75518798828125, 32.38058090209961, -0.50927734375, -0.564453125, -0.623779296875, 0, 
60, 1050470474, 0.3560905158519745, 0.6799958348274231, -0.223820298910141, 0.6005880832672119, 3.5520520210266113, -12.205138206481934, -3.8167426586151123, -13.40543270111084, -43.0888671875, 51.42631912231445, -0.51318359375, -0.55908203125, -0.621337890625, 0, 
61, 1050478807, 0.3529975414276123, 0.6807454228401184, -0.2292565256357193, 0.5995132327079773, 4.260400295257568, -12.274325370788574, -3.2881264686584473, -15.088876724243164, -54.256832122802734, 69.92161560058594, -0.51806640625, -0.54931640625, -0.617919921875, 0, 
62, 1050487140, 0.34909528493881226, 0.6814579963684082, -0.23560039699077606, 0.5985286235809326, 5.464876651763916, -12.197336196899414, -2.6972599029541016, -14.930541038513184, -59.92100524902344, 85.40512084960938, -0.5283203125, -0.54248046875, -0.611083984375, 0, 
63, 1050495473, 0.344431608915329, 0.6820867657661438, -0.24250969290733337, 0.5977543592453003, 6.521568298339844, -11.98710823059082, -1.967106819152832, -12.13062572479248, -62.58633041381836, 98.49188995361328, -0.53466796875, -0.52978515625, -0.607666015625, 0, 
64, 1050503806, 0.3389418125152588, 0.6825931668281555, -0.24974550306797028, 0.5973343849182129, 7.692764759063721, -11.545527458190918, -1.4150488376617432, -6.505813121795654, -62.40256881713867, 110.13993835449219, -0.54296875, -0.516357421875, -0.6025390625, 0, 
65, 1050512139, 0.33258748054504395, 0.6830078959465027, -0.2571011483669281, 0.5973114371299744, 8.72088623046875, -10.921396255493164, -0.954462468624115, 1.6035027503967285, -61.60585403442383, 120.82646942138672, -0.559814453125, -0.506591796875, -0.5966796875, 0, 
66, 1050520472, 0.32530906796455383, 0.6834050416946411, -0.2645255923271179, 0.5976236462593079, 9.624152183532715, -10.096324920654297, -0.7403356432914734, 10.77569580078125, -61.733219146728516, 130.3124237060547, -0.571533203125, -0.49072265625, -0.59375, 0, 
67, 1050528805, 0.3172611594200134, 0.6837828755378723, -0.2718154788017273, 0.5982465744018555, 10.58115005493164, -9.196836471557617, -0.8738759160041809, 20.202714920043945, -61.01417541503906, 137.17678833007812, -0.587646484375, -0.471435546875, -0.583984375, 0, 
68, 1050537138, 0.3085348904132843, 0.6841241121292114, -0.2789327800273895, 0.5991436243057251, 11.223133087158203, -8.109870910644531, -1.0333291292190552, 28.82052993774414, -59.7559928894043, 142.0760498046875, -0.606201171875, -0.451904296875, -0.57763671875, 0, 
69, 1050545471, 0.2992667853832245, 0.6844762563705444, -0.28585225343704224, 0.6001802682876587, 11.751596450805664, -7.044053077697754, -1.1271960735321045, 36.17612075805664, -59.93485641479492, 145.62200927734375, -0.619384765625, -0.4326171875, -0.566650390625, 0, 
70, 1050553804, 0.2895042598247528, 0.6848598122596741, -0.2926163971424103, 0.6012705564498901, 12.393303871154785, -6.0604047775268555, -1.3222724199295044, 42.39967727661133, -60.83232116699219, 147.90560913085938, -0.639404296875, -0.405517578125, -0.561767578125, 0, 
71, 1050562137, 0.2794158160686493, 0.6852325201034546, -0.29915493726730347, 0.6024002432823181, 13.024639129638672, -5.045175552368164, -1.6455903053283691, 47.50300979614258, -60.94586181640625, 149.1083984375, -0.657470703125, -0.379150390625, -0.551025390625, 0, 
72, 1050570470, 0.2690459191799164, 0.6855111718177795, -0.3055083751678467, 0.6036139130592346, 13.440649032592773, -3.996803045272827, -1.963875412940979, 51.61676025390625, -59.665096282958984, 149.9441680908203, -0.668701171875, -0.349853515625, -0.540283203125, 0, 
73, 1050578803, 0.2585526704788208, 0.6856676340103149, -0.3117019236087799, 0.6048544049263, 13.644194602966309, -2.9715075492858887, -2.16672945022583, 53.8222541809082, -58.48259353637695, 150.53341674804688, -0.673095703125, -0.319091796875, -0.526611328125, 0, 
74, 1050587136, 0.24798977375030518, 0.685752272605896, -0.3178408741950989, 0.6059855818748474, 13.704843521118164, -2.0342330932617188, -2.3429038524627686, 54.151329040527344, -58.86896514892578, 150.0386962890625, -0.67333984375, -0.28515625, -0.516845703125, 0, 
75, 1050595469, 0.2375679612159729, 0.6858229041099548, -0.3239124119281769, 0.6068653464317322, 13.674598693847656, -1.157174825668335, -2.3409087657928467, 52.29634475708008, -60.425086975097656, 147.91036987304688, -0.67626953125, -0.2548828125, -0.510498046875, 0, 
76, 1050603802, 0.22732442617416382, 0.6859334111213684, -0.3299570679664612, 0.6074073314666748, 13.759690284729004, -0.4872480630874634, -2.181011199951172, 49.3985710144043, -62.914493560791016, 144.4016571044922, -0.66748046875, -0.231689453125, -0.500732421875, 0, 
77, 1050612135, 0.2173900157213211, 0.6860489249229431, -0.3359127342700958, 0.6076492667198181, 14.020508766174316, 0.13679379224777222, -1.8964645862579346, 45.945892333984375, -64.25392150878906, 140.50425720214844, -0.66259765625, -0.21240234375, -0.490478515625, 0, 
78, 1050620468, 0.20780932903289795, 0.686048150062561, -0.3418118953704834, 0.60771244764328, 14.19867992401123, 0.7013533711433411, -1.7367212772369385, 41.83993148803711, -63.024375915527344, 136.53466796875, -0.6533203125, -0.198486328125, -0.481201171875, 0, 
79, 1050628801, 0.1987168788909912, 0.6858713030815125, -0.3476385474205017, 0.6076481342315674, 13.955648422241211, 1.153159260749817, -1.514786958694458, 36.802242279052734, -60.39337921142578, 132.71728515625, -0.64306640625, -0.1904296875, -0.472412109375, 0, 
80, 1050637134, 0.19010281562805176, 0.6855071783065796, -0.3534969687461853, 0.6074349880218506, 13.676858901977539, 1.43246328830719, -1.2821156978607178, 30.738265991210938, -57.89476013183594, 129.0330810546875, -0.64111328125, -0.185546875, -0.470458984375, 0, 
81, 1050645467, 0.18211382627487183, 0.6849594712257385, -0.3593282997608185, 0.6070789098739624, 13.612289428710938, 1.6378158330917358, -1.254099726676941, 23.96121597290039, -54.738739013671875, 124.54893493652344, -0.6396484375, -0.181640625, -0.464111328125, 0, 
82, 1050653800, 0.17482852935791016, 0.6841228008270264, -0.36513182520866394, 0.6067012548446655, 13.277174949645996, 1.7400553226470947, -1.2284406423568726, 16.668121337890625, -48.85007858276367, 119.32899475097656, -0.647705078125, -0.1806640625, -0.45751953125, 0, 
83, 1050662133, 0.16831865906715393, 0.6830404996871948, -0.3707985579967499, 0.6063247919082642, 12.67069149017334, 1.706016182899475, -1.087005615234375, 9.997160911560059, -42.697242736816406, 113.26667022705078, -0.658447265625, -0.177001953125, -0.453125, 0, 
84, 1050670466, 0.16249583661556244, 0.6818414926528931, -0.3762994110584259, 0.6058733463287354, 12.355443000793457, 1.6070529222488403, -1.1059315204620361, 4.207543849945068, -38.419593811035156, 105.96249389648438, -0.669677734375, -0.176513671875, -0.4501953125, 0, 
85, 1050678799, 0.15735317766666412, 0.6804981827735901, -0.3815622627735138, 0.6054494380950928, 11.93928337097168, 1.637834906578064, -1.1822704076766968, -0.30152085423469543, -33.02998733520508, 99.31077575683594, -0.682373046875, -0.1689453125, -0.447265625, 0, 
86, 1050687132, 0.15256409347057343, 0.6790357232093811, -0.3867347538471222, 0.6050351858139038, 11.470733642578125, 1.597900152206421, -0.9594573378562927, -3.1283323764801025, -29.77682113647461, 95.74950408935547, -0.702880859375, -0.163818359375, -0.447265625, 0, 
87, 1050695465, 0.14790426194667816, 0.6774035692214966, -0.3919335901737213, 0.6046763062477112, 11.240226745605469, 1.6010282039642334, -1.140149712562561, -4.551216125488281, -27.335613250732422, 96.355712890625, -0.718505859375, -0.1513671875, -0.440185546875, 0, 
88, 1050703798, 0.14311698079109192, 0.6755725741386414, -0.3973487913608551, 0.6043423414230347, 10.655953407287598, 1.6327545642852783, -1.0043259859085083, -5.495522499084473, -26.461997985839844, 100.1588134765625, -0.741455078125, -0.139404296875, -0.434326171875, 0, 
89, 1050712131, 0.1381591558456421, 0.6736690402030945, -0.40301448106765747, 0.6038691997528076, 10.100648880004883, 1.6467310190200806, -0.9205437302589417, -6.835729598999023, -28.69307518005371, 104.42171478271484, -0.758544921875, -0.1220703125, -0.433349609375, 0, 
90, 1050720464, 0.1330656111240387, 0.6718597412109375, -0.40885770320892334, 0.6031002402305603, 9.804787635803223, 1.7879000902175903, -0.7658882737159729, -8.569040298461914, -33.19431686401367, 105.73417663574219, -0.776123046875, -0.099365234375, -0.426025390625, 0, 
91, 1050728797, 0.12810350954532623, 0.6701822280883789, -0.4145748019218445, 0.6021376252174377, 9.942939758300781, 1.8163729906082153, -0.7644221782684326, -9.528223991394043, -35.21611404418945, 102.75794219970703, -0.796142578125, -0.073974609375, -0.418212890625, 0, 
92, 1050737130, 0.12335987389087677, 0.6685534119606018, -0.41996240615844727, 0.6012046337127686, 10.24504280090332, 1.8151413202285767, -0.6429222226142883, -8.610036849975586, -33.41673278808594, 97.33172607421875, -0.810302734375, -0.04833984375, -0.4072265625, 0, 
93, 1050745463, 0.1189679354429245, 0.6668444871902466, -0.42485395073890686, 0.6005504727363586, 10.23267650604248, 1.8662577867507935, -0.5869812369346619, -6.216048717498779, -27.42388343811035, 91.15380859375, -0.821044921875, -0.02294921875, -0.40380859375, 0, 
94, 1050753796, 0.11484139412641525, 0.6651175022125244, -0.42927005887031555, 0.6001280546188354, 9.650318145751953, 2.1008872985839844, -0.42864495515823364, -3.4510936737060547, -22.720788955688477, 84.7574691772461, -0.832763671875, 0.0087890625, -0.3916015625, 0, 
95, 1050762129, 0.11088444292545319, 0.6636115908622742, -0.43326184153556824, 0.5996707081794739, 8.992380142211914, 2.4581854343414307, -0.15921752154827118, -1.3053218126296997, -23.29214859008789, 78.4450912475586, -0.842041015625, 0.03564453125, -0.38720703125, 0, 
96, 1050770462, 0.10698549449443817, 0.6624606251716614, -0.4368619918823242, 0.5990394949913025, 8.689314842224121, 2.7136130332946777, 0.002474932000041008, 0.8521131277084351, -26.77240562438965, 71.70719146728516, -0.845947265625, 0.06005859375, -0.37744140625, 0, 
97, 1050778795, 0.1032063364982605, 0.661657452583313, -0.44000357389450073, 0.5982903838157654, 8.952957153320312, 3.1281683444976807, 0.17741423845291138, 3.3914682865142822, -29.408336639404297, 64.58551025390625, -0.848876953125, 0.0869140625, -0.36767578125, 0, 
98, 1050787128, 0.09965742379426956, 0.6610186100006104, -0.4426378011703491, 0.5976545810699463, 9.316736221313477, 3.4841606616973877, 0.33143338561058044, 6.342824459075928, -27.533594131469727, 56.959678649902344, -0.84912109375, 0.111083984375, -0.3623046875, 0, 
99, 1050795461, 0.09655750542879105, 0.6604123711585999, -0.44468170404434204, 0.5973164439201355, 9.438980102539062, 3.8592939376831055, 0.3879377543926239, 9.01579761505127, -21.635746002197266, 48.39568328857422, -0.84716796875, 0.133544921875, -0.35693359375, 0, 
100, 1050803794, 0.09374406188726425, 0.6597923636436462, -0.4460975229740143, 0.5973941683769226, 9.411103248596191, 4.22804069519043, 0.5026161670684814, 14.053251266479492, -15.090002059936523, 40.72015380859375, -0.8447265625, 0.15380859375, -0.3525390625, 0, 
101, 1050812127, 0.09127246588468552, 0.6591662168502808, -0.4469184875488281, 0.5978543758392334, 9.063619613647461, 4.616853713989258, 0.6035230159759521, 18.221479415893555, -8.775871276855469, 33.300392150878906, -0.84619140625, 0.17041015625, -0.34716796875, 0, 
102, 1050820460, 0.08908484131097794, 0.658759593963623, -0.44716280698776245, 0.5984494686126709, 8.611700057983398, 5.058285236358643, 0.6850516200065613, 21.451684951782227, -6.830746173858643, 24.33587646484375, -0.841552734375, 0.186279296875, -0.34765625, 0, 
103, 1050828793, 0.08729105442762375, 0.6586896777153015, -0.4467611610889435, 0.5990903973579407, 8.850603103637695, 5.558475017547607, 0.2998134195804596, 23.934749603271484, -6.033705711364746, 13.45042610168457, -0.835693359375, 0.197998046875, -0.3447265625, 0, 
104, 1050837126, 0.08602997660636902, 0.6588428616523743, -0.4456895887851715, 0.5999017953872681, 8.887879371643066, 6.14921760559082, 0.026042059063911438, 25.90812110900879, -2.2023773193359375, 1.6391327381134033, -0.835693359375, 0.2099609375, -0.33984375, 0, 
105, 1050845459, 0.08533500134944916, 0.6592602133750916, -0.44391971826553345, 0.6008540391921997, 8.68679428100586, 6.79985237121582, -0.04294848442077637, 27.751251220703125, 1.1430872678756714, -10.620835304260254, -0.829833984375, 0.216796875, -0.3447265625, 0, 
106, 1050853792, 0.0850902646780014, 0.6600950956344604, -0.44152969121932983, 0.6017324328422546, 8.676846504211426, 7.457095146179199, 0.0823025032877922, 28.80331802368164, 0.5333914756774902, -22.752498626708984, -0.826171875, 0.22119140625, -0.3466796875, 0, 
107, 1050862125, 0.0853695198893547, 0.6612937450408936, -0.4385620057582855, 0.6025465726852417, 9.223650932312012, 8.150001525878906, -0.25065040588378906, 28.892168045043945, 0.7643300890922546, -34.46221160888672, -0.826171875, 0.22216796875, -0.34521484375, 0, 
108, 1050870458, 0.08665178716182709, 0.662584662437439, -0.4351029694080353, 0.6034526228904724, 9.529029846191406, 8.649120330810547, -0.7107974290847778, 24.48512077331543, 7.484832286834717, -47.801780700683594, -0.82666015625, 0.22802734375, -0.349853515625, 0, 
109, 1050878791, 0.08842580765485764, 0.6640259623527527, -0.43093395233154297, 0.6046015024185181, 9.085186004638672, 8.690947532653809, -0.7265661954879761, 27.54693031311035, 12.215142250061035, -58.85111618041992, -0.82958984375, 0.2236328125, -0.3515625, 0, 
110, 1050887124, 0.09141761809587479, 0.6673491597175598, -0.4256380796432495, 0.6042488217353821, 13.277398109436035, 1.6848572492599487, 6.357503890991211, 19.17391586303711, -8.541120529174805, -92.30731964111328, -0.83251953125, 0.22021484375, -0.3544921875, 0, 
111, 1050895457, 0.10512420535087585, 0.6725365519523621, -0.4202641546726227, 0.6000151038169861, 16.685102462768555, -1.9735007286071777, -2.7058253288269043, -98.8743667602539, 3.1505327224731445, -197.79197692871094, -0.842529296875, 0.193115234375, -0.34130859375, 0, 
112, 1050903790, 0.11459145694971085, 0.6808443069458008, -0.4134703278541565, 0.5935980081558228, 4.814140796661377, -0.4264313578605652, -1.0124660730361938, -56.06391906738281, -65.24574279785156, -197.16030883789062, -0.84814453125, 0.16748046875, -0.33642578125, 0, 
113, 1050912123, 0.12523049116134644, 0.6864289045333862, -0.4037768840789795, 0.5916869640350342, 13.663416862487793, -8.901297569274902, -6.234528541564941, -22.026060104370117, 10.414164543151855, -211.26502990722656, -0.858154296875, 0.135986328125, -0.3359375, 0, 
114, 1050920456, 0.1368074268102646, 0.6941189169883728, -0.392261803150177, 0.5878859162330627, 17.04240608215332, -9.49561595916748, -8.538437843322754, -22.935955047607422, -16.226184844970703, -251.05377197265625, -0.86474609375, 0.1015625, -0.330810546875, 0, 
115, 1050928789, 0.1500168740749359, 0.7007796764373779, -0.3794589638710022, 0.5851582288742065, 15.895515441894531, -1.4414178133010864, -3.1877195835113525, -24.244604110717773, 13.581772804260254, -268.9632568359375, -0.869384765625, 0.057373046875, -0.333740234375, 0, 
116, 1050937122, 0.16316767036914825, 0.7055625915527344, -0.36808767914772034, 0.583151638507843, 15.969634056091309, 5.80902624130249, -0.01818084716796875, -35.31975555419922, 32.382198333740234, -243.43316650390625, -0.873046875, 0.014404296875, -0.339111328125, 0, 
117, 1050945455, 0.17590539157390594, 0.7079765200614929, -0.3591962456703186, 0.5820663571357727, 13.848488807678223, 6.576704025268555, -0.4456743001937866, -51.84177017211914, 52.6659049987793, -201.96742248535156, -0.87109375, -0.021484375, -0.345458984375, 0, 
118, 1050953788, 0.1874760538339615, 0.7090436816215515, -0.3518957793712616, 0.58161461353302, 12.498311996459961, 2.0309255123138428, -1.712562084197998, -53.344730377197266, 59.985870361328125, -168.9535369873047, -0.87109375, -0.052978515625, -0.360595703125, 0, 
119, 1050962121, 0.19759219884872437, 0.7102751135826111, -0.3452976942062378, 0.5807172060012817, 10.989492416381836, -0.7018190622329712, -2.5810277462005615, -46.511409759521484, 45.48982620239258, -152.4105987548828, -0.87060546875, -0.082275390625, -0.367431640625, 0, 
120, 1050970454, 0.20681311190128326, 0.7112805247306824, -0.3388383984565735, 0.5800802707672119, 10.91289234161377, 0.41739562153816223, -2.9304637908935547, -38.248191833496094, 45.188499450683594, -142.10311889648438, -0.8662109375, -0.105712890625, -0.379150390625, 0, 
121, 1050978787, 0.2152087539434433, 0.7118330597877502, -0.33255764842033386, 0.5799831748008728, 10.345646858215332, 1.2196259498596191, -2.8231072425842285, -30.375661849975586, 49.75127029418945, -130.14743041992188, -0.865234375, -0.12939453125, -0.385986328125, 0, 
122, 1050987120, 0.22255247831344604, 0.7120516300201416, -0.32670894265174866, 0.5802677273750305, 10.553000450134277, 1.4318864345550537, -2.9327456951141357, -22.763195037841797, 50.03630447387695, -114.84416961669922, -0.85888671875, -0.14892578125, -0.398681640625, 0, 
123, 1050995453, 0.22876988351345062, 0.7118649482727051, -0.3212442100048065, 0.581129252910614, 11.611781120300293, 1.5808417797088623, -4.935611248016357, -13.450887680053711, 52.710296630859375, -98.53559875488281, -0.85693359375, -0.1650390625, -0.411376953125, 0, 
124, 1051003786, 0.23394504189491272, 0.7110570073127747, -0.31603384017944336, 0.582912266254425, 11.600018501281738, 1.5496172904968262, -4.476351737976074, -3.1592507362365723, 61.267311096191406, -82.041015625, -0.85498046875, -0.1806640625, -0.416748046875, 0, 
125, 1051012119, 0.23810778558254242, 0.709798276424408, -0.3110805153846741, 0.5854200720787048, 11.088468551635742, 1.4834344387054443, -3.358259677886963, 6.374767303466797, 66.76294708251953, -67.153076171875, -0.8515625, -0.194580078125, -0.43212890625, 0, 
126, 1051020452, 0.24114924669265747, 0.7085091471672058, -0.30677834153175354, 0.5880012512207031, 10.873581886291504, 2.1706860065460205, -2.1945555210113525, 12.299616813659668, 60.78141784667969, -51.35786819458008, -0.848388671875, -0.202880859375, -0.4453125, 0, 
127, 1051028785, 0.24320010840892792, 0.7073104977607727, -0.3033059537410736, 0.5903962850570679, 10.501951217651367, 1.915609359741211, -1.6219440698623657, 14.74849796295166, 51.32106399536133, -36.303836822509766, -0.843505859375, -0.214599609375, -0.451171875, 0, 
128, 1051037118, 0.24455741047859192, 0.706210196018219, -0.30040180683135986, 0.5926332473754883, 10.332503318786621, 1.0464626550674438, -1.8606892824172974, 16.559057235717773, 44.17827224731445, -26.035953521728516, -0.839599609375, -0.219482421875, -0.46044921875, 0, 
129, 1051045451, 0.24568241834640503, 0.7050533294677734, -0.2978830933570862, 0.59481281042099, 9.904319763183594, 0.6702120304107666, -1.2400270700454712, 15.237762451171875, 41.83789825439453, -20.406892776489258, -0.837890625, -0.220947265625, -0.4697265625, 0, 
130, 1051053784, 0.24660740792751312, 0.7039890885353088, -0.2957146465778351, 0.596769392490387, 9.851506233215332, 0.6531776189804077, -1.3438528776168823, 13.7221040725708, 36.9029426574707, -16.452136993408203, -0.83544921875, -0.225341796875, -0.4765625, 0, 
131, 1051062117, 0.24733488261699677, 0.7030616402626038, -0.2938409447669983, 0.5984846353530884, 9.6718168258667, 0.5120864510536194, -1.0930793285369873, 12.687103271484375, 31.655027389526367, -13.407646179199219, -0.83642578125, -0.230712890625, -0.4833984375, 0, 
132, 1051070450, 0.2479296326637268, 0.7022365927696228, -0.2921920716762543, 0.6000124216079712, 9.644780158996582, 0.3003773093223572, -1.050612211227417, 11.719903945922852, 27.68352699279785, -11.135119438171387, -0.8330078125, -0.237060546875, -0.486328125, 0, 
133, 1051078783, 0.24866770207881927, 0.7014169096946716, -0.29088452458381653, 0.6012997627258301, 9.681693077087402, 0.3268716037273407, -1.231296420097351, 6.564189434051514, 24.74349594116211, -9.92141056060791, -0.8310546875, -0.237060546875, -0.491455078125, 0, 
134, 1051087116, 0.2494596540927887, 0.7006276249885559, -0.2897009551525116, 0.6024622917175293, 9.607460021972656, 0.08706683665513992, -1.3251827955245972, 4.631696701049805, 23.06394386291504, -9.659351348876953, -0.82861328125, -0.237548828125, -0.494873046875, 0, 
135, 1051095449, 0.2503507137298584, 0.6998724937438965, -0.28857553005218506, 0.603509783744812, 9.647682189941406, -0.009745275601744652, -1.002833604812622, 2.8441553115844727, 21.882741928100586, -10.512076377868652, -0.828857421875, -0.241455078125, -0.501220703125, 0, 
136, 1051103782, 0.251370906829834, 0.6993101239204407, -0.2875036895275116, 0.6042485237121582, 9.687542915344238, -0.46323147416114807, -1.0502445697784424, 0.6054695844650269, 17.62588119506836, -12.834210395812988, -0.826904296875, -0.243408203125, -0.504638671875, 0, 
137, 1051112115, 0.2521451711654663, 0.6990883946418762, -0.28606826066970825, 0.6048634052276611, 9.712961196899414, -0.8184131383895874, -1.3231149911880493, 6.67064094543457, 13.904410362243652, -16.12289810180664, -0.825927734375, -0.247802734375, -0.509033203125, 0, 
138, 1051120448, 0.2532551884651184, 0.699083149433136, -0.2846603989601135, 0.6050695776939392, 9.552845001220703, -0.5094282627105713, -0.9587361216545105, 2.363067865371704, 9.38057804107666, -20.858591079711914, -0.822998046875, -0.251220703125, -0.504150390625, 0, 
139, 1051128781, 0.25422602891921997, 0.6993533968925476, -0.2833656668663025, 0.6049581170082092, 9.554302215576172, 0.4644191861152649, -0.6380754113197327, 2.4688544273376465, 3.115204095840454, -20.8596134185791, -0.822021484375, -0.254638671875, -0.509521484375, 0, 
140, 1051137114, 0.2546294331550598, 0.6998463869094849, -0.28190508484840393, 0.6049007773399353, 9.66638469696045, 0.2786153554916382, -1.670528531074524, 10.30391788482666, 0.13183650374412537, -18.354923248291016, -0.820068359375, -0.258056640625, -0.509521484375, 0, 
141, 1051145447, 0.25571784377098083, 0.700087308883667, -0.2807472050189972, 0.6047014594078064, 9.760164260864258, 0.29904359579086304, -1.8782750368118286, -0.24844539165496826, 2.4763853549957275, -20.716917037963867, -0.821044921875, -0.263427734375, -0.511474609375, 0, 
142, 1051153780, 0.2568683326244354, 0.7002302408218384, -0.27967044711112976, 0.6045470237731934, 9.760961532592773, 0.5387697219848633, -1.8481876850128174, -1.6845849752426147, 3.659353733062744, -19.857736587524414, -0.819091796875, -0.266357421875, -0.511962890625, 0, 
143, 1051162113, 0.25803303718566895, 0.7003520727157593, -0.27877530455589294, 0.6043233871459961, 9.817140579223633, 0.7149232625961304, -1.522519588470459, -3.6800363063812256, 2.5993075370788574, -18.449050903320312, -0.814697265625, -0.270751953125, -0.513427734375, 0, 
144, 1051170446, 0.2592262327671051, 0.7004367113113403, -0.2779444754123688, 0.6040974259376526, 9.847818374633789, 0.22400406002998352, -1.778773546218872, -4.618081569671631, 2.750969648361206, -17.87283706665039, -0.813720703125, -0.274658203125, -0.513916015625, 0, 
145, 1051178779, 0.2604284882545471, 0.7006108164787292, -0.27714136242866516, 0.6037473678588867, 9.544097900390625, 0.14487771689891815, -1.0246098041534424, -5.1024980545043945, 0.766480565071106, -18.524080276489258, -0.8125, -0.279052734375, -0.510498046875, 0, 
146, 1051187112, 0.26108303666114807, 0.7009571194648743, -0.27597591280937195, 0.6035964488983154, 9.713837623596191, 0.3851062059402466, -1.3220624923706055, 4.567198753356934, 0.44822365045547485, -17.351791381835938, -0.81396484375, -0.284912109375, -0.514404296875, 0, 
147, 1051195445, 0.26221972703933716, 0.7011863589286804, -0.2751557230949402, 0.6032118201255798, 9.52132511138916, 0.458333820104599, -0.7945050597190857, -4.263118743896484, -0.22610971331596375, -18.480226516723633, -0.80908203125, -0.286865234375, -0.514404296875, 0, 
148, 1051203778, 0.2633011043071747, 0.7014749646186829, -0.2744283974170685, 0.6027362942695618, 9.428339004516602, 0.41784876585006714, -0.7561291456222534, -4.621001243591309, -2.155015707015991, -17.61956024169922, -0.810546875, -0.288330078125, -0.512451171875, 0, 
149, 1051212111, 0.26422974467277527, 0.7018587589263916, -0.27365991473197937, 0.6022324562072754, 9.539051055908203, 0.6652220487594604, -1.0881999731063843, -2.5758321285247803, -3.630882978439331, -17.271286010742188, -0.80908203125, -0.291748046875, -0.514404296875, 0, 
150, 1051220444, 0.2652248740196228, 0.7022253274917603, -0.27299535274505615, 0.6016688346862793, 9.652636528015137, 0.34640124440193176, -1.0276364088058472, -4.356815814971924, -4.208279132843018, -16.911020278930664, -0.8076171875, -0.297119140625, -0.513427734375, 0, 
151, 1051228777, 0.2663227617740631, 0.7025808095932007, -0.2724517285823822, 0.6010149121284485, 9.736984252929688, 0.6175427436828613, -1.4058876037597656, -6.740324974060059, -5.025937080383301, -16.940839767456055, -0.806640625, -0.300537109375, -0.513916015625, 0, 
152, 1051237110, 0.2673545777797699, 0.7028725743293762, -0.2718478739261627, 0.6004888415336609, 9.860762596130371, 0.5440150499343872, -1.4070566892623901, -5.346218109130859, -3.3117806911468506, -16.21157455444336, -0.8076171875, -0.302490234375, -0.512451171875, 0, 
153, 1051245443, 0.2685133218765259, 0.7030978202819824, -0.27136820554733276, 0.5999249815940857, 9.807940483093262, 0.7321036458015442, -1.5592302083969116, -7.996062278747559, -3.0909347534179688, -16.00783920288086, -0.80419921875, -0.304443359375, -0.511962890625, 0, 
154, 1051253776, 0.2695026695728302, 0.7033106684684753, -0.27082139253616333, 0.5994789004325867, 9.969087600708008, 0.5215006470680237, -1.2822844982147217, -5.399238586425781, -2.251786470413208, -14.719826698303223, -0.798828125, -0.30908203125, -0.510986328125, 0, 
155, 1051262109, 0.27057671546936035, 0.7034469246864319, -0.2703530192375183, 0.5990463495254517, 9.70004653930664, 0.7371422648429871, -1.4898560047149658, -7.107912540435791, -1.4443997144699097, -14.381280899047852, -0.79833984375, -0.315185546875, -0.514892578125, 0, 
156, 1051270442, 0.2716515064239502, 0.703563928604126, -0.2698647975921631, 0.5986424088478088, 9.987449645996094, 0.4020093083381653, -1.2247238159179688, -6.909658908843994, -0.9536565542221069, -14.343550682067871, -0.80029296875, -0.315185546875, -0.511962890625, 0, 
157, 1051278775, 0.27259641885757446, 0.7036991715431213, -0.26926499605178833, 0.5983240008354187, 9.925235748291016, 0.5536841750144958, -1.4807049036026, -4.357892036437988, -0.32218876481056213, -14.162384033203125, -0.798828125, -0.316650390625, -0.514892578125, 0, 
158, 1051287108, 0.2736908197402954, 0.7037965655326843, -0.2687051296234131, 0.5979613661766052, 10.116378784179688, 0.6714189052581787, -1.286875605583191, -6.429442882537842, -0.05172795429825783, -14.969922065734863, -0.796875, -0.321044921875, -0.514892578125, 0, 
159, 1051295441, 0.2747569680213928, 0.7039085626602173, -0.26818758249282837, 0.5975728034973145, 10.402691841125488, 0.7373600602149963, -1.7891976833343506, -6.5530314445495605, -0.6679809093475342, -14.539934158325195, -0.79638671875, -0.325439453125, -0.515869140625, 0, 
160, 1051303774, 0.2760651409626007, 0.7037463188171387, -0.26763322949409485, 0.5974095463752747, 10.175885200500488, 0.7622625827789307, -1.881250023841858, -8.790051460266113, 4.776927471160889, -14.964569091796875, -0.79541015625, -0.328857421875, -0.514892578125, 0, 
161, 1051312107, 0.2776419222354889, 0.7032932639122009, -0.2671266198158264, 0.5974392294883728, 10.956315994262695, 0.972041666507721, -2.414358377456665, -12.183684349060059, 9.86074161529541, -14.964905738830566, -0.7919921875, -0.33154296875, -0.519775390625, 0, 
162, 1051320440, 0.279651403427124, 0.702278733253479, -0.26660221815109253, 0.5979291796684265, 9.937569618225098, 0.7760555148124695, -1.9242808818817139, -16.667409896850586, 20.56635093688965, -14.81294059753418, -0.78857421875, -0.3349609375, -0.521240234375, 0, 
163, 1051328773, 0.28194302320480347, 0.7011690735816956, -0.26625484228134155, 0.5983099937438965, 10.183552742004395, 0.7488013505935669, -1.4100844860076904, -21.62316131591797, 20.663434982299805, -15.552837371826172, -0.7880859375, -0.3359375, -0.525146484375, 0, 
164, 1051337106, 0.28463613986968994, 0.6997788548469543, -0.2659723460674286, 0.5987880825996399, 9.91718578338623, 0.68475741147995, -1.411023736000061, -26.750173568725586, 25.115407943725586, -16.76765251159668, -0.78515625, -0.34033203125, -0.531494140625, 0, 
165, 1051345439, 0.28770411014556885, 0.6982479095458984, -0.2658655643463135, 0.5991563200950623, 10.05019760131836, 0.6769334077835083, -1.068131923675537, -32.76557540893555, 25.913944244384766, -18.138229370117188, -0.78125, -0.3408203125, -0.538330078125, 0, 
166, 1051353772, 0.29096925258636475, 0.6965610980987549, -0.2656833827495575, 0.5996236205101013, 10.055131912231445, 0.7012717723846436, -1.1127921342849731, -34.283512115478516, 29.154033660888672, -19.463623046875, -0.776123046875, -0.34814453125, -0.544189453125, 0, 
167, 1051362105, 0.29448452591896057, 0.6945816278457642, -0.2653582990169525, 0.6003472208976746, 10.221063613891602, 0.8911187648773193, -1.2169684171676636, -35.745819091796875, 35.52275848388672, -20.86150360107422, -0.774169921875, -0.3486328125, -0.548828125, 0, 
168, 1051370438, 0.29795628786087036, 0.6927734017372131, -0.2649219334125519, 0.6009159088134766, 9.983418464660645, 0.6979140639305115, -1.1714736223220825, -34.27724838256836, 32.905975341796875, -22.758853912353516, -0.768798828125, -0.353515625, -0.55810546875, 0, 
169, 1051378771, 0.3017128109931946, 0.6907505989074707, -0.2643676996231079, 0.6016138792037964, 9.873212814331055, 0.9846640229225159, -1.0558964014053345, -36.42991256713867, 37.44609832763672, -24.979679107666016, -0.767333984375, -0.35693359375, -0.564453125, 0, 
170, 1051387104, 0.3055705428123474, 0.6889074444770813, -0.26397326588630676, 0.6019532680511475, 9.784198760986328, 0.9545161724090576, -1.2652524709701538, -39.262699127197266, 32.245140075683594, -26.3856201171875, -0.7607421875, -0.36376953125, -0.57080078125, 0, 
171, 1051395437, 0.3096526563167572, 0.6869503259658813, -0.26353558897972107, 0.6022956371307373, 10.305908203125, 1.0255252122879028, -1.5065165758132935, -41.50740051269531, 34.226646423339844, -28.282190322875977, -0.7568359375, -0.36865234375, -0.58056640625, 0, 
172, 1051403770, 0.31388747692108154, 0.684939980506897, -0.2629985511302948, 0.602627694606781, 10.305817604064941, 0.9800618290901184, -1.1384357213974, -42.38488006591797, 35.53236389160156, -30.282264709472656, -0.751953125, -0.37060546875, -0.587890625, 0, 
173, 1051412103, 0.3182404637336731, 0.6831849217414856, -0.26249998807907104, 0.6025543808937073, 10.588685989379883, 0.8998681306838989, -0.9069617986679077, -44.18516159057617, 29.874038696289062, -33.62504196166992, -0.7490234375, -0.37841796875, -0.59521484375, 0, 
174, 1051420436, 0.3228870928287506, 0.6814526319503784, -0.2618851661682129, 0.602311372756958, 10.565560340881348, 0.8782346248626709, -0.851557731628418, -46.48984146118164, 29.646869659423828, -37.92115783691406, -0.744873046875, -0.38037109375, -0.600830078125, 0, 
175, 1051428769, 0.32774612307548523, 0.6798783540725708, -0.2611639201641083, 0.6017789840698242, 10.461995124816895, 0.8048855662345886, -0.49287742376327515, -47.94514083862305, 26.876436233520508, -42.58846664428711, -0.737060546875, -0.388916015625, -0.606689453125, 0, 
176, 1051437102, 0.33256348967552185, 0.678576648235321, -0.2601486146450043, 0.6010444760322571, 10.841755867004395, 0.584963321685791, -0.1158585324883461, -44.613739013671875, 23.893827438354492, -46.827945709228516, -0.731689453125, -0.394287109375, -0.613525390625, 0, 
177, 1051445435, 0.3376878499984741, 0.6773874163627625, -0.2589508295059204, 0.6000452637672424, 10.682973861694336, 0.3328108787536621, 0.25194448232650757, -46.40638732910156, 22.440174102783203, -52.734901428222656, -0.728759765625, -0.403564453125, -0.618408203125, 0, 
178, 1051453768, 0.34294837713241577, 0.6765807867050171, -0.2575341463088989, 0.5985795259475708, 11.014413833618164, 0.3494642376899719, 0.5793301463127136, -45.751033782958984, 16.423391342163086, -59.376644134521484, -0.718017578125, -0.408935546875, -0.626220703125, 0, 
179, 1051462101, 0.34810906648635864, 0.6762531995773315, -0.2556871771812439, 0.5967597365379333, 11.475699424743652, 0.25550922751426697, 0.3512590825557709, -40.27790069580078, 10.876477241516113, -65.97518157958984, -0.713623046875, -0.422607421875, -0.631103515625, 0, 
180, 1051470434, 0.3537052869796753, 0.6759931445121765, -0.25345534086227417, 0.5947121977806091, 11.267257690429688, 0.09277784824371338, 0.37281858921051025, -41.64277648925781, 11.559932708740234, -74.40984344482422, -0.703369140625, -0.4326171875, -0.635986328125, 0, 
181, 1051478767, 0.3592377305030823, 0.6762800812721252, -0.2506973147392273, 0.5922337770462036, 11.842930793762207, 0.2790513336658478, 0.5413230657577515, -35.59311294555664, 5.435891628265381, -82.82878875732422, -0.69970703125, -0.44482421875, -0.641845703125, 0, 
182, 1051487100, 0.36496177315711975, 0.6768643856048584, -0.2473568618297577, 0.5894646644592285, 12.082038879394531, 0.24704940617084503, 0.34601399302482605, -32.1592903137207, 3.827080488204956, -92.22862243652344, -0.689697265625, -0.4609375, -0.639892578125, 0, 
183, 1051495433, 0.37104299664497375, 0.6776571869850159, -0.24346548318862915, 0.5863692760467529, 12.527612686157227, 0.3403233587741852, 0.1405312418937683, -31.087783813476562, 3.101454019546509, -102.63600158691406, -0.678466796875, -0.47607421875, -0.6455078125, 0, 
184, 1051503766, 0.377162903547287, 0.6786080002784729, -0.23853261768817902, 0.5833849310874939, 12.939821243286133, 0.20447352528572083, 0.19510821998119354, -21.862117767333984, 8.279768943786621, -112.5871353149414, -0.667724609375, -0.492919921875, -0.654296875, 0, 
185, 1051512099, 0.3832211196422577, 0.6800413131713867, -0.23260505497455597, 0.5801525712013245, 13.262731552124023, 0.16780242323875427, 0.27578413486480713, -11.626885414123535, 7.078668117523193, -124.27287292480469, -0.653564453125, -0.510986328125, -0.6552734375, 0, 
186, 1051520432, 0.3896111845970154, 0.6817847490310669, -0.22588305175304413, 0.5764945149421692, 13.655158996582031, 0.47129133343696594, -0.5321739315986633, -8.10974407196045, 5.84250020980835, -137.56838989257812, -0.643310546875, -0.533203125, -0.6572265625, 0, 
187, 1051528765, 0.39626097679138184, 0.683660089969635, -0.21810588240623474, 0.5727237462997437, 14.213715553283691, 0.7673651576042175, -1.4522418975830078, -1.832005262374878, 10.228789329528809, -150.5518798828125, -0.62890625, -0.5556640625, -0.658203125, 0, 
188, 1051537098, 0.4032241404056549, 0.685597836971283, -0.20918066799640656, 0.568863570690155, 14.574983596801758, 0.5043689608573914, -1.7865506410598755, 4.345303535461426, 16.063098907470703, -164.48318481445312, -0.611328125, -0.583251953125, -0.66259765625, 0, 
189, 1051545431, 0.4103080928325653, 0.6876533627510071, -0.19884039461612701, 0.5650124549865723, 15.661317825317383, 0.026913387700915337, -1.3866335153579712, 14.945903778076172, 23.449920654296875, -179.06639099121094, -0.59130859375, -0.60986328125, -0.6640625, 0, 
190, 1051553764, 0.41754624247550964, 0.6899116039276123, -0.18698666989803314, 0.5609899163246155, 16.67641258239746, -0.5773196220397949, -1.4398434162139893, 25.932252883911133, 29.192317962646484, -196.10580444335938, -0.57275390625, -0.640625, -0.669921875, 0, 
191, 1051562097, 0.4252048134803772, 0.69227135181427, -0.1734892725944519, 0.5566501021385193, 18.134254455566406, -0.7239398956298828, -2.3171653747558594, 34.38105392456055, 35.94215774536133, -217.0204315185547, -0.544189453125, -0.67236328125, -0.671630859375, 0, 
192, 1051570430, 0.434540331363678, 0.6940066814422607, -0.15889455378055573, 0.5516143441200256, 18.48145866394043, -0.2755850553512573, -4.586406230926514, 21.513559341430664, 44.495845794677734, -242.91844177246094, -0.515869140625, -0.708251953125, -0.676025390625, 0, 
193, 1051578763, 0.4460129737854004, 0.6945403218269348, -0.14312772452831268, 0.5460742115974426, 18.899951934814453, 0.40575966238975525, -6.536703586578369, 1.7168076038360596, 60.49233627319336, -270.67987060546875, -0.484130859375, -0.74462890625, -0.681884765625, 0, 
194, 1051587096, 0.4585462808609009, 0.6942805051803589, -0.1255895048379898, 0.5403087139129639, 20.693349838256836, 0.5334863662719727, -6.228945732116699, -0.41766157746315, 77.24537658691406, -295.448486328125, -0.442626953125, -0.78369140625, -0.69580078125, 0, 
195, 1051595429, 0.47167181968688965, 0.6935162544250488, -0.10623272508382797, 0.5341086387634277, 21.42552375793457, -0.3599863052368164, -6.283807277679443, 3.5030086040496826, 89.34571075439453, -319.0282897949219, -0.402587890625, -0.82373046875, -0.70556640625, 0, 
196, 1051603762, 0.4867202639579773, 0.6916009187698364, -0.08568738400936127, 0.5267309546470642, 21.544145584106445, -0.6401830315589905, -5.387144565582275, -15.29682731628418, 97.1017837524414, -350.5494384765625, -0.350830078125, -0.862548828125, -0.718505859375, 0, 
197, 1051612095, 0.505400538444519, 0.6872075200080872, -0.06497786939144135, 0.5177745223045349, 23.291959762573242, 1.4628247022628784, -3.59727144241333, -67.10108184814453, 105.4049301147461, -385.98406982421875, -0.296142578125, -0.899658203125, -0.73828125, 0, 
198, 1051620428, 0.5240203738212585, 0.6826530694961548, -0.04348219931125641, 0.5074376463890076, 24.0992431640625, 2.906383752822876, -5.89146089553833, -63.299720764160156, 98.95335388183594, -402.5829162597656, -0.23681640625, -0.93505859375, -0.758544921875, 0, 
199, 1051628761, 0.5398213267326355, 0.677517294883728, -0.019107265397906303, 0.49919393658638, 26.12381935119629, 2.978649616241455, -3.019080638885498, -19.660247802734375, 141.69349670410156, -394.36566162109375, -0.172607421875, -0.97265625, -0.776123046875, 0, 
200, 1051637094, 0.5566304326057434, 0.6711660027503967, 0.0049189915880560875, 0.4895620346069336, 21.81049919128418, 3.5462262630462646, 1.750341773033142, -40.86748123168945, 134.8295135498047, -408.2253112792969, -0.111083984375, -1.004638671875, -0.78662109375, 0, 
201, 1051645427, 0.5722666382789612, 0.6674478054046631, 0.027274083346128464, 0.4756857752799988, 20.271358489990234, 5.105569839477539, -2.691943407058716, -20.818622589111328, 65.15528106689453, -417.0172119140625, -0.037109375, -1.031982421875, -0.803955078125, 0, 
202, 1051653760, 0.5814540982246399, 0.6685882806777954, 0.05082014948129654, 0.46077606081962585, 20.308856964111328, 1.9311585426330566, -4.871184825897217, 84.769775390625, 35.73051834106445, -392.32196044921875, 0.017822265625, -1.064453125, -0.80029296875, 0, 
203, 1051662093, 0.5903434753417969, 0.6707394123077393, 0.07261093705892563, 0.4430883824825287, 20.528894424438477, -3.860193967819214, -0.6582549810409546, 86.44217681884766, -10.105557441711426, -395.5454406738281, 0.076416015625, -1.09423828125, -0.787109375, 0, 
204, 1051670426, 0.6059792041778564, 0.6688466668128967, 0.09107985347509384, 0.4208734333515167, 22.16147804260254, -4.804073333740234, -3.377892255783081, -24.40427017211914, -60.8737678527832, -447.1365051269531, 0.138671875, -1.118408203125, -0.781494140625, 0, 
205, 1051678759, 0.6206544041633606, 0.6637190580368042, 0.1122150644659996, 0.40208157896995544, 13.352279663085938, -0.32726213335990906, -7.128897666931152, -31.328889846801758, 12.704137802124023, -441.3140563964844, 0.201416015625, -1.133056640625, -0.785400390625, 0, 
206, 1051687092, 0.6324650049209595, 0.6600562930107117, 0.12872232496738434, 0.38437068462371826, 4.669861316680908, 1.2407740354537964, -7.386078834533691, -20.00347328186035, -20.540773391723633, -372.1069030761719, 0.259521484375, -1.143310546875, -0.7900390625, 0, 
207, 1051695425, 0.639678418636322, 0.6574409008026123, 0.13828447461128235, 0.3734394311904907, -1.6841827630996704, -13.615771293640137, -9.105731010437012, -17.8061580657959, -16.875242233276367, -223.52279663085938, 0.30322265625, -1.150146484375, -0.792236328125, 0, 
208, 1051703758, 0.6486425399780273, 0.6504324078559875, 0.14060050249099731, 0.3693622052669525, -6.215289115905762, -3.249833106994629, 1.2761718034744263, -122.63006591796875, 0.6635916829109192, -115.47625732421875, 0.326171875, -1.146728515625, -0.807861328125, 0, 
209, 1051712091, 0.6520152688026428, 0.6493496298789978, 0.13305747509002686, 0.3681214451789856, 13.692291259765625, 0.559893786907196, -5.448074817657471, -75.21842956542969, -81.27703094482422, 38.28936004638672, 0.321533203125, -1.14306640625, -0.819091796875, 0, 
210, 1051720424, 0.651512861251831, 0.6487859487533569, 0.12435714900493622, 0.3730144500732422, 9.12405776977539, -10.077479362487793, -5.184823989868164, -53.16059875488281, -32.32383728027344, 123.77801513671875, 0.302978515625, -1.139892578125, -0.827392578125, 0, 
211, 1051728757, 0.6493459939956665, 0.649080753326416, 0.11486152559518814, 0.3792722821235657, 8.344640731811523, -9.02793025970459, -6.017791748046875, -36.91279602050781, -28.926145553588867, 153.5184326171875, 0.27490234375, -1.131591796875, -0.834228515625, 0, 
212, 1051737090, 0.6468483805656433, 0.6491011381149292, 0.10585469752550125, 0.38606497645378113, 6.8965911865234375, -7.49642276763916, -5.885954856872559, -34.841609954833984, -17.713550567626953, 154.76910400390625, 0.2451171875, -1.127685546875, -0.839111328125, 0, 
213, 1051745423, 0.6449956297874451, 0.6491413116455078, 0.09695339947938919, 0.3913983702659607, 4.272417068481445, -6.85655403137207, -4.299045562744141, -37.60309600830078, -30.96268653869629, 137.90585327148438, 0.2216796875, -1.122314453125, -0.8427734375, 0, 
214, 1051753756, 0.6434646844863892, 0.6498329639434814, 0.08773503452539444, 0.3949297070503235, 3.146249532699585, -6.167884826660156, -3.9757986068725586, -34.152626037597656, -53.65789031982422, 123.3988037109375, 0.1904296875, -1.1123046875, -0.849609375, 0, 
215, 1051762089, 0.6424906849861145, 0.6506239175796509, 0.07784505933523178, 0.39727967977523804, 1.7835625410079956, -5.282561302185059, -3.723088026046753, -40.32109069824219, -71.5098876953125, 116.53050231933594, 0.1611328125, -1.10888671875, -0.849609375, 0, 
216, 1051770422, 0.6407249569892883, 0.6524516940116882, 0.0670652687549591, 0.39909517765045166, 2.9985597133636475, -5.318662643432617, -3.246065855026245, -28.531179428100586, -88.81047821044922, 124.69956970214844, 0.13525390625, -1.09912109375, -0.85546875, 0, 
217, 1051778755, 0.6380239725112915, 0.654655396938324, 0.055937062948942184, 0.4015212655067444, 4.606272220611572, -5.727385997772217, -2.808709144592285, -19.13738441467285, -87.76395416259766, 139.1935577392578, 0.10302734375, -1.08642578125, -0.851806640625, 0, 
218, 1051787088, 0.6338518261909485, 0.6573309302330017, 0.044650599360466, 0.40515509247779846, 5.610651969909668, -6.230011940002441, -2.5296006202697754, -3.7373881340026855, -79.57483673095703, 159.18365478515625, 0.07373046875, -1.07958984375, -0.849365234375, 0, 
219, 1051795421, 0.6279458403587341, 0.6604664921760559, 0.033433325588703156, 0.4103009104728699, 6.183211326599121, -6.5948076248168945, -2.33030366897583, 15.585143089294434, -66.97988891601562, 182.19869995117188, 0.038818359375, -1.070556640625, -0.8408203125, 0, 
220, 1051803754, 0.6201342344284058, 0.6641266942024231, 0.022038500756025314, 0.4169890582561493, 5.992208957672119, -6.661182880401611, -2.0867669582366943, 35.52705001831055, -56.39823913574219, 207.58460998535156, 0.005126953125, -1.060791015625, -0.8349609375, 0, 
221, 1051812087, 0.6105470657348633, 0.668387770652771, 0.010044104419648647, 0.42471829056739807, 5.516911029815674, -6.536357402801514, -1.8779808282852173, 53.299434661865234, -55.10260772705078, 232.8464813232422, -0.033203125, -1.048095703125, -0.824462890625, 0, 
222, 1051820420, 0.5993795394897461, 0.673328161239624, -0.0029737725853919983, 0.43285229802131653, 5.199434757232666, -6.154988765716553, -2.0019402503967285, 67.311279296875, -63.524776458740234, 254.40798950195312, -0.07421875, -1.03466796875, -0.810791015625, 0, 
223, 1051828753, 0.5869786143302917, 0.678837239742279, -0.01694883033633232, 0.4408462941646576, 5.486159324645996, -5.799940586090088, -2.3264782428741455, 77.90460205078125, -76.3489990234375, 270.0111389160156, -0.119384765625, -1.0205078125, -0.79541015625, 0, 
224, 1051837086, 0.5735686421394348, 0.6847835779190063, -0.03176313638687134, 0.44841715693473816, 6.261570453643799, -5.445955753326416, -2.585690498352051, 85.47978973388672, -89.75030517578125, 279.84527587890625, -0.1640625, -1.001953125, -0.777099609375, 0, 
225, 1051845419, 0.5594151616096497, 0.6909305453300476, -0.04710179567337036, 0.4554639160633087, 7.219724655151367, -4.931241989135742, -2.7784132957458496, 90.78985595703125, -100.59515380859375, 285.752197265625, -0.210693359375, -0.984130859375, -0.760986328125, 0, 
226, 1051853752, 0.5445050597190857, 0.6971197128295898, -0.06290696561336517, 0.4621444344520569, 8.188880920410156, -4.31189489364624, -3.0198895931243896, 94.95353698730469, -108.20182037353516, 291.44696044921875, -0.2587890625, -0.966552734375, -0.73291015625, 0, 
227, 1051862085, 0.5289156436920166, 0.7030381560325623, -0.07902997732162476, 0.4687604010105133, 9.108179092407227, -3.685025215148926, -3.0196189880371094, 97.55518341064453, -110.28690338134766, 299.1976013183594, -0.305908203125, -0.946533203125, -0.706298828125, 0, 
228, 1051870418, 0.5125139951705933, 0.7085495591163635, -0.0956803485751152, 0.47552984952926636, 10.162217140197754, -2.9545700550079346, -3.2032077312469482, 99.01741790771484, -110.67350769042969, 310.4273376464844, -0.3583984375, -0.92236328125, -0.6806640625, 0, 
229, 1051878751, 0.4953351616859436, 0.7134819626808167, -0.11296345293521881, 0.48251670598983765, 11.211650848388672, -2.306759834289551, -3.319160223007202, 98.85587310791016, -110.47539520263672, 324.6387023925781, -0.414306640625, -0.89111328125, -0.651123046875, 0, 
230, 1051887084, 0.47730961441993713, 0.7177330255508423, -0.13105621933937073, 0.4897504448890686, 12.212079048156738, -1.7908657789230347, -3.38065242767334, 97.32715606689453, -110.1329345703125, 340.24481201171875, -0.46826171875, -0.853759765625, -0.6171875, 0, 
231, 1051895417, 0.4586394727230072, 0.721285343170166, -0.14996790885925293, 0.49689367413520813, 13.224649429321289, -1.5118541717529297, -3.5471556186676025, 93.63337707519531, -113.08960723876953, 354.0402526855469, -0.522216796875, -0.812744140625, -0.580322265625, 0, 
232, 1051903750, 0.4397066533565521, 0.7239997386932373, -0.1696585714817047, 0.5036813616752625, 14.589435577392578, -1.1917750835418701, -3.797940492630005, 84.68079376220703, -116.10395812988281, 362.3176574707031, -0.568359375, -0.759521484375, -0.54541015625, 0, 
233, 1051912083, 0.42018163204193115, 0.7261298894882202, -0.1896669566631317, 0.5101036429405212, 15.90031623840332, -0.7772290110588074, -3.9004900455474854, 84.20695495605469, -119.24105834960938, 369.4715576171875, -0.610595703125, -0.70068359375, -0.503662109375, 0, 
234, 1051920416, 0.40055668354034424, 0.7274172306060791, -0.20998471975326538, 0.5160634517669678, 17.0480899810791, -0.39607125520706177, -3.8317153453826904, 76.73629760742188, -119.73970794677734, 372.025146484375, -0.6455078125, -0.647705078125, -0.472900390625, 0, 
235, 1051928749, 0.3811133801937103, 0.7277836203575134, -0.23046648502349854, 0.5215030908584595, 18.630285263061523, 0.7203676700592041, -4.160129070281982, 67.3993911743164, -119.04268646240234, 372.93304443359375, -0.677490234375, -0.599853515625, -0.4375, 0, 
236, 1051937082, 0.3611217141151428, 0.7274985313415527, -0.251102089881897, 0.5265750288963318, 19.316925048828125, 1.1817612648010254, -3.9795193672180176, 66.9808349609375, -120.32720184326172, 377.75994873046875, -0.71484375, -0.54736328125, -0.393310546875, 0, 
237, 1051945415, 0.3412344753742218, 0.7264425158500671, -0.27208131551742554, 0.5308564305305481, 20.184703826904297, 1.3774420022964478, -3.5956430435180664, 57.1134033203125, -124.26959991455078, 379.96380615234375, -0.755126953125, -0.490478515625, -0.3427734375, 0, 
238, 1051953748, 0.3211217522621155, 0.7248412370681763, -0.2933392822742462, 0.5342608690261841, 22.915205001831055, 2.4745335578918457, -3.603569507598877, 51.264190673828125, -130.91787719726562, 381.52008056640625, -0.7958984375, -0.416015625, -0.295654296875, 0, 
239, 1051962081, 0.30083340406417847, 0.7225115895271301, -0.31419575214385986, 0.537358283996582, 24.219213485717773, 2.358593463897705, -3.0991835594177246, 51.735572814941406, -127.84436798095703, 381.1887512207031, -0.81884765625, -0.331298828125, -0.246337890625, 0, 
240, 1051970414, 0.2800218164920807, 0.7196009159088135, -0.33416688442230225, 0.540454626083374, 27.532934188842773, 3.6935417652130127, -2.8687727451324463, 60.84591293334961, -121.86793518066406, 377.960693359375, -0.8212890625, -0.241943359375, -0.20361328125, 0, 
241, 1051978747, 0.25917142629623413, 0.715656578540802, -0.35263803601264954, 0.5443424582481384, 27.96257972717285, 4.695525169372559, -2.6316723823547363, 72.25994873046875, -101.04232025146484, 372.00408935546875, -0.8154296875, -0.162353515625, -0.17578125, 0, 
242, 1051987080, 0.23852157592773438, 0.7107490301132202, -0.3695763647556305, 0.5489564538002014, 27.22728157043457, 6.826364994049072, -2.6297852993011475, 81.63029479980469, -79.96726989746094, 361.8803405761719, -0.8125, -0.094482421875, -0.1484375, 0, 
243, 1051995413, 0.21865148842334747, 0.7054292559623718, -0.3852100372314453, 0.553327202796936, 25.952360153198242, 9.835944175720215, -3.023574113845825, 81.48738861083984, -71.26826477050781, 345.3252258300781, -0.8125, -0.03076171875, -0.1171875, 0, 
244, 1052003746, 0.19975493848323822, 0.7000882625579834, -0.39981332421302795, 0.5568844079971313, 24.804664611816406, 13.288834571838379, -3.754821300506592, 75.31212615966797, -70.48235321044922, 324.8193359375, -0.8173828125, 0.045166015625, -0.08251953125, 0, 
245, 1052012079, 0.18217062950134277, 0.6949599981307983, -0.41336923837661743, 0.5594345927238464, 23.229690551757812, 17.83722686767578, -3.5555734634399414, 65.94120788574219, -71.97502899169922, 301.5074462890625, -0.805908203125, 0.1416015625, -0.0517578125, 0, 
246, 1052020412, 0.16562266647815704, 0.6905036568641663, -0.4259200692176819, 0.5606803894042969, 20.959280014038086, 20.635499954223633, -2.120859384536743, 57.86426544189453, -80.95801544189453, 276.1388244628906, -0.77880859375, 0.23828125, -0.02734375, 0, 
247, 1052028745, 0.15013493597507477, 0.6869189739227295, -0.4370409846305847, 0.560886561870575, 19.233257293701172, 23.10898780822754, 0.002112776041030884, 54.8889274597168, -88.32491302490234, 247.6054229736328, -0.72900390625, 0.326171875, -0.017822265625, 0, 
248, 1052037078, 0.1359177976846695, 0.684194803237915, -0.44640854001045227, 0.5604639649391174, 17.888639450073242, 24.922836303710938, 2.361372470855713, 54.269287109375, -89.4258804321289, 214.16880798339844, -0.659912109375, 0.395751953125, -0.028564453125, 0, 
249, 1052045411, 0.12371866405010223, 0.6819925308227539, -0.4536510705947876, 0.5601581931114197, 16.86702537536621, 26.463428497314453, 4.415888786315918, 53.49113082885742, -76.20584869384766, 176.23095703125, -0.593017578125, 0.44091796875, -0.0419921875, 0, 
250, 1052053744, 0.11448590457439423, 0.6801231503486633, -0.4588029682636261, 0.5601981282234192, 14.592214584350586, 29.390968322753906, 6.451793670654297, 44.378196716308594, -53.2727165222168, 131.80230712890625, -0.540283203125, 0.473388671875, -0.066162109375, 0, 
251, 1052062077, 0.10760851204395294, 0.6792987585067749, -0.4617512822151184, 0.5601392388343811, 12.663137435913086, 33.90568161010742, 7.310951232910156, 40.46492385864258, -44.108951568603516, 86.77690887451172, -0.493408203125, 0.4873046875, -0.09033203125, 0, 
252, 1052070410, 0.10303102433681488, 0.6792274713516235, -0.46268799901008606, 0.5603134036064148, 12.565793991088867, 36.69603729248047, 7.513200283050537, 36.99239730834961, -30.009122848510742, 45.47438049316406, -0.45947265625, 0.4921875, -0.112060546875, 0, 
253, 1052078743, 0.10017185658216476, 0.6798383593559265, -0.4613918662071228, 0.5611591339111328, 11.701253890991211, 38.729557037353516, 7.083184719085693, 43.46271896362305, -15.038823127746582, 8.345568656921387, -0.434326171875, 0.493896484375, -0.132568359375, 0, 
254, 1052087076, 0.09935720264911652, 0.6813343167304993, -0.4580494463443756, 0.5622266530990601, 11.99187183380127, 36.011131286621094, 7.157894611358643, 42.721702575683594, -3.9071922302246094, -32.081565856933594, -0.41796875, 0.48681640625, -0.1484375, 0, 
255, 1052095409, 0.10054127871990204, 0.6859138011932373, -0.4515111446380615, 0.561736524105072, 24.764423370361328, 27.342287063598633, 6.4038286209106445, 43.150001525878906, -25.48179054260254, -98.82118225097656, -0.407470703125, 0.48583984375, -0.1650390625, 0, 
256, 1052103742, 0.12282192707061768, 0.6884894967079163, -0.4389897584915161, 0.5640757083892822, 48.3535270690918, 27.398317337036133, 10.760948181152344, -94.84207916259766, 156.0174560546875, -301.9697570800781, -0.41650390625, 0.454833984375, -0.1708984375, 0, 
257, 1052112075, 0.14080928266048431, 0.6930959224700928, -0.4288223683834076, 0.562048614025116, -17.915626525878906, -2.1892552375793457, -5.783468246459961, -95.37384796142578, 68.96455383300781, -265.9297180175781, -0.43505859375, 0.420654296875, -0.18896484375, 0, 
258, 1052120408, 0.15831762552261353, 0.6927471160888672, -0.41261929273605347, 0.5698936581611633, 37.28201675415039, -7.002974987030029, -5.814582824707031, 4.488694667816162, 210.21839904785156, -271.3562316894531, -0.45068359375, 0.387939453125, -0.2080078125, 0, 
259, 1052128741, 0.17599906027317047, 0.6967092156410217, -0.3928086459636688, 0.5738629698753357, 16.89162826538086, -17.66695785522461, -6.511951446533203, 18.488449096679688, 148.36257934570312, -340.06243896484375, -0.46484375, 0.347900390625, -0.2373046875, 0, 
260, 1052137074, 0.19147346913814545, 0.7037166357040405, -0.37127360701560974, 0.574694037437439, 13.809762001037598, -0.48692771792411804, 5.6188435554504395, 43.68085861206055, 86.49887084960938, -363.15478515625, -0.47900390625, 0.299560546875, -0.26416015625, 0, 
261, 1052145407, 0.2064381092786789, 0.7084585428237915, -0.35393786430358887, 0.5746252536773682, 14.05795955657959, 18.068117141723633, 7.27647066116333, 4.845677375793457, 82.04118347167969, -309.33477783203125, -0.49169921875, 0.257568359375, -0.2783203125, 0, 
262, 1052153740, 0.22016066312789917, 0.7079607248306274, -0.3411048650741577, 0.5778968930244446, 15.131613731384277, 13.025613784790039, -3.162956476211548, -17.243440628051758, 137.14059448242188, -220.60971069335938, -0.49853515625, 0.2236328125, -0.30029296875, 0, 
263, 1052162073, 0.23060595989227295, 0.7065577507019043, -0.3312736749649048, 0.5812499523162842, 13.616185188293457, 1.398666501045227, -5.798948764801025, -11.559900283813477, 120.68292999267578, -160.88287353515625, -0.501220703125, 0.200439453125, -0.31787109375, 0, 
264, 1052170406, 0.23793259263038635, 0.7057340741157532, -0.3216666877269745, 0.5846832990646362, 14.672914505004883, 1.476539134979248, -9.222935676574707, 19.175209045410156, 101.87482452392578, -136.05831909179688, -0.506591796875, 0.18212890625, -0.3369140625, 0, 
265, 1052178739, 0.24210964143276215, 0.7040951251983643, -0.311117947101593, 0.59062260389328, 10.903786659240723, 2.2673730850219727, -5.1446943283081055, 65.71311950683594, 121.93912506103516, -108.16805267333984, -0.505615234375, 0.16162109375, -0.35498046875, 0, 
266, 1052187072, 0.24517087638378143, 0.701867401599884, -0.30140721797943115, 0.5970120429992676, 9.274625778198242, 4.91485595703125, 0.5381461977958679, 69.69139862060547, 123.49199676513672, -86.8684310913086, -0.50537109375, 0.149169921875, -0.380859375, 0, 
267, 1052195405, 0.2474651336669922, 0.7002615928649902, -0.2948346436023712, 0.601218581199646, 8.71972942352295, 5.905635356903076, 3.8523638248443604, 44.362449645996094, 83.57927703857422, -60.32343292236328, -0.502197265625, 0.136474609375, -0.399169921875, 0, 
268, 1052203738, 0.2485000491142273, 0.6996415853500366, -0.2908474802970886, 0.6034513115882874, 9.769233703613281, 3.3351004123687744, 1.323127031326294, 30.48186683654785, 42.499237060546875, -35.612709045410156, -0.506591796875, 0.12744140625, -0.406005859375, 0, 
269, 1052212071, 0.24940073490142822, 0.6992879509925842, -0.2880268096923828, 0.6048409342765808, 9.792489051818848, 0.23048026859760284, -1.035137414932251, 19.613903045654297, 27.672821044921875, -27.33805274963379, -0.506591796875, 0.123046875, -0.411865234375, 0, 
270, 1052220404, 0.24992898106575012, 0.6986825466156006, -0.28512969613075256, 0.6066925525665283, 9.517330169677734, 0.5074344873428345, -0.1423228234052658, 24.816526412963867, 32.964481353759766, -22.267330169677734, -0.504150390625, 0.1201171875, -0.417236328125, 0, 
271, 1052228737, 0.25118476152420044, 0.6980409622192383, -0.2835541367530823, 0.6076500415802002, 9.157525062561035, 1.699472427368164, 1.9193098545074463, 3.1526284217834473, 23.015920639038086, -18.696857452392578, -0.506103515625, 0.11328125, -0.421630859375, 0, 
272, 1052237070, 0.25253286957740784, 0.6978731751441956, -0.28291285037994385, 0.6075829267501831, 9.552384376525879, 0.3997058570384979, -0.09726208448410034, -7.882411479949951, 6.323464393615723, -15.76427173614502, -0.507568359375, 0.11181640625, -0.424072265625, 0, 
273, 1052245403, 0.2538053095340729, 0.6976957321166992, -0.28211721777915955, 0.6076265573501587, 10.497771263122559, 0.023463329300284386, -2.436342477798462, -5.486481189727783, 7.740137100219727, -16.31367301940918, -0.503662109375, 0.10986328125, -0.428955078125, 0, 
274, 1052253736, 0.2550494074821472, 0.6976656913757324, -0.2812884449958801, 0.6075243353843689, 9.881839752197266, -0.05247160419821739, -0.41703423857688904, -4.973428249359131, 5.07756233215332, -17.35468864440918, -0.507568359375, 0.10546875, -0.425537109375, 0, 
275, 1052262069, 0.2561456263065338, 0.6981382369995117, -0.2805353105068207, 0.6068682670593262, 9.916095733642578, -0.03159469738602638, -0.7543532252311707, -4.582503795623779, -5.2353081703186035, -19.401445388793945, -0.505126953125, 0.10400390625, -0.426513671875, 0, 
276, 1052270402, 0.25702548027038574, 0.6987643241882324, -0.27951157093048096, 0.6062476634979248, 10.736988067626953, -0.11930312216281891, -3.124621629714966, 0.4460977613925934, -6.091362476348877, -20.54520034790039, -0.504638671875, 0.10107421875, -0.426513671875, 0, 
277, 1052278735, 0.25835180282592773, 0.6989454627037048, -0.2782614231109619, 0.6060501337051392, 10.72286605834961, 0.3465179204940796, -2.9581382274627686, -1.9166501760482788, 4.233189582824707, -23.353010177612305, -0.509033203125, 0.096923828125, -0.428955078125, 0, 
278, 1052287068, 0.25886303186416626, 0.6991309523582458, -0.2765853703022003, 0.6063851714134216, 10.21158218383789, 0.8323029279708862, -1.6099170446395874, 11.533430099487305, 7.677870273590088, -18.667573928833008, -0.507080078125, 0.095458984375, -0.427978515625, 0, 
279, 1052295401, 0.26012805104255676, 0.6991481184959412, -0.2753527760505676, 0.6063849329948425, 9.706694602966309, 0.173819437623024, -0.9762502312660217, -1.299628496170044, 7.17957067489624, -21.3548641204834, -0.508544921875, 0.089599609375, -0.427490234375, 0, 
280, 1052303734, 0.26096197962760925, 0.6992037296295166, -0.2738863527774811, 0.6066265106201172, 10.105152130126953, 0.8332341909408569, -1.9840059280395508, 5.860180377960205, 8.361128807067871, -19.182031631469727, -0.507080078125, 0.085693359375, -0.429443359375, 0, 
281, 1052312067, 0.2620666027069092, 0.6991239786148071, -0.272627055644989, 0.6068095564842224, 9.791866302490234, -0.09082423150539398, -0.9446514248847961, 0.8101529479026794, 9.23081111907959, -19.255292892456055, -0.508056640625, 0.083740234375, -0.434326171875, 0, 
282, 1052320400, 0.26287078857421875, 0.699167013168335, -0.2712158262729645, 0.6070444583892822, 10.042046546936035, 0.5585157871246338, -1.7163845300674438, 5.616691589355469, 8.0993013381958, -18.379772186279297, -0.508544921875, 0.079345703125, -0.431884765625, 0, 
283, 1052328733, 0.2641761004924774, 0.6990602016448975, -0.26997315883636475, 0.6071547865867615, 10.364814758300781, -0.014033354818820953, -2.2574610710144043, -1.626927375793457, 9.439568519592285, -20.934921264648438, -0.510009765625, 0.073486328125, -0.436279296875, 0, 
284, 1052337066, 0.2654321491718292, 0.6987180113792419, -0.2686351239681244, 0.6075940132141113, 10.291101455688477, 0.7883556485176086, -1.8188484907150269, 0.022181937471032143, 14.702140808105469, -19.276451110839844, -0.509033203125, 0.072509765625, -0.440185546875, 0, 
285, 1052345399, 0.2671932280063629, 0.6980838775634766, -0.2675970196723938, 0.6080090403556824, 10.542163848876953, 0.8058772087097168, -1.7542812824249268, -8.506070137023926, 17.70492935180664, -19.720911026000977, -0.510498046875, 0.0693359375, -0.443603515625, 0, 
286, 1052353732, 0.2696378529071808, 0.6967561841011047, -0.2667984962463379, 0.6088032722473145, 11.87920093536377, 0.8945758938789368, -2.3336217403411865, -18.2123966217041, 28.761775970458984, -19.100984573364258, -0.509033203125, 0.0625, -0.445068359375, 0, 
287, 1052362065, 0.27255767583847046, 0.6948070526123047, -0.2661644220352173, 0.6100072860717773, 9.139606475830078, 0.5405402779579163, -0.6540683507919312, -24.953760147094727, 39.04229736328125, -17.791288375854492, -0.506103515625, 0.05712890625, -0.453857421875, 0, 
288, 1052370398, 0.2753189206123352, 0.6931707262992859, -0.2656823992729187, 0.6108381152153015, 9.56184196472168, 0.46021074056625366, -0.8861196041107178, -24.897703170776367, 31.684141159057617, -17.467975616455078, -0.507568359375, 0.0556640625, -0.452880859375, 0, 
289, 1052378731, 0.2780097424983978, 0.6915292739868164, -0.2651180028915405, 0.6117244958877563, 9.171086311340332, 0.3770412504673004, -0.6789699792861938, -23.361513137817383, 32.33249282836914, -17.517385482788086, -0.5068359375, 0.0517578125, -0.459716796875, 0, 
290, 1052387064, 0.2804858088493347, 0.6903416514396667, -0.2646220922470093, 0.6121501326560974, 9.27444839477539, 0.4973389208316803, 0.19994035363197327, -21.83209800720215, 23.067873001098633, -18.393537521362305, -0.5078125, 0.04833984375, -0.461181640625, 0, 
291, 1052395397, 0.2827410101890564, 0.6893438696861267, -0.264029324054718, 0.6124929189682007, 9.234427452087402, 0.6484060287475586, -0.10066191852092743, -18.49770736694336, 20.271713256835938, -18.54765510559082, -0.50732421875, 0.044921875, -0.465087890625, 0, 
292, 1052403730, 0.2850847542285919, 0.6884310245513916, -0.26347506046295166, 0.612671971321106, 10.21134090423584, 0.547878086566925, -0.42515960335731506, -19.915048599243164, 18.154619216918945, -19.794893264770508, -0.5068359375, 0.04296875, -0.468994140625, 0, 
293, 1052412063, 0.2873564660549164, 0.6879262328147888, -0.2629918158054352, 0.6123851537704468, 8.705617904663086, 0.23913122713565826, 0.33215776085853577, -19.929107666015625, 9.786285400390625, -21.89853858947754, -0.50830078125, 0.0400390625, -0.470947265625, 0, 
294, 1052420396, 0.2893964648246765, 0.688102126121521, -0.2623933255672455, 0.6114830374717712, 9.83432674407959, 0.31496718525886536, 0.47467124462127686, -16.29582977294922, -2.166159152984619, -25.855144500732422, -0.5078125, 0.03515625, -0.471923828125, 0, 
295, 1052428729, 0.2915268540382385, 0.6885474324226379, -0.26180362701416016, 0.6102213859558105, 10.390555381774902, 0.3907913267612457, 0.8480386734008789, -17.456647872924805, -7.523356914520264, -29.009702682495117, -0.5068359375, 0.02685546875, -0.472900390625, 0, 
296, 1052437062, 0.29372236132621765, 0.6891109347343445, -0.2612038552761078, 0.6087877154350281, 9.21680736541748, 0.40955960750579834, -0.5425481200218201, -18.126020431518555, -9.89421272277832, -30.701601028442383, -0.51025390625, 0.025634765625, -0.471435546875, 0, 
297, 1052445395, 0.2961963415145874, 0.6896330118179321, -0.26059794425964355, 0.6072555184364319, 9.864097595214844, 0.9342350959777832, -0.6977541446685791, -21.241802215576172, -9.431035041809082, -33.4046630859375, -0.506591796875, 0.0205078125, -0.471435546875, 0, 
298, 1052453728, 0.2985104024410248, 0.6900813579559326, -0.2598768472671509, 0.6059207916259766, 9.781852722167969, 0.8508298397064209, -0.8417341113090515, -18.350839614868164, -7.070523738861084, -32.03003692626953, -0.510009765625, 0.015380859375, -0.468017578125, 0, 
299, 1052462061, 0.30106526613235474, 0.6903758645057678, -0.25917747616767883, 0.6046193838119507, 9.487664222717285, 0.7199483513832092, -0.5709546804428101, -21.33757209777832, -4.67707633972168, -33.20758819580078, -0.509521484375, 0.010498046875, -0.468505859375, 0, 
300, 1052470394, 0.3038393259048462, 0.690589427947998, -0.2585226893424988, 0.6032664179801941, 9.939833641052246, 1.2400200366973877, -1.240134358406067, -24.29950523376465, -3.9213786125183105, -34.470115661621094, -0.510009765625, 0.004150390625, -0.464599609375, 0, 
301, 1052478727, 0.30640506744384766, 0.6905443072319031, -0.2574460804462433, 0.6024801135063171, 9.713885307312012, 0.9345428347587585, -1.6421408653259277, -17.8946533203125, 4.653242111206055, -33.5239143371582, -0.508056640625, -0.002197265625, -0.467529296875, 0, 
302, 1052487060, 0.3095095455646515, 0.6902873516082764, -0.2564570903778076, 0.6016089916229248, 9.907878875732422, 1.312648892402649, -1.5542062520980835, -24.920351028442383, 7.116159439086914, -36.70443344116211, -0.510009765625, -0.005126953125, -0.467529296875, 0, 
303, 1052495393, 0.3125396966934204, 0.6897058486938477, -0.25534266233444214, 0.6011831760406494, 9.602351188659668, 1.41928231716156, -0.8170434236526489, -22.99689483642578, 14.323684692382812, -34.29706954956055, -0.510498046875, -0.011474609375, -0.468994140625, 0, 
304, 1052503726, 0.3160921633243561, 0.689116358757019, -0.2545463442802429, 0.6003392934799194, 9.437248229980469, 0.8867433071136475, -0.7255156636238098, -32.076175689697266, 10.870166778564453, -37.31135177612305, -0.507080078125, -0.014892578125, -0.471923828125, 0, 
305, 1052512059, 0.31960511207580566, 0.6884388327598572, -0.25370168685913086, 0.5996138453483582, 9.747929573059082, 1.6040620803833008, -0.33431774377822876, -31.279312133789062, 12.813035011291504, -36.676212310791016, -0.508544921875, -0.021728515625, -0.474853515625, 0, 
306, 1052520392, 0.3231024146080017, 0.6879194378852844, -0.2529754042625427, 0.5986413359642029, 9.333003997802734, 0.9341554045677185, -0.7096288204193115, -32.26610565185547, 8.574049949645996, -37.012203216552734, -0.509033203125, -0.028564453125, -0.479248046875, 0, 
307, 1052528725, 0.3270643949508667, 0.6872902512550354, -0.25238537788391113, 0.5974604487419128, 9.99454116821289, 1.3387999534606934, -0.30107593536376953, -39.00386047363281, 8.538298606872559, -40.143672943115234, -0.508056640625, -0.033447265625, -0.477294921875, 0, 
308, 1052537058, 0.3308030068874359, 0.686771035194397, -0.2515377700328827, 0.596355676651001, 10.68183422088623, 1.0803495645523071, -0.8051815032958984, -34.00912094116211, 8.714803695678711, -40.734588623046875, -0.50927734375, -0.03955078125, -0.477783203125, 0, 
309, 1052545391, 0.33467531204223633, 0.6863710880279541, -0.2504603862762451, 0.5951077938079834, 10.870787620544434, 0.9348111152648926, -0.3108426630496979, -33.34778594970703, 7.917125225067139, -45.11284637451172, -0.509765625, -0.0458984375, -0.480224609375, 0, 
310, 1052553724, 0.3388272523880005, 0.6859294772148132, -0.24914860725402832, 0.593816876411438, 11.222611427307129, 1.1435978412628174, -1.2987641096115112, -34.40526580810547, 9.873218536376953, -49.62265396118164, -0.5078125, -0.052734375, -0.479248046875, 0, 
311, 1052562057, 0.34341689944267273, 0.6853124499320984, -0.24753884971141815, 0.5925647616386414, 11.14452838897705, 1.009103536605835, -0.9749343395233154, -36.78950119018555, 14.578351020812988, -55.271636962890625, -0.50732421875, -0.060546875, -0.485595703125, 0, 
312, 1052570390, 0.34849193692207336, 0.6846855282783508, -0.245685413479805, 0.5910959243774414, 11.715014457702637, 1.005253553390503, -0.9539154171943665, -40.15434646606445, 15.400588035583496, -62.47494125366211, -0.5068359375, -0.06884765625, -0.483642578125, 0, 
313, 1052578723, 0.35402214527130127, 0.6840017437934875, -0.24341672658920288, 0.5895377397537231, 11.987221717834473, 0.9793453812599182, -0.7663518190383911, -41.647220611572266, 18.569307327270508, -70.35770416259766, -0.50732421875, -0.08154296875, -0.489990234375, 0, 
314, 1052587056, 0.36012256145477295, 0.6833168268203735, -0.24088051915168762, 0.5876757502555847, 12.347264289855957, 0.9485753774642944, -0.6830189228057861, -45.85803985595703, 18.914514541625977, -78.93841552734375, -0.50390625, -0.09130859375, -0.490478515625, 0, 
315, 1052595389, 0.3666059672832489, 0.6827030777931213, -0.23785413801670074, 0.5856093764305115, 12.544960021972656, 0.8602722883224487, -0.45348843932151794, -45.825828552246094, 20.131202697753906, -87.9224624633789, -0.50341796875, -0.103515625, -0.498291015625, 0, 
316, 1052603722, 0.37334635853767395, 0.6823831796646118, -0.23438863456249237, 0.5831158757209778, 12.827418327331543, 0.6699416041374207, -0.16645357012748718, -44.615299224853516, 16.79122543334961, -97.20064544677734, -0.501953125, -0.114990234375, -0.499755859375, 0, 
317, 1052612055, 0.3802950382232666, 0.6823608875274658, -0.23027528822422028, 0.5802837014198303, 12.971832275390625, 0.5450594425201416, -0.1146223321557045, -40.941429138183594, 15.243240356445312, -107.67696380615234, -0.49951171875, -0.132568359375, -0.504638671875, 0, 
318, 1052620388, 0.3875786066055298, 0.6825949549674988, -0.22541597485542297, 0.577088475227356, 12.839864730834961, 0.3298260271549225, 0.4317167401313782, -37.93489456176758, 14.733695030212402, -120.03666687011719, -0.493896484375, -0.152099609375, -0.506103515625, 0, 
319, 1052628721, 0.3947567045688629, 0.6833764314651489, -0.21962754428386688, 0.5735189318656921, 13.272258758544922, 0.2299707680940628, 0.8876115679740906, -27.820262908935547, 11.519393920898438, -131.6380615234375, -0.494873046875, -0.165283203125, -0.506591796875, 0, 
320, 1052637054, 0.40210264921188354, 0.6847078800201416, -0.2130124717950821, 0.5693071484565735, 13.393108367919922, 0.16744790971279144, 0.8132026791572571, -21.825063705444336, 6.125402927398682, -145.8598175048828, -0.488525390625, -0.189208984375, -0.513916015625, 0, 
321, 1052645387, 0.40974053740501404, 0.6865702867507935, -0.20557032525539398, 0.5643323659896851, 14.11970329284668, 0.5166381597518921, -0.2519973814487457, -17.403419494628906, 0.22889412939548492, -161.7249755859375, -0.484619140625, -0.211181640625, -0.515869140625, 0, 
322, 1052653720, 0.41763508319854736, 0.6888342499732971, -0.1970055252313614, 0.5588143467903137, 14.801830291748047, 1.0082491636276245, -2.0529396533966064, -10.381600379943848, -0.9835502505302429, -178.50360107421875, -0.47607421875, -0.237060546875, -0.515869140625, 0, 
323, 1052662053, 0.42613130807876587, 0.6909275650978088, -0.18710529804229736, 0.5531899333000183, 15.461126327514648, 1.3099961280822754, -3.104186773300171, -7.093424320220947, 8.638847351074219, -195.9390106201172, -0.4658203125, -0.265869140625, -0.521240234375, 0, 
324, 1052670386, 0.43516701459884644, 0.6929433345794678, -0.17578652501106262, 0.5473160147666931, 16.388225555419922, 1.1266785860061646, -3.859396457672119, -2.516918659210205, 16.541629791259766, -214.78477478027344, -0.455810546875, -0.29638671875, -0.521728515625, 0, 
325, 1052678719, 0.4444495737552643, 0.6949544548988342, -0.16250742971897125, 0.5413786172866821, 17.995664596557617, 0.2771822214126587, -3.470205068588257, 9.696723937988281, 28.31717300415039, -235.69390869140625, -0.445068359375, -0.33154296875, -0.528564453125, 0, 
326, 1052687052, 0.4538218677043915, 0.6971882581710815, -0.14701741933822632, 0.5351230502128601, 20.63726043701172, -0.9706959128379822, -2.922513484954834, 25.954681396484375, 37.321006774902344, -259.94708251953125, -0.432373046875, -0.37109375, -0.532958984375, 0, 
327, 1052695385, 0.46500736474990845, 0.6989872455596924, -0.13004142045974731, 0.5275139212608337, 21.31024932861328, -1.645793080329895, -3.852667808532715, 14.05140495300293, 40.49571990966797, -295.1033935546875, -0.4130859375, -0.4111328125, -0.5419921875, 0, 
328, 1052703718, 0.48039716482162476, 0.6988465785980225, -0.11264315247535706, 0.5178224444389343, 20.589221954345703, -0.8872091174125671, -6.333064556121826, -39.431053161621094, 44.76427459716797, -339.5445251464844, -0.39208984375, -0.455810546875, -0.54736328125, 0, 
329, 1052712051, 0.49786683917045593, 0.6972958445549011, -0.0937274843454361, 0.5070689916610718, 24.181215286254883, 0.9495366215705872, -5.32088041305542, -59.5781135559082, 57.854373931884766, -373.7575378417969, -0.361328125, -0.49853515625, -0.55810546875, 0, 
330, 1052720384, 0.5144891142845154, 0.6961162090301514, -0.07254716753959656, 0.49543580412864685, 27.863901138305664, 1.585445761680603, -4.5669941902160645, -34.2537956237793, 61.24748229980469, -396.11785888671875, -0.327392578125, -0.547119140625, -0.572265625, 0, 
331, 1052728717, 0.5306102633476257, 0.6939170956611633, -0.048624537885189056, 0.48431819677352905, 28.730436325073242, 1.085714340209961, -6.746434211730957, -17.46683120727539, 92.03330993652344, -414.2566223144531, -0.285400390625, -0.594482421875, -0.581787109375, 0, 
332, 1052737050, 0.5482790470123291, 0.6887599229812622, -0.023447899147868156, 0.47375789284706116, 30.38089942932129, 4.293523788452148, -3.0904440879821777, -45.106876373291016, 127.25638580322266, -430.563232421875, -0.238525390625, -0.647216796875, -0.6044921875, 0, 
333, 1052745383, 0.5657229423522949, 0.682619571685791, 0.0019633350893855095, 0.4625805616378784, 28.213491439819336, 7.696743488311768, -3.2282967567443848, -49.05305480957031, 129.50546264648438, -435.5917663574219, -0.1884765625, -0.690185546875, -0.61962890625, 0, 
334, 1052753716, 0.5779468417167664, 0.681113064289093, 0.027467109262943268, 0.4486696720123291, 22.472686767578125, 5.930724143981934, -6.471726417541504, 36.660526275634766, 75.23311614990234, -424.4798278808594, -0.1357421875, -0.73095703125, -0.628662109375, 0, 
335, 1052762049, 0.5866236090660095, 0.6833186745643616, 0.05162952467799187, 0.4316007196903229, 22.125795364379883, 0.3659113943576813, -7.337103843688965, 92.32374572753906, 13.402759552001953, -413.6302490234375, -0.083251953125, -0.777099609375, -0.622314453125, 0, 
336, 1052770382, 0.5986418724060059, 0.683699369430542, 0.07274959236383438, 0.4109586775302887, 23.7683048248291, -5.021066188812256, -5.4298295974731445, 30.656574249267578, -36.24617385864258, -435.1122741699219, -0.03125, -0.8134765625, -0.612548828125, 0, 
337, 1052778715, 0.6156634092330933, 0.6787015199661255, 0.09383805841207504, 0.3892478346824646, 26.03818702697754, -5.813755035400391, -10.97770881652832, -59.770328521728516, -21.180830001831055, -477.1845703125, 0.02294921875, -0.842529296875, -0.6162109375, 0, 
338, 1052787048, 0.6318280100822449, 0.6713996529579163, 0.11534403264522552, 0.36974048614501953, 8.761880874633789, -2.9152657985687256, -9.98654556274414, -71.91852569580078, 16.38507652282715, -460.9405212402344, 0.08837890625, -0.870361328125, -0.625244140625, 0, 
339, 1052795381, 0.6458067893981934, 0.6659606695175171, 0.12907283008098602, 0.3503808081150055, -0.04152661934494972, -5.429161548614502, -12.031696319580078, -75.29638671875, -55.85835647583008, -373.60443115234375, 0.143310546875, -0.8876953125, -0.631103515625, 0, 
340, 1052803714, 0.6574171185493469, 0.6577808856964111, 0.13650400936603546, 0.3413066565990448, -9.702723503112793, -11.015100479125977, -13.381770133972168, -126.5899658203125, -0.14611178636550903, -218.16009521484375, 0.179443359375, -0.89404296875, -0.63916015625, 0, 
341, 1052812047, 0.6680707335472107, 0.651364266872406, 0.132747083902359, 0.3343364894390106, 5.404144763946533, 3.289862632751465, 5.041343688964844, -158.4077606201172, -88.77342224121094, -89.96988677978516, 0.20361328125, -0.887939453125, -0.659912109375, 0, 
342, 1052820380, 0.6708360910415649, 0.6497614979743958, 0.12371468544006348, 0.3353803753852844, 16.283546447753906, -11.657776832580566, -7.4815449714660645, -82.47354125976562, -73.15176391601562, 75.82466125488281, 0.201904296875, -0.880126953125, -0.664794921875, 0, 
343, 1052828713, 0.6702278852462769, 0.6487590074539185, 0.11470872163772583, 0.34167903661727905, 11.501765251159668, -14.488015174865723, -5.7469868659973145, -55.540504455566406, -23.018386840820312, 140.7903289794922, 0.195556640625, -0.868896484375, -0.672607421875, 0, 
344, 1052837046, 0.6667442917823792, 0.6483352780342102, 0.10699939727783203, 0.3516544699668884, 9.930944442749023, -10.529574394226074, -5.688751220703125, -24.327701568603516, 23.595561981201172, 177.38255310058594, 0.1787109375, -0.860107421875, -0.677978515625, 0, 
345, 1052845379, 0.6623831987380981, 0.6481648087501526, 0.09995891153812408, 0.3621264696121216, 5.8857421875, -9.021995544433594, -4.587535381317139, -11.611472129821777, 34.18001937866211, 180.7416534423828, 0.16943359375, -0.852783203125, -0.682373046875, 0, 
346, 1052853712, 0.6581150889396667, 0.6484622359275818, 0.0929819643497467, 0.37112265825271606, 2.983508348464966, -8.031803131103516, -4.646716117858887, -5.896581172943115, 19.193479537963867, 166.7467041015625, 0.1572265625, -0.83984375, -0.683837890625, 0, 
347, 1052862045, 0.6547136902809143, 0.6491628885269165, 0.08468807488679886, 0.3778388500213623, -1.4193426370620728, -6.2248616218566895, -2.8353238105773926, -13.720263481140137, -16.27118682861328, 154.1117401123047, 0.15087890625, -0.83056640625, -0.685302734375, 0, 
348, 1052870378, 0.6510847806930542, 0.6517496705055237, 0.0739954262971878, 0.38187992572784424, -1.2457002401351929, -5.2686872482299805, -3.463399887084961, -4.115659236907959, -71.23522186279297, 154.65335083007812, 0.13427734375, -0.820068359375, -0.68603515625, 0, 
349, 1052878711, 0.6472873687744141, 0.655209481716156, 0.06169568747282028, 0.38459068536758423, 0.8540710210800171, -5.2040934562683105, -3.1777825355529785, -1.814889669418335, -102.01289367675781, 159.08615112304688, 0.115234375, -0.80810546875, -0.68359375, 0, 
350, 1052887044, 0.6427072286605835, 0.6591702103614807, 0.048435941338539124, 0.38739195466041565, 2.9136593341827393, -5.06532621383667, -3.2565762996673584, 4.479738235473633, -111.67501831054688, 172.95213317871094, 0.0966796875, -0.798583984375, -0.677734375, 0, 
351, 1052895377, 0.6368020176887512, 0.6634104251861572, 0.034757643938064575, 0.3913545310497284, 4.592412948608398, -5.31903600692749, -3.242858409881592, 16.02280616760254, -105.50737762451172, 194.4134521484375, 0.078125, -0.78564453125, -0.67333984375, 0, 
352, 1052903710, 0.6292518973350525, 0.6677640676498413, 0.021086642518639565, 0.3970958888530731, 5.52374267578125, -5.42112922668457, -2.795599937438965, 31.14768409729004, -88.98133087158203, 218.67965698242188, 0.05908203125, -0.770751953125, -0.667724609375, 0, 
353, 1052912043, 0.6200945973396301, 0.6722411513328552, 0.007340161129832268, 0.4043727517127991, 5.684072971343994, -5.25389289855957, -2.414194345474243, 46.18345642089844, -75.80147552490234, 241.62974548339844, 0.033203125, -0.75634765625, -0.660888671875, 0, 
354, 1052920376, 0.6094532608985901, 0.676949679851532, -0.006815532222390175, 0.41262108087539673, 5.310992240905762, -4.931132793426514, -1.9865100383758545, 59.43880081176758, -71.3866958618164, 261.8192138671875, 0.01171875, -0.738525390625, -0.656005859375, 0, 
355, 1052928709, 0.5974937677383423, 0.6820289492607117, -0.021791087463498116, 0.4211409091949463, 5.235462665557861, -4.59674072265625, -1.8654084205627441, 70.25315856933594, -78.0196304321289, 279.33013916015625, -0.01220703125, -0.71826171875, -0.646240234375, 0, 
356, 1052937042, 0.5843483209609985, 0.6874648332595825, -0.03766684979200363, 0.42954257130622864, 5.880683422088623, -4.301934242248535, -1.9459644556045532, 79.00177764892578, -88.88665771484375, 293.4117736816406, -0.03759765625, -0.697509765625, -0.64208984375, 0, 
357, 1052945375, 0.5701203346252441, 0.6930968165397644, -0.0542573444545269, 0.43775835633277893, 6.974246978759766, -4.129487991333008, -2.287029266357422, 86.55310821533203, -98.16787719726562, 305.1278076171875, -0.064208984375, -0.675048828125, -0.63037109375, 0, 
358, 1052953708, 0.5545421838760376, 0.6987794637680054, -0.07074885815382004, 0.4462975561618805, 8.236230850219727, -4.002450466156006, -2.577807664871216, 94.4437026977539, -102.05963897705078, 314.4552307128906, -0.085205078125, -0.647705078125, -0.62060546875, 0, 
359, 1052962041, 0.5382289886474609, 0.7042649984359741, -0.08772090077400208, 0.4545570909976959, 9.508819580078125, -3.818819761276245, -2.7764320373535156, 102.9994888305664, -101.4817123413086, 322.0036315917969, -0.106201171875, -0.62353515625, -0.609619140625, 0, 
360, 1052970374, 0.5209933519363403, 0.7093539237976074, -0.10463440418243408, 0.46306708455085754, 10.658166885375977, -3.324136257171631, -2.8774328231811523, 109.56851196289062, -97.22844696044922, 329.3766174316406, -0.12548828125, -0.597900390625, -0.607177734375, 0, 
361, 1052978707, 0.5029086470603943, 0.7139474153518677, -0.1215343028306961, 0.4717922508716583, 11.245738983154297, -2.7780256271362305, -2.93493390083313, 114.7953872680664, -93.12663269042969, 337.0685729980469, -0.1455078125, -0.57666015625, -0.601806640625, 0, 
362, 1052987040, 0.484043687582016, 0.7180598974227905, -0.13866561651229858, 0.48047906160354614, 11.642446517944336, -2.115903377532959, -3.081078290939331, 117.50813293457031, -93.22761535644531, 344.7785339355469, -0.162109375, -0.556884765625, -0.594970703125, 0, 
363, 1052995373, 0.4649257957935333, 0.7215230464935303, -0.15632417798042297, 0.4886796772480011, 12.391610145568848, -1.6882058382034302, -3.4785852432250977, 111.32938385009766, -97.78961944580078, 349.8250732421875, -0.18359375, -0.53125, -0.58740234375, 0, 
364, 1053003706, 0.44491538405418396, 0.7247090339660645, -0.17440848052501678, 0.49641263484954834, 13.715523719787598, -0.9067085981369019, -4.037070274353027, 114.49124908447266, -105.15109252929688, 357.4865417480469, -0.20849609375, -0.507080078125, -0.5810546875, 0, 
365, 1053012039, 0.42444509267807007, 0.7273128032684326, -0.19281354546546936, 0.5036686062812805, 15.09450912475586, -0.7082055807113647, -4.487805366516113, 112.2354507446289, -109.05525207519531, 362.4726257324219, -0.23388671875, -0.4775390625, -0.57275390625, 0, 
366, 1053020372, 0.4037500321865082, 0.7290858030319214, -0.2114589810371399, 0.5105893015861511, 16.230613708496094, -0.6451281309127808, -4.6665449142456055, 107.02483367919922, -108.59514617919922, 366.50653076171875, -0.25830078125, -0.444580078125, -0.5634765625, 0, 
367, 1053028705, 0.3825153410434723, 0.7300940155982971, -0.23026804625988007, 0.5173180103302002, 17.834440231323242, -0.0043124184012413025, -4.761169910430908, 106.53783416748047, -107.6858139038086, 373.26959228515625, -0.27978515625, -0.406982421875, -0.554443359375, 0, 
368, 1053037038, 0.3606756627559662, 0.7304114699363708, -0.24929660558700562, 0.5236985087394714, 18.821849822998047, 0.03055587038397789, -4.615166664123535, 106.26094818115234, -109.28291320800781, 379.9614562988281, -0.296142578125, -0.369140625, -0.552001953125, 0, 
369, 1053045371, 0.33846315741539, 0.7299692034721375, -0.26850879192352295, 0.5296106338500977, 20.017276763916016, 0.1217452883720398, -4.633738994598389, 103.36239624023438, -110.76163482666016, 384.9493408203125, -0.311279296875, -0.337890625, -0.547119140625, 0, 
370, 1053053704, 0.31580138206481934, 0.7288815379142761, -0.28782740235328674, 0.5349328517913818, 22.04564666748047, 0.6179914474487305, -4.801088809967041, 101.86172485351562, -114.0797119140625, 388.7553405761719, -0.323974609375, -0.306884765625, -0.541748046875, 0, 
371, 1053062037, 0.2926127314567566, 0.7271740436553955, -0.3069078028202057, 0.539814829826355, 23.96004867553711, 0.8189948201179504, -4.953490257263184, 104.51502990722656, -115.0427474975586, 390.9593505859375, -0.347900390625, -0.278076171875, -0.522705078125, 0, 
372, 1053070370, 0.2690744996070862, 0.724723219871521, -0.32532742619514465, 0.5445490479469299, 26.479888916015625, 1.3969264030456543, -5.110665321350098, 109.25126647949219, -109.76007080078125, 389.3171691894531, -0.3759765625, -0.24609375, -0.49853515625, 0, 
373, 1053078703, 0.2452613264322281, 0.7213688492774963, -0.34254559874534607, 0.5496662259101868, 28.444395065307617, 2.8753535747528076, -5.117649078369141, 119.40950775146484, -96.01676177978516, 385.03125, -0.39501953125, -0.2021484375, -0.46826171875, 0, 
374, 1053087036, 0.22181060910224915, 0.7170448899269104, -0.35861408710479736, 0.5550125241279602, 28.413002014160156, 5.46768856048584, -5.269946098327637, 122.26710510253906, -80.77468872070312, 376.05303955078125, -0.409912109375, -0.14501953125, -0.438232421875, 0, 
375, 1053095369, 0.19915363192558289, 0.7121820449829102, -0.37387198209762573, 0.5597772002220154, 27.374000549316406, 9.151350975036621, -5.365550518035889, 116.15843200683594, -76.06089782714844, 363.05023193359375, -0.408203125, -0.087158203125, -0.417236328125, 0, 
376, 1053103702, 0.17779110372066498, 0.7072334289550781, -0.38852912187576294, 0.563251793384552, 27.339555740356445, 14.319182395935059, -6.430342674255371, 101.19219207763672, -79.69026947021484, 343.9466247558594, -0.394775390625, -0.029541015625, -0.408447265625, 0, 
377, 1053112035, 0.15869483351707458, 0.7021406888961792, -0.40256747603416443, 0.5654646158218384, 26.448741912841797, 19.459091186523438, -6.584284782409668, 76.889404296875, -77.26634979248047, 318.2059631347656, -0.379150390625, 0.016845703125, -0.4033203125, 0, 
378, 1053120368, 0.14120914041996002, 0.6973885297775269, -0.4155817925930023, 0.566566526889801, 23.76630973815918, 24.201032638549805, -4.5159478187561035, 63.85295867919922, -79.4474868774414, 291.3477478027344, -0.357177734375, 0.052490234375, -0.41015625, 0, 
379, 1053128701, 0.12590080499649048, 0.6938263177871704, -0.4272350072860718, 0.5658805966377258, 19.81789779663086, 27.50581932067871, -0.948884129524231, 45.706817626953125, -90.81977844238281, 251.1802978515625, -0.3359375, 0.07421875, -0.419189453125, 0, 
380, 1053137034, 0.11194424331188202, 0.692165732383728, -0.43699467182159424, 0.5633888244628906, 17.286174774169922, 29.47464942932129, 2.743358612060547, 40.203189849853516, -111.589111328125, 208.1954803466797, -0.32470703125, 0.083251953125, -0.423095703125, 0, 
381, 1053145367, 0.1006634384393692, 0.6916394829750061, -0.44480186700820923, 0.56004399061203, 16.452869415283203, 32.31367492675781, 5.959163188934326, 26.5020809173584, -109.44573211669922, 160.8404998779297, -0.32080078125, 0.087646484375, -0.424560546875, 0, 
382, 1053153700, 0.09217219054698944, 0.6916335821151733, -0.45057395100593567, 0.5568904876708984, 16.10626220703125, 36.668052673339844, 9.059707641601562, 17.52143096923828, -91.72667694091797, 117.02534484863281, -0.3212890625, 0.080322265625, -0.421630859375, 0, 
383, 1053162033, 0.08640934526920319, 0.6914001703262329, -0.4542064964771271, 0.5551508069038391, 16.362829208374023, 41.53050994873047, 10.328693389892578, 16.44038200378418, -56.94670867919922, 79.03422546386719, -0.3291015625, 0.072998046875, -0.418701171875, 0, 
384, 1053170366, 0.08440297842025757, 0.6904674172401428, -0.4557894468307495, 0.5553228259086609, 15.92046070098877, 45.5046272277832, 10.012746810913086, 7.481235980987549, -7.521335124969482, 37.498619079589844, -0.333984375, 0.0673828125, -0.421142578125, 0, 
385, 1053178699, 0.08438868820667267, 0.6894875764846802, -0.4548426568508148, 0.5573151111602783, 14.139111518859863, 44.94065475463867, 10.301223754882812, 19.23923110961914, 25.535188674926758, 0.6839519143104553, -0.341064453125, 0.05712890625, -0.421630859375, 0, 
386, 1053187032, 0.08761832118034363, 0.6935327649116516, -0.4493774473667145, 0.5562300086021423, 35.1899299621582, 33.92365646362305, 8.752111434936523, 9.707426071166992, -16.629981994628906, -101.98065185546875, -0.347900390625, 0.047119140625, -0.427978515625, 0, 
387, 1053195365, 0.11464354395866394, 0.6918713450431824, -0.4389210641384125, 0.5617079138755798, 32.537776947021484, 34.8555793762207, 16.3088321685791, -145.4109344482422, 242.71774291992188, -288.5050964355469, -0.354736328125, 0.01953125, -0.442626953125, 0, 
388, 1053203698, 0.13146322965621948, 0.6974381804466248, -0.4301389157772064, 0.5579197406768799, -8.394360542297363, -1.4336662292480469, -10.120640754699707, -105.73871612548828, 34.426727294921875, -251.8685302734375, -0.359375, -0.012451171875, -0.462646484375, 0, 
389, 1053212031, 0.15249855816364288, 0.6959259510040283, -0.4164586067199707, 0.5647920370101929, 32.399024963378906, -12.805049896240234, -7.105077743530273, -58.35647964477539, 224.821044921875, -270.14599609375, -0.359375, -0.04443359375, -0.481689453125, 0, 
390, 1053220364, 0.17193616926670074, 0.7004671692848206, -0.3977419435977936, 0.5670815110206604, 19.701610565185547, -19.810840606689453, -10.273507118225098, -17.469785690307617, 135.32037353515625, -350.12274169921875, -0.35888671875, -0.081298828125, -0.501220703125, 0, 
391, 1053228697, 0.18809738755226135, 0.7076632380485535, -0.37541207671165466, 0.5682379603385925, 14.300506591796875, 0.4288054406642914, 3.675684690475464, 42.3294563293457, 94.35343933105469, -376.6866149902344, -0.358642578125, -0.12890625, -0.511474609375, 0, 
392, 1053237030, 0.20406435430049896, 0.7110683917999268, -0.3564300239086151, 0.5706955790519714, 13.274471282958984, 19.524791717529297, 5.5002970695495605, 14.985457420349121, 126.94884490966797, -319.5450744628906, -0.351806640625, -0.17529296875, -0.524169921875, 0, 
393, 1053245363, 0.21670924127101898, 0.7097114324569702, -0.3417014479637146, 0.5767003893852234, 15.153589248657227, 11.836676597595215, -1.957499623298645, 18.093029022216797, 170.81362915039062, -218.65858459472656, -0.350341796875, -0.205322265625, -0.539306640625, 0, 
394, 1053253696, 0.22618384659290314, 0.708339512348175, -0.33048906922340393, 0.5812653303146362, 14.416879653930664, 1.000595211982727, -5.761557102203369, 14.357234001159668, 131.46287536621094, -163.30809020996094, -0.33935546875, -0.227294921875, -0.561767578125, 0, 
395, 1053262029, 0.2334858775138855, 0.7072114944458008, -0.32010653614997864, 0.5855463147163391, 13.922167778015137, 1.7922389507293701, -7.421348571777344, 28.33440399169922, 114.32505798339844, -139.95263671875, -0.33935546875, -0.245849609375, -0.56982421875, 0, 
396, 1053270362, 0.2383175492286682, 0.7051905393600464, -0.309109628200531, 0.5919110774993896, 9.775856971740723, 2.5992343425750732, -3.1544926166534424, 63.632835388183594, 132.84637451171875, -115.30670928955078, -0.330078125, -0.263427734375, -0.57861328125, 0, 
397, 1053278695, 0.24129243195056915, 0.7032809257507324, -0.29970207810401917, 0.5977868437767029, 9.682879447937012, 6.714497089385986, 0.9388784766197205, 66.96822357177734, 114.12725830078125, -86.96038818359375, -0.32177734375, -0.278564453125, -0.58984375, 0, 
398, 1053287028, 0.2436889111995697, 0.7013189196586609, -0.2934499680995941, 0.6022050976753235, 9.378946304321289, 5.777390003204346, 2.944627523422241, 40.46086883544922, 87.58446502685547, -56.20423126220703, -0.31787109375, -0.289306640625, -0.6005859375, 0, 
399, 1053295361, 0.24475696682929993, 0.7004449367523193, -0.2894478142261505, 0.6047208905220032, 9.756524085998535, 1.8333264589309692, 0.3883195221424103, 30.58968162536621, 47.3484992980957, -34.374446868896484, -0.31640625, -0.295166015625, -0.6044921875, 0, 
400, 1053303694, 0.24581170082092285, 0.6997935771942139, -0.28625550866127014, 0.6065639853477478, 10.146835327148438, 0.49350792169570923, -1.1606733798980713, 22.069021224975586, 36.21095657348633, -29.5053768157959, -0.314453125, -0.299560546875, -0.60888671875, 0, 
401, 1053312027, 0.24724189937114716, 0.6987477540969849, -0.2833546996116638, 0.6085470914840698, 9.684874534606934, 0.16046592593193054, -0.5166813135147095, 15.227164268493652, 41.36796188354492, -27.912527084350586, -0.31103515625, -0.301025390625, -0.60791015625, 0, 
402, 1053320360, 0.24838075041770935, 0.698169469833374, -0.28096750378608704, 0.6098525524139404, 9.36715030670166, 1.3192061185836792, 1.470842719078064, 12.693460464477539, 28.03856086730957, -24.5598201751709, -0.310791015625, -0.305419921875, -0.61572265625, 0, 
403, 1053328693, 0.24959656596183777, 0.698191225528717, -0.27945461869239807, 0.6100264191627502, 9.40337085723877, 0.04481205716729164, 0.2009432166814804, 2.284329891204834, 9.476323127746582, -23.10116958618164, -0.3076171875, -0.310302734375, -0.61474609375, 0, 
404, 1053337026, 0.2509411573410034, 0.6982983350753784, -0.27811098098754883, 0.6099660992622375, 10.018363952636719, 0.33359017968177795, -1.3671436309814453, -0.9651064872741699, 6.400053024291992, -23.58650779724121, -0.3076171875, -0.315185546875, -0.61474609375, 0, 
405, 1053345359, 0.25199010968208313, 0.6986510753631592, -0.27675002813339233, 0.6097487807273865, 9.847993850708008, 0.6441665887832642, -0.8861499428749084, 2.252542495727539, 1.787567138671875, -22.85481071472168, -0.3037109375, -0.312255859375, -0.61572265625, 0, 
406, 1053353692, 0.25264260172843933, 0.6992571949958801, -0.27530980110168457, 0.6094358563423157, 9.869743347167969, -0.5072073340415955, -0.9657189249992371, 7.252570629119873, -2.511514902114868, -21.49043846130371, -0.30419921875, -0.316650390625, -0.6171875, 0, 
407, 1053362025, 0.25398242473602295, 0.6998167634010315, -0.27413278818130493, 0.6087668538093567, 10.491602897644043, 0.4798608720302582, -2.1723976135253906, -3.084660053253174, -3.8352344036102295, -25.87773323059082, -0.30712890625, -0.319091796875, -0.6171875, 0, 
408, 1053370358, 0.25530296564102173, 0.7002242803573608, -0.2729395627975464, 0.6082817912101746, 10.239022254943848, 0.7243696451187134, -2.123500108718872, -2.588716983795166, -0.8350629806518555, -24.562389373779297, -0.3046875, -0.323974609375, -0.61767578125, 0, 
409, 1053378691, 0.2560018002986908, 0.7005804777145386, -0.27145448327064514, 0.6082425713539124, 9.971402168273926, 0.21792319416999817, -1.0775147676467896, 7.3194756507873535, 2.604994773864746, -20.510570526123047, -0.302734375, -0.323486328125, -0.61572265625, 0, 
410, 1053387024, 0.257249653339386, 0.7008140087127686, -0.270281583070755, 0.6079691648483276, 9.79238510131836, 0.4119129776954651, -1.1545054912567139, -1.873310923576355, 2.3017988204956055, -22.36937141418457, -0.3017578125, -0.327392578125, -0.61376953125, 0, 
411, 1053395357, 0.2576729953289032, 0.7011829614639282, -0.2687140703201294, 0.6080594658851624, 9.947816848754883, 0.12918193638324738, -1.0307668447494507, 11.191248893737793, 3.0294997692108154, -18.586095809936523, -0.30078125, -0.333251953125, -0.61474609375, 0, 
412, 1053403690, 0.25870540738105774, 0.7015339732170105, -0.26741814613342285, 0.6077874898910522, 10.07505989074707, 0.6657381057739258, -1.8500418663024902, 1.653757929801941, 0.9547966122627258, -22.192577362060547, -0.30126953125, -0.333251953125, -0.61572265625, 0, 
413, 1053412023, 0.25951483845710754, 0.7018880844116211, -0.2660234570503235, 0.6076456308364868, 10.469205856323242, -0.15651211142539978, -1.7598371505737305, 5.109272480010986, 1.7345709800720215, -20.9177303314209, -0.2998046875, -0.333740234375, -0.61328125, 0, 
414, 1053420356, 0.26025331020355225, 0.702057957649231, -0.26444247364997864, 0.6078236699104309, 10.437420845031738, 0.8709608316421509, -2.9574244022369385, 7.8746137619018555, 6.747791767120361, -20.220386505126953, -0.3017578125, -0.339599609375, -0.61376953125, 0, 
415, 1053428689, 0.2616404592990875, 0.701793372631073, -0.26310834288597107, 0.6081126928329468, 10.432927131652832, 0.2960909307003021, -2.068244457244873, -1.6138895750045776, 12.9453125, -21.367109298706055, -0.29931640625, -0.339599609375, -0.6142578125, 0, 
416, 1053437022, 0.26280876994132996, 0.7014678716659546, -0.2615811824798584, 0.6086429953575134, 10.47126293182373, 0.49466562271118164, -1.061355471611023, 2.778223991394043, 15.668621063232422, -20.22920036315918, -0.298828125, -0.343017578125, -0.61669921875, 0, 
417, 1053445355, 0.2645556330680847, 0.7008740305900574, -0.2602924704551697, 0.6091227531433105, 10.09005355834961, 1.17403244972229, -1.3301585912704468, -5.96083402633667, 18.664363861083984, -22.071226119995117, -0.29931640625, -0.346435546875, -0.6142578125, 0, 
418, 1053453688, 0.2665708661079407, 0.7001714706420898, -0.25921615958213806, 0.6095108389854431, 9.598348617553711, 0.1962268352508545, -0.63945472240448, -11.041576385498047, 18.863876342773438, -22.138774871826172, -0.29541015625, -0.346435546875, -0.62158203125, 0, 
419, 1053462021, 0.26815828680992126, 0.6998969316482544, -0.2580316662788391, 0.6096324324607849, 9.1632719039917, 0.49480023980140686, -0.28305745124816895, -5.406668186187744, 11.59756851196289, -22.17380714416504, -0.29296875, -0.347412109375, -0.61767578125, 0, 
420, 1053470354, 0.2697770893573761, 0.7000041604042053, -0.2569437623023987, 0.6092542409896851, 9.313469886779785, 0.4735299348831177, -0.30500274896621704, -6.873673439025879, 3.326292037963867, -24.633338928222656, -0.29638671875, -0.350830078125, -0.6220703125, 0, 
421, 1053478687, 0.27106165885925293, 0.7006266713142395, -0.2557508945465088, 0.6084700226783752, 9.241292953491211, 0.43988320231437683, 0.06831784546375275, -2.309675455093384, -5.676438331604004, -26.242530822753906, -0.29541015625, -0.352294921875, -0.61962890625, 0, 
422, 1053487020, 0.27238860726356506, 0.701660692691803, -0.2545768916606903, 0.6071768403053284, 9.600545883178711, 0.4806768000125885, -0.3647642433643341, -3.1234664916992188, -13.958528518676758, -29.69036865234375, -0.29443359375, -0.359130859375, -0.6162109375, 0, 
423, 1053495353, 0.2737475037574768, 0.7028947472572327, -0.2533300220966339, 0.6056580543518066, 10.184574127197266, 0.4229687452316284, 0.03247325122356415, -2.8725497722625732, -17.406824111938477, -32.27505874633789, -0.293212890625, -0.356689453125, -0.61376953125, 0, 
424, 1053503686, 0.275173157453537, 0.7042877078056335, -0.2519973814487457, 0.6039474010467529, 9.474043846130371, 0.5603443384170532, -0.5695440769195557, -2.86320161819458, -20.044281005859375, -34.869361877441406, -0.293212890625, -0.364501953125, -0.6103515625, 0, 
425, 1053512019, 0.27660518884658813, 0.7057051062583923, -0.2506197392940521, 0.6022094488143921, 9.675214767456055, 0.8572989702224731, -1.027715802192688, -2.563361167907715, -20.302936553955078, -35.613250732421875, -0.293212890625, -0.365966796875, -0.60888671875, 0, 
426, 1053520352, 0.27808424830436707, 0.707067608833313, -0.2492629885673523, 0.6004908084869385, 9.42832088470459, 0.9534540772438049, -1.0601290464401245, -3.3263845443725586, -19.596824645996094, -35.47244644165039, -0.292724609375, -0.374267578125, -0.607421875, 0, 
427, 1053528685, 0.27956151962280273, 0.7083845138549805, -0.24793089926242828, 0.5988019108772278, 9.28863525390625, 1.0958478450775146, -0.8467456698417664, -3.5933620929718018, -19.013025283813477, -35.01146697998047, -0.291259765625, -0.377197265625, -0.6044921875, 0, 
428, 1053537018, 0.2810536324977875, 0.7095940709114075, -0.24668480455875397, 0.5971834659576416, 9.290332794189453, 1.17476224899292, -1.1122034788131714, -4.608736991882324, -17.739276885986328, -33.60068130493164, -0.294189453125, -0.379638671875, -0.6025390625, 0, 
429, 1053545351, 0.28252479434013367, 0.7106444835662842, -0.24550211429595947, 0.5957258939743042, 9.348793029785156, 1.3355664014816284, -1.313230276107788, -5.005706310272217, -15.161581993103027, -31.7078857421875, -0.2900390625, -0.380126953125, -0.6015625, 0, 
430, 1053553684, 0.28401219844818115, 0.7115238308906555, -0.24440538883209229, 0.5944183468818665, 9.542821884155273, 1.355238437652588, -1.6756055355072021, -6.014676094055176, -12.590344429016113, -29.782018661499023, -0.2919921875, -0.385498046875, -0.6005859375, 0, 
431, 1053562017, 0.2856990396976471, 0.7120723128318787, -0.24335584044456482, 0.5933829545974731, 9.553232192993164, 1.352114200592041, -1.8711402416229248, -8.740468978881836, -6.721886157989502, -28.832012176513672, -0.2890625, -0.389404296875, -0.59814453125, 0, 
432, 1053570350, 0.2874740958213806, 0.7123923301696777, -0.24239104986190796, 0.5925358533859253, 9.798762321472168, 1.5333802700042725, -1.9821324348449707, -10.554314613342285, -3.06644868850708, -27.161161422729492, -0.28955078125, -0.390869140625, -0.59375, 0, 
433, 1053578683, 0.28955918550491333, 0.7122989296913147, -0.24148447811603546, 0.5920030474662781, 9.743502616882324, 1.2758336067199707, -1.9390510320663452, -14.661380767822266, 4.201352596282959, -26.554157257080078, -0.28857421875, -0.396240234375, -0.59814453125, 0, 
434, 1053587016, 0.29179859161376953, 0.711941123008728, -0.2405819296836853, 0.5917012095451355, 9.91102409362793, 1.6313084363937378, -2.126295566558838, -16.48424530029297, 9.099899291992188, -25.920204162597656, -0.2861328125, -0.3955078125, -0.59716796875, 0, 
435, 1053595349, 0.29427891969680786, 0.7112318277359009, -0.23967501521110535, 0.5916939377784729, 9.625824928283691, 1.270951271057129, -2.0048327445983887, -19.249361038208008, 15.668959617614746, -25.633024215698242, -0.28466796875, -0.39794921875, -0.60107421875, 0, 
436, 1053603682, 0.2973376214504242, 0.7101779580116272, -0.238955557346344, 0.5917214751243591, 9.922416687011719, 1.7289646863937378, -1.927250862121582, -27.701955795288086, 19.951623916625977, -27.174095153808594, -0.2841796875, -0.3984375, -0.60302734375, 0, 
437, 1053612015, 0.30003684759140015, 0.708987295627594, -0.23795169591903687, 0.5921912789344788, 10.066655158996582, 1.1868839263916016, -1.4516254663467407, -20.995777130126953, 25.37736701965332, -24.823240280151367, -0.27978515625, -0.40185546875, -0.60498046875, 0, 
438, 1053620348, 0.3034661114215851, 0.7076654434204102, -0.23716145753860474, 0.592341959476471, 10.029537200927734, 1.1288657188415527, -0.9887053966522217, -31.428232192993164, 24.826444625854492, -29.519996643066406, -0.27685546875, -0.40478515625, -0.609375, 0, 
439, 1053628681, 0.30731889605522156, 0.7062673568725586, -0.23639313876628876, 0.5923314094543457, 10.40925121307373, 0.9950407147407532, -1.3344690799713135, -36.5803108215332, 25.18027114868164, -33.233680725097656, -0.279296875, -0.4052734375, -0.60986328125, 0, 
440, 1053637014, 0.311634361743927, 0.70479416847229, -0.23556417226791382, 0.5921616554260254, 10.481415748596191, 1.1503170728683472, -0.9058858156204224, -41.40705108642578, 25.99658966064453, -37.968990325927734, -0.275634765625, -0.40673828125, -0.6162109375, 0, 
441, 1053645347, 0.316195547580719, 0.7034960389137268, -0.23465117812156677, 0.5916494727134705, 10.782083511352539, 0.9596683382987976, -0.3222612142562866, -43.470985412597656, 22.42040252685547, -42.87028121948242, -0.270263671875, -0.408203125, -0.6171875, 0, 
442, 1053653680, 0.3211655616760254, 0.7023556232452393, -0.23360830545425415, 0.5907394289970398, 10.928060531616211, 0.6767897605895996, 0.031651366502046585, -46.96171569824219, 19.159019470214844, -49.64596939086914, -0.270263671875, -0.4130859375, -0.62353515625, 0, 
