PacketCounter,SampleTimeFine,Quat_W,Quat_X,Quat_Y,Quat_Z,Acc_X,Acc_Y,Acc_Z,Gyr_X,Gyr_Y,Gyr_Z,Mag_X,Mag_Y,Mag_Z,Status,
0, 1006738890, 0.30501580238342285, 0.6622869372367859, -0.31874892115592957, 0.6055936813354492, 0, 0, 0, 0, 0, 0, -0.630126953125, -0.356201171875, -0.565185546875, 0, 
1, 1006747223, 0.3050212860107422, 0.662274956703186, -0.31875792145729065, 0.6055992245674133, 9.698463439941406, 0.24550952017307281, -0.8635329008102417, 0.37550467252731323, -1.7390400171279907, 1.2196217775344849, -0.630126953125, -0.356201171875, -0.56640625, 0, 
2, 1006755556, 0.3050309717655182, 0.6622623801231384, -0.3187640905380249, 0.6056051254272461, 9.710668563842773, 0.21616904437541962, -0.8929128050804138, 0.3565501570701599, -1.624954342842102, 1.1890383958816528, -0.630615234375, -0.355712890625, -0.5673828125, 0, 
3, 1006763889, 0.3050406873226166, 0.6622457504272461, -0.318767249584198, 0.6056167483329773, 9.687383651733398, 0.24328334629535675, -0.843383252620697, 0.39164164662361145, -1.6012866497039795, 1.1782547235488892, -0.625732421875, -0.358154296875, -0.56591796875, 0, 
4, 1006772222, 0.30505356192588806, 0.6622403860092163, -0.31877219676971436, 0.6056134104728699, 9.68850326538086, 0.23251134157180786, -0.802096962928772, 0.32737553119659424, -1.7499773502349854, 1.0821244716644287, -0.6298828125, -0.358642578125, -0.562744140625, 0, 
5, 1006780555, 0.30506566166877747, 0.662240743637085, -0.31877240538597107, 0.6056067943572998, 9.68647575378418, 0.23409534990787506, -0.8405764102935791, 0.38610896468162537, -1.8869879245758057, 0.9794626832008362, -0.628662109375, -0.357666015625, -0.5654296875, 0, 
6, 1006788888, 0.30506983399391174, 0.6622479557991028, -0.31877461075782776, 0.6055957078933716, 9.684617042541504, 0.2362099587917328, -0.8346787691116333, 0.4497859477996826, -1.949537754058838, 1.0407575368881226, -0.630126953125, -0.355712890625, -0.564208984375, 0, 
7, 1006797221, 0.305071622133255, 0.6622512340545654, -0.31877627968788147, 0.6055903434753418, 9.6867094039917, 0.2476668357849121, -0.8336625695228577, 0.48467251658439636, -1.9519455432891846, 1.072826623916626, -0.628662109375, -0.359130859375, -0.565185546875, 0, 
8, 1006805554, 0.30507156252861023, 0.6622524857521057, -0.3187725245952606, 0.6055909991264343, 9.678937911987305, 0.23377743363380432, -0.8557721376419067, 0.5625910758972168, -1.7876558303833008, 1.0968782901763916, -0.63037109375, -0.360595703125, -0.563232421875, 0, 
9, 1006813887, 0.3050547242164612, 0.6622483134269714, -0.3187706470489502, 0.6056050658226013, 9.666152954101562, 0.24625888466835022, -0.8008508682250977, 0.7383046746253967, -1.7794336080551147, 1.3084263801574707, -0.627197265625, -0.358642578125, -0.56494140625, 0, 
10, 1006822220, 0.3050372898578644, 0.6622529029846191, -0.31876975297927856, 0.6056093573570251, 9.664392471313477, 0.2346036583185196, -0.7917219400405884, 0.7298263907432556, -1.8712353706359863, 1.2686985731124878, -0.629150390625, -0.356689453125, -0.563232421875, 0, 
11, 1006830553, 0.3050209581851959, 0.6622455716133118, -0.31876567006111145, 0.6056278347969055, 9.694435119628906, 0.2510612905025482, -0.825007975101471, 0.7569774389266968, -1.7010542154312134, 1.3158031702041626, -0.63134765625, -0.359130859375, -0.564208984375, 0, 
12, 1006838886, 0.3050003945827484, 0.6622462868690491, -0.3187607228755951, 0.6056399941444397, 9.689298629760742, 0.25769615173339844, -0.8485334515571594, 0.8095635175704956, -1.7628101110458374, 1.3095535039901733, -0.629638671875, -0.355712890625, -0.564208984375, 0, 
13, 1006847219, 0.3049798011779785, 0.6622427701950073, -0.31875428557395935, 0.6056576371192932, 9.706948280334473, 0.2336425483226776, -0.842713475227356, 0.8283131718635559, -1.7492856979370117, 1.309194803237915, -0.631103515625, -0.359130859375, -0.565185546875, 0, 
14, 1006855552, 0.3049551844596863, 0.6622375845909119, -0.3187578320503235, 0.6056738495826721, 9.696852684020996, 0.25006094574928284, -0.8563238382339478, 0.7677099108695984, -1.732636570930481, 1.4623680114746094, -0.629638671875, -0.356201171875, -0.56884765625, 0, 
15, 1006863885, 0.30493125319480896, 0.6622246503829956, -0.31875723600387573, 0.6057002544403076, 9.690295219421387, 0.23720890283584595, -0.8358342051506042, 0.8095122575759888, -1.6308197975158691, 1.469360589981079, -0.631103515625, -0.358642578125, -0.565673828125, 0, 
16, 1006872218, 0.30489954352378845, 0.6622147560119629, -0.31876012682914734, 0.6057257056236267, 9.68428897857666, 0.2439824938774109, -0.8259394764900208, 0.8584867715835571, -1.6361991167068481, 1.5743789672851562, -0.6298828125, -0.359130859375, -0.561279296875, 0, 
17, 1006880551, 0.30487915873527527, 0.6621965765953064, -0.3187626302242279, 0.6057544946670532, 9.674189567565918, 0.22412385046482086, -0.8297008872032166, 0.7402001619338989, -1.5618919134140015, 1.5019419193267822, -0.631591796875, -0.358154296875, -0.564697265625, 0, 
18, 1006888884, 0.3048595190048218, 0.6621813774108887, -0.3187755346298218, 0.6057741045951843, 9.711954116821289, 0.22551733255386353, -0.8446990251541138, 0.618020236492157, -1.6349180936813354, 1.5646966695785522, -0.630126953125, -0.355224609375, -0.56591796875, 0, 
19, 1006897217, 0.3048448860645294, 0.662154495716095, -0.3187871277332306, 0.6058048009872437, 9.68967342376709, 0.23356656730175018, -0.8137355446815491, 0.5822114944458008, -1.4858176708221436, 1.581678867340088, -0.627685546875, -0.360595703125, -0.56591796875, 0, 
20, 1006905550, 0.3048252761363983, 0.6621367931365967, -0.31879669427871704, 0.6058290004730225, 9.708186149597168, 0.2439606487751007, -0.8661606311798096, 0.6546741724014282, -1.5581523180007935, 1.563774585723877, -0.63037109375, -0.358642578125, -0.563232421875, 0, 
21, 1006913883, 0.3048059344291687, 0.6621153354644775, -0.3188043236732483, 0.6058582663536072, 9.694564819335938, 0.2383115589618683, -0.8193649649620056, 0.6759852766990662, -1.5471127033233643, 1.5540668964385986, -0.629150390625, -0.359619140625, -0.565673828125, 0, 
22, 1006922216, 0.304786741733551, 0.6620973348617554, -0.31881511211395264, 0.6058818697929382, 9.664996147155762, 0.23539325594902039, -0.811499297618866, 0.6372053027153015, -1.5652730464935303, 1.57256019115448, -0.62890625, -0.357666015625, -0.562255859375, 0, 
23, 1006930549, 0.30475738644599915, 0.6620869040489197, -0.3188270926475525, 0.6059017777442932, 9.672711372375488, 0.23622092604637146, -0.8181679844856262, 0.735051691532135, -1.787143588066101, 1.5917452573776245, -0.630615234375, -0.357177734375, -0.564208984375, 0, 
24, 1006938882, 0.3047266900539398, 0.6620799899101257, -0.318833589553833, 0.6059213876724243, 9.677520751953125, 0.2383415699005127, -0.810563862323761, 0.8073863387107849, -1.7265914678573608, 1.561879277229309, -0.629638671875, -0.358642578125, -0.56640625, 0, 
25, 1006947215, 0.3046923875808716, 0.6620711088180542, -0.31883981823921204, 0.6059449911117554, 9.664466857910156, 0.226440891623497, -0.809045135974884, 0.8522111773490906, -1.7636299133300781, 1.5897475481033325, -0.626708984375, -0.357177734375, -0.5634765625, 0, 
26, 1006955548, 0.30465438961982727, 0.6620656251907349, -0.31884729862213135, 0.6059662103652954, 9.676660537719727, 0.20868369936943054, -0.8359240889549255, 0.8782097101211548, -1.7585582733154297, 1.6319342851638794, -0.629638671875, -0.357177734375, -0.56689453125, 0, 
27, 1006963881, 0.3046133816242218, 0.6620575785636902, -0.31884562969207764, 0.6059964895248413, 9.69075870513916, 0.23085889220237732, -0.8033095598220825, 1.0102254152297974, -1.7070993185043335, 1.5954339504241943, -0.627685546875, -0.356689453125, -0.56884765625, 0, 
28, 1006972214, 0.30458343029022217, 0.6620502471923828, -0.31884944438934326, 0.6060176491737366, 9.707059860229492, 0.220190167427063, -0.852630615234375, 0.826494574546814, -1.6942921876907349, 1.541387915611267, -0.628662109375, -0.357177734375, -0.56494140625, 0, 
29, 1006980547, 0.30455806851387024, 0.662040114402771, -0.31884896755218506, 0.6060417890548706, 9.697397232055664, 0.23815332353115082, -0.8546916842460632, 0.8222426176071167, -1.6815361976623535, 1.460574984550476, -0.630615234375, -0.355712890625, -0.565673828125, 0, 
30, 1006988880, 0.30452677607536316, 0.6620297431945801, -0.31885766983032227, 0.6060642600059509, 9.703091621398926, 0.24584762752056122, -0.8410744667053223, 0.7921714782714844, -1.681408166885376, 1.6147983074188232, -0.628662109375, -0.356201171875, -0.562744140625, 0, 
31, 1006997213, 0.304496169090271, 0.6620175242424011, -0.3188645541667938, 0.6060895323753357, 9.692267417907715, 0.23726503551006317, -0.8401220440864563, 0.8042868971824646, -1.70750892162323, 1.5850855112075806, -0.627197265625, -0.357666015625, -0.56396484375, 0, 
32, 1007005546, 0.30447354912757874, 0.6620006561279297, -0.31887370347976685, 0.6061142683029175, 9.68466567993164, 0.21183279156684875, -0.8043029308319092, 0.6938896179199219, -1.5717023611068726, 1.584394097328186, -0.627197265625, -0.358154296875, -0.56640625, 0, 
33, 1007013879, 0.30444926023483276, 0.6619847416877747, -0.3188871443271637, 0.6061367988586426, 9.697629928588867, 0.23915377259254456, -0.8425694704055786, 0.6655603051185608, -1.7008237838745117, 1.5976368188858032, -0.62890625, -0.355712890625, -0.561279296875, 0, 
34, 1007022212, 0.3044299781322479, 0.6619646549224854, -0.3189048767089844, 0.6061592102050781, 9.694690704345703, 0.21381664276123047, -0.8335261344909668, 0.5664331316947937, -1.5889661312103271, 1.6396182775497437, -0.629150390625, -0.354248046875, -0.56689453125, 0, 
35, 1007030545, 0.3044080138206482, 0.6619433164596558, -0.3189166784286499, 0.6061874032020569, 9.700490951538086, 0.218740776181221, -0.8452329039573669, 0.66094970703125, -1.587327003479004, 1.6109049320220947, -0.628662109375, -0.357666015625, -0.564208984375, 0, 
36, 1007038878, 0.30439844727516174, 0.6619248390197754, -0.31891703605651855, 0.6062120795249939, 9.717710494995117, 0.2126714438199997, -0.8480288982391357, 0.6386140584945679, -1.465044379234314, 1.4011242389678955, -0.631591796875, -0.356689453125, -0.565673828125, 0, 
37, 1007047211, 0.3043842911720276, 0.6619070768356323, -0.3189261555671692, 0.6062337160110474, 9.703369140625, 0.22833772003650665, -0.8209882378578186, 0.598758339881897, -1.630614995956421, 1.4771215915679932, -0.629638671875, -0.355224609375, -0.563720703125, 0, 
38, 1007055544, 0.3043718934059143, 0.6618895530700684, -0.3189316987991333, 0.6062560677528381, 9.699695587158203, 0.22332525253295898, -0.7911891341209412, 0.6162529587745667, -1.5287474393844604, 1.4601396322250366, -0.629638671875, -0.358642578125, -0.564697265625, 0, 
39, 1007063877, 0.30435770750045776, 0.6618746519088745, -0.31893816590309143, 0.6062761545181274, 9.676504135131836, 0.22868555784225464, -0.8315777778625488, 0.6263192892074585, -1.6581501960754395, 1.4346532821655273, -0.624755859375, -0.358154296875, -0.56787109375, 0, 
40, 1007072210, 0.30433598160743713, 0.6618687510490417, -0.31895023584365845, 0.6062873601913452, 9.677606582641602, 0.2305467128753662, -0.8574080467224121, 0.645939826965332, -1.7958266735076904, 1.4989194869995117, -0.628662109375, -0.358154296875, -0.56787109375, 0, 
41, 1007080543, 0.304307758808136, 0.6618469953536987, -0.31896620988845825, 0.6063168048858643, 9.686935424804688, 0.24024128913879395, -0.8081782460212708, 0.687716543674469, -1.6169369220733643, 1.7084696292877197, -0.630615234375, -0.353759765625, -0.56591796875, 0, 
42, 1007088876, 0.3042793869972229, 0.6618272066116333, -0.3189808428287506, 0.606344997882843, 9.677797317504883, 0.19861643016338348, -0.8616758584976196, 0.700933575630188, -1.5656317472457886, 1.711543321609497, -0.633056640625, -0.354736328125, -0.565185546875, 0, 
43, 1007097209, 0.30424872040748596, 0.6618124842643738, -0.31899407505989075, 0.6063695549964905, 9.679529190063477, 0.2189585268497467, -0.8304711580276489, 0.7402130365371704, -1.7195605039596558, 1.6498513221740723, -0.627197265625, -0.354736328125, -0.56787109375, 0, 
44, 1007105542, 0.3042146861553192, 0.6618088483810425, -0.3189995586872101, 0.6063876748085022, 9.694414138793945, 0.23810087144374847, -0.8293503522872925, 0.8524417281150818, -1.7788447141647339, 1.562058448791504, -0.630126953125, -0.355224609375, -0.56640625, 0, 
45, 1007113875, 0.3041829764842987, 0.6618003845214844, -0.31901228427886963, 0.6064061522483826, 9.727437019348145, 0.2005123794078827, -0.8607419729232788, 0.7521620392799377, -1.8305084705352783, 1.6027594804763794, -0.628662109375, -0.356201171875, -0.56591796875, 0, 
46, 1007122208, 0.30415773391723633, 0.6618015766143799, -0.31901881098747253, 0.6064141988754272, 9.69605827331543, 0.20728206634521484, -0.8346405029296875, 0.7409685850143433, -1.874308705329895, 1.4349862337112427, -0.630126953125, -0.354736328125, -0.56591796875, 0, 
47, 1007130541, 0.304124116897583, 0.6617971658706665, -0.319032222032547, 0.6064288020133972, 9.697454452514648, 0.23313303291797638, -0.8091899752616882, 0.7635347247123718, -1.9099894762039185, 1.5916173458099365, -0.629150390625, -0.351806640625, -0.56884765625, 0, 
48, 1007138874, 0.30409660935401917, 0.6617928743362427, -0.319040447473526, 0.606442928314209, 9.693841934204102, 0.21642707288265228, -0.8211686015129089, 0.7524694204330444, -1.791498064994812, 1.5189497470855713, -0.6298828125, -0.355224609375, -0.562255859375, 0, 
49, 1007147207, 0.30407634377479553, 0.6617836952209473, -0.3190484642982483, 0.6064589023590088, 9.701118469238281, 0.22184480726718903, -0.8687319159507751, 0.6735519170761108, -1.777205228805542, 1.4572707414627075, -0.630126953125, -0.357177734375, -0.5673828125, 0, 
50, 1007155540, 0.3040542006492615, 0.6617764234542847, -0.3190537989139557, 0.6064752340316772, 9.688243865966797, 0.20459607243537903, -0.8422887325286865, 0.7225520014762878, -1.7120683193206787, 1.4703084230422974, -0.631591796875, -0.355224609375, -0.563720703125, 0, 
51, 1007163873, 0.30404505133628845, 0.6617586612701416, -0.31905993819236755, 0.6064959764480591, 9.6901216506958, 0.22281500697135925, -0.8289943337440491, 0.5733234882354736, -1.6051545143127441, 1.4046590328216553, -0.630126953125, -0.354248046875, -0.562744140625, 0, 
52, 1007172206, 0.30403468012809753, 0.6617484092712402, -0.3190649747848511, 0.6065097451210022, 9.701180458068848, 0.1958031803369522, -0.8345170021057129, 0.5945063233375549, -1.6566134691238403, 1.3715908527374268, -0.630615234375, -0.356201171875, -0.564697265625, 0, 
53, 1007180539, 0.30401644110679626, 0.6617366075515747, -0.31907644867897034, 0.606525719165802, 9.705012321472168, 0.2211131602525711, -0.8096351027488708, 0.6151002645492554, -1.7598645687103271, 1.4845755100250244, -0.628173828125, -0.353759765625, -0.56494140625, 0, 
54, 1007188872, 0.3040073812007904, 0.6617275476455688, -0.31908777356147766, 0.6065342426300049, 9.672167778015137, 0.20941929519176483, -0.7876201272010803, 0.5116186738014221, -1.7372726202011108, 1.3902125358581543, -0.631103515625, -0.354736328125, -0.56689453125, 0, 
55, 1007197205, 0.3039860129356384, 0.6617242097854614, -0.31910446286201477, 0.606539785861969, 9.675941467285156, 0.21874307096004486, -0.8121817708015442, 0.5907922983169556, -1.9609618186950684, 1.4765325784683228, -0.631103515625, -0.354736328125, -0.56787109375, 0, 
56, 1007205538, 0.30396702885627747, 0.6617279648780823, -0.3191133737564087, 0.6065405011177063, 9.68270492553711, 0.23412871360778809, -0.802981972694397, 0.6423794031143188, -1.9462336301803589, 1.3643934726715088, -0.628173828125, -0.355712890625, -0.563720703125, 0, 
57, 1007213871, 0.30394408106803894, 0.6617249250411987, -0.3191220760345459, 0.6065508127212524, 9.686594009399414, 0.22170646488666534, -0.852346658706665, 0.6942994594573975, -1.8947232961654663, 1.4350632429122925, -0.628662109375, -0.356201171875, -0.56884765625, 0, 
58, 1007222204, 0.30392012000083923, 0.6617212295532227, -0.31913214921951294, 0.6065616607666016, 9.707030296325684, 0.22511807084083557, -0.815359354019165, 0.6905853748321533, -1.8176758289337158, 1.4899801015853882, -0.631103515625, -0.355712890625, -0.565673828125, 0, 
59, 1007230537, 0.3038944602012634, 0.6617135405540466, -0.3191402852535248, 0.606578528881073, 9.692049026489258, 0.20491977035999298, -0.7805489301681519, 0.7318499088287354, -1.8044589757919312, 1.4998160600662231, -0.631103515625, -0.355712890625, -0.56787109375, 0, 
60, 1007238870, 0.3038603663444519, 0.661714494228363, -0.31915026903152466, 0.6065893769264221, 9.695638656616211, 0.19796989858150482, -0.8273806571960449, 0.8032625317573547, -1.9026894569396973, 1.5546048879623413, -0.629638671875, -0.355224609375, -0.5654296875, 0, 
61, 1007247203, 0.30383357405662537, 0.661717414855957, -0.3191591799259186, 0.6065948605537415, 9.697410583496094, 0.20471830666065216, -0.8284757733345032, 0.7300825715065002, -2.0050950050354004, 1.4226914644241333, -0.628662109375, -0.355712890625, -0.56591796875, 0, 
62, 1007255536, 0.30380794405937195, 0.6617244482040405, -0.31916144490242004, 0.6065988540649414, 9.694241523742676, 0.19687804579734802, -0.8033725619316101, 0.7873048186302185, -1.9460033178329468, 1.3606027364730835, -0.631591796875, -0.355712890625, -0.56689453125, 0, 
63, 1007263869, 0.30378204584121704, 0.6617301106452942, -0.319166362285614, 0.6066030859947205, 9.696870803833008, 0.1914120465517044, -0.8306286334991455, 0.7611013650894165, -2.019131898880005, 1.361294150352478, -0.629150390625, -0.354736328125, -0.56640625, 0, 
64, 1007272202, 0.30376097559928894, 0.661739706993103, -0.3191705644130707, 0.6066011190414429, 9.702469825744629, 0.17665043473243713, -0.8381782174110413, 0.7128442525863647, -2.009500741958618, 1.3016642332077026, -0.628173828125, -0.355712890625, -0.563232421875, 0, 
65, 1007280535, 0.3037372827529907, 0.6617487072944641, -0.319173663854599, 0.6066015958786011, 9.697956085205078, 0.21450994908809662, -0.8783737421035767, 0.7544929385185242, -2.0631625652313232, 1.2960292100906372, -0.630126953125, -0.355712890625, -0.56640625, 0, 
66, 1007288868, 0.3037208616733551, 0.6617530584335327, -0.31917572021484375, 0.6066038608551025, 9.699493408203125, 0.2119557410478592, -0.856730043888092, 0.6867944598197937, -1.8977458477020264, 1.283811092376709, -0.632568359375, -0.355712890625, -0.565673828125, 0, 
67, 1007297201, 0.3037145435810089, 0.6617496013641357, -0.3191874921321869, 0.6066046357154846, 9.699681282043457, 0.21787677705287933, -0.8378414511680603, 0.47219839692115784, -1.9164698123931885, 1.2855784893035889, -0.627685546875, -0.355224609375, -0.56787109375, 0, 
68, 1007305534, 0.30370423197746277, 0.6617534756660461, -0.3191980719566345, 0.6065999865531921, 9.676119804382324, 0.20783869922161102, -0.8190087676048279, 0.5274739861488342, -1.9663406610488892, 1.284938097000122, -0.628173828125, -0.353271484375, -0.56396484375, 0, 
69, 1007313867, 0.3037016689777374, 0.6617436408996582, -0.31920748949050903, 0.6066069602966309, 9.678622245788574, 0.2194492071866989, -0.8299304842948914, 0.45903268456459045, -1.78094482421875, 1.2878837585449219, -0.632080078125, -0.351318359375, -0.56640625, 0, 
70, 1007322200, 0.30369508266448975, 0.6617424488067627, -0.31921911239624023, 0.606605589389801, 9.690847396850586, 0.21213635802268982, -0.8176385164260864, 0.4758356511592865, -1.8813269138336182, 1.2991029024124146, -0.629638671875, -0.356201171875, -0.5654296875, 0, 
71, 1007330533, 0.30369728803634644, 0.6617370247840881, -0.31923171877861023, 0.6066036820411682, 9.695015907287598, 0.19676338136196136, -0.7972903251647949, 0.3704586327075958, -1.890343189239502, 1.2198522090911865, -0.628173828125, -0.354736328125, -0.562744140625, 0, 
72, 1007338866, 0.3036980926990509, 0.661739706993103, -0.3192378580570221, 0.6065973043441772, 9.698529243469238, 0.1905791014432907, -0.8365694284439087, 0.4502982199192047, -1.905532717704773, 1.1507964134216309, -0.63134765625, -0.356689453125, -0.563232421875, 0, 
73, 1007347199, 0.30370253324508667, 0.6617323756217957, -0.31924501061439514, 0.6065993905067444, 9.686066627502441, 0.20111192762851715, -0.8284736275672913, 0.40242525935173035, -1.8073534965515137, 1.1767692565917969, -0.629638671875, -0.354736328125, -0.563720703125, 0, 
74, 1007355532, 0.30371129512786865, 0.6617251038551331, -0.3192499876022339, 0.6066001653671265, 9.71319580078125, 0.190665602684021, -0.8432197570800781, 0.376298725605011, -1.7162432670593262, 1.146288275718689, -0.630126953125, -0.354736328125, -0.562255859375, 0, 
75, 1007363865, 0.303729772567749, 0.6617110371589661, -0.31925663352012634, 0.6066027879714966, 9.705962181091309, 0.19283199310302734, -0.8138307332992554, 0.2548103928565979, -1.6820229291915894, 1.0866327285766602, -0.630126953125, -0.354248046875, -0.564208984375, 0, 
76, 1007372198, 0.303743451833725, 0.6617158055305481, -0.3192644715309143, 0.6065866947174072, 9.691600799560547, 0.18464209139347076, -0.8445064425468445, 0.284036248922348, -1.960321068763733, 1.0095337629318237, -0.628173828125, -0.355712890625, -0.568359375, 0, 
77, 1007380531, 0.30375683307647705, 0.6617141366004944, -0.31926459074020386, 0.6065816879272461, 9.706217765808105, 0.1904313564300537, -0.8561820387840271, 0.3735579550266266, -1.8493348360061646, 0.9829205870628357, -0.632080078125, -0.353271484375, -0.564208984375, 0, 
78, 1007388864, 0.30377256870269775, 0.6617198586463928, -0.31926655769348145, 0.6065667271614075, 9.697043418884277, 0.2080158144235611, -0.8332321047782898, 0.3236871063709259, -1.9259470701217651, 0.939709484577179, -0.629638671875, -0.353271484375, -0.56494140625, 0, 
79, 1007397197, 0.3037947416305542, 0.6617175340652466, -0.3192729949951172, 0.6065546274185181, 9.691123008728027, 0.19816389679908752, -0.8480004072189331, 0.20657877624034882, -1.8955684900283813, 0.9410157799720764, -0.630615234375, -0.354248046875, -0.562744140625, 0, 
80, 1007405530, 0.3038097321987152, 0.6617226004600525, -0.31927481293678284, 0.6065407991409302, 9.676347732543945, 0.21013595163822174, -0.8583812117576599, 0.33480367064476013, -1.9150866270065308, 0.9505698084831238, -0.631591796875, -0.351806640625, -0.564697265625, 0, 
81, 1007413863, 0.30382055044174194, 0.6617311239242554, -0.3192744851112366, 0.6065261960029602, 9.65462589263916, 0.21452561020851135, -0.777057409286499, 0.40091395378112793, -2.03124737739563, 0.9160930514335632, -0.632080078125, -0.355224609375, -0.564208984375, 0, 
82, 1007422196, 0.30382251739501953, 0.661743700504303, -0.3192722797393799, 0.6065126061439514, 9.681283950805664, 0.22063304483890533, -0.8183696269989014, 0.5169208645820618, -2.0114986896514893, 0.9924235343933105, -0.634033203125, -0.3564453125, -0.564697265625, 0, 
83, 1007430529, 0.3038179874420166, 0.6617527604103088, -0.31927016377449036, 0.6065061092376709, 9.689538955688477, 0.23048840463161469, -0.8158618807792664, 0.594199001789093, -2.0220518112182617, 1.0589948892593384, -0.627197265625, -0.355224609375, -0.56396484375, 0, 
84, 1007438862, 0.3038117289543152, 0.6617645621299744, -0.31927064061164856, 0.606496274471283, 9.702614784240723, 0.20910897850990295, -0.8127658367156982, 0.5839918255805969, -2.02004075050354, 1.1036533117294312, -0.630126953125, -0.355712890625, -0.564208984375, 0, 
85, 1007447195, 0.3037972152233124, 0.6617661714553833, -0.31927400827407837, 0.606499969959259, 9.688613891601562, 0.20002606511116028, -0.8499031066894531, 0.651728630065918, -1.933529019355774, 1.2674437761306763, -0.626708984375, -0.356201171875, -0.5654296875, 0, 
86, 1007455528, 0.3037799596786499, 0.6617699861526489, -0.31927490234375, 0.6065040230751038, 9.69292163848877, 0.21364723145961761, -0.865176796913147, 0.7086178064346313, -1.876947283744812, 1.2911624908447266, -0.630126953125, -0.357177734375, -0.565185546875, 0, 
87, 1007463861, 0.3037695586681366, 0.6617717146873474, -0.31927305459976196, 0.6065082550048828, 9.67563533782959, 0.22238630056381226, -0.8417452573776245, 0.6602069735527039, -1.8906506299972534, 1.1882699728012085, -0.6279296875, -0.352783203125, -0.559814453125, 0, 
88, 1007472194, 0.30376219749450684, 0.6617675423622131, -0.31927749514579773, 0.6065143942832947, 9.694962501525879, 0.22797560691833496, -0.8257676959037781, 0.5659977197647095, -1.7618622779846191, 1.2869359254837036, -0.629150390625, -0.355224609375, -0.56640625, 0, 
89, 1007480527, 0.30375319719314575, 0.6617650985717773, -0.3192797601222992, 0.6065202951431274, 9.704585075378418, 0.22746846079826355, -0.8493055105209351, 0.605315625667572, -1.8501803874969482, 1.2380129098892212, -0.63037109375, -0.355712890625, -0.561279296875, 0, 
90, 1007488860, 0.3037422299385071, 0.6617604494094849, -0.3192848861217499, 0.6065282225608826, 9.696112632751465, 0.20389990508556366, -0.847993016242981, 0.596017599105835, -1.7626307010650635, 1.3325293064117432, -0.627685546875, -0.350830078125, -0.56591796875, 0, 
91, 1007497193, 0.30374079942703247, 0.6617493629455566, -0.31929048895835876, 0.6065380573272705, 9.686599731445312, 0.19711387157440186, -0.794791579246521, 0.48820731043815613, -1.7224931716918945, 1.261168122291565, -0.627197265625, -0.356201171875, -0.56591796875, 0, 
92, 1007505526, 0.3037337362766266, 0.6617401838302612, -0.31929656863212585, 0.6065483093261719, 9.699565887451172, 0.20315781235694885, -0.8034868836402893, 0.5447891354560852, -1.6893739700317383, 1.3396501541137695, -0.632080078125, -0.353759765625, -0.56787109375, 0, 
93, 1007513859, 0.30372947454452515, 0.6617310643196106, -0.31929922103881836, 0.6065590977668762, 9.691368103027344, 0.19138802587985992, -0.8074103593826294, 0.5505779385566711, -1.7312021255493164, 1.2528433799743652, -0.630615234375, -0.355224609375, -0.564697265625, 0, 
94, 1007522192, 0.30371856689453125, 0.6617271304130554, -0.31930211186408997, 0.6065672039985657, 9.682482719421387, 0.196534663438797, -0.8043471574783325, 0.6211708188056946, -1.7564576864242554, 1.308042049407959, -0.630615234375, -0.356201171875, -0.56787109375, 0, 
95, 1007530525, 0.30370834469795227, 0.661729097366333, -0.3193012475967407, 0.6065706610679626, 9.690592765808105, 0.2136085480451584, -0.7894594073295593, 0.6478351950645447, -1.9022536277770996, 1.1909338235855103, -0.630126953125, -0.352783203125, -0.56787109375, 0, 
96, 1007538858, 0.3036925792694092, 0.6617298722267151, -0.3193058371543884, 0.6065753698348999, 9.683995246887207, 0.21222306787967682, -0.8170248866081238, 0.6549816131591797, -1.8561227321624756, 1.3312742710113525, -0.629150390625, -0.353759765625, -0.56787109375, 0, 
97, 1007547191, 0.30368542671203613, 0.6617257595062256, -0.3193069100379944, 0.6065829396247864, 9.693117141723633, 0.20127204060554504, -0.8333427309989929, 0.5962225198745728, -1.8091461658477783, 1.2259997129440308, -0.629150390625, -0.353759765625, -0.56494140625, 0, 
98, 1007555524, 0.3036743998527527, 0.6617164611816406, -0.3193136155605316, 0.606594979763031, 9.68104362487793, 0.2187817096710205, -0.8188333511352539, 0.5840301513671875, -1.6922940015792847, 1.3851408958435059, -0.630126953125, -0.354248046875, -0.56640625, 0, 
99, 1007563857, 0.30365726351737976, 0.6617014408111572, -0.3193216323852539, 0.6066156625747681, 9.707756996154785, 0.21097174286842346, -0.829279899597168, 0.6421744227409363, -1.670829176902771, 1.4759433269500732, -0.632568359375, -0.354736328125, -0.564208984375, 0, 
100, 1007572190, 0.30364182591438293, 0.6616880893707275, -0.31933072209358215, 0.6066333055496216, 9.701314926147461, 0.1933114379644394, -0.8047611117362976, 0.6117703318595886, -1.6383249759674072, 1.4853183031082153, -0.630126953125, -0.352294921875, -0.5693359375, 0, 
101, 1007580523, 0.3036256432533264, 0.6616725325584412, -0.31934037804603577, 0.6066533327102661, 9.69050407409668, 0.18981990218162537, -0.8149673342704773, 0.6133840680122375, -1.6750813722610474, 1.4821677207946777, -0.630126953125, -0.354248046875, -0.56787109375, 0, 
102, 1007588856, 0.30361297726631165, 0.6616752743721008, -0.31934842467308044, 0.6066523194313049, 9.683442115783691, 0.20470364391803741, -0.7965352535247803, 0.5796757340431213, -1.9257677793502808, 1.3029705286026, -0.629150390625, -0.355712890625, -0.56640625, 0, 
103, 1007597189, 0.3035898208618164, 0.6616732478141785, -0.3193605840206146, 0.6066597104072571, 9.684103965759277, 0.2273728996515274, -0.8138785362243652, 0.6595666408538818, -1.9447993040084839, 1.4523528814315796, -0.629150390625, -0.354736328125, -0.5654296875, 0, 
104, 1007605522, 0.3035687804222107, 0.6616748571395874, -0.3193671703338623, 0.6066650152206421, 9.69998836517334, 0.20802122354507446, -0.7980129718780518, 0.6902780532836914, -1.887910008430481, 1.392902135848999, -0.628662109375, -0.355712890625, -0.5673828125, 0, 
105, 1007613855, 0.3035449981689453, 0.6616688370704651, -0.3193790316581726, 0.6066772937774658, 9.685759544372559, 0.22268740832805634, -0.7946919798851013, 0.6711954474449158, -1.8673675060272217, 1.4916962385177612, -0.632568359375, -0.354736328125, -0.565673828125, 0, 
106, 1007622188, 0.30352920293807983, 0.661666214466095, -0.319388747215271, 0.6066828370094299, 9.70492172241211, 0.1948351263999939, -0.8350357413291931, 0.6018832921981812, -1.8416508436203003, 1.3951305150985718, -0.628173828125, -0.355712890625, -0.56591796875, 0, 
107, 1007630521, 0.30350953340530396, 0.6616606116294861, -0.3194022476673126, 0.6066916584968567, 9.685361862182617, 0.21183370053768158, -0.7983304858207703, 0.6061352491378784, -1.8927769660949707, 1.4562206268310547, -0.630126953125, -0.354248046875, -0.564697265625, 0, 
108, 1007638854, 0.30348941683769226, 0.6616576313972473, -0.3194121718406677, 0.6067000031471252, 9.681295394897461, 0.20159079134464264, -0.8195102214813232, 0.650114893913269, -1.8341715335845947, 1.4473580121994019, -0.628662109375, -0.352783203125, -0.5654296875, 0, 
109, 1007647187, 0.3034685552120209, 0.6616426110267639, -0.31941986083984375, 0.6067227125167847, 9.693611145019531, 0.20731352269649506, -0.8301767706871033, 0.6871786713600159, -1.6666285991668701, 1.5140830278396606, -0.630615234375, -0.353759765625, -0.565185546875, 0, 
110, 1007655520, 0.30343911051750183, 0.6616395115852356, -0.31942692399024963, 0.6067370772361755, 9.685410499572754, 0.18522806465625763, -0.844200074672699, 0.7854349613189697, -1.8086341619491577, 1.5232019424438477, -0.628662109375, -0.353271484375, -0.56689453125, 0, 
111, 1007663853, 0.30341458320617676, 0.6616342663764954, -0.31943872570991516, 0.6067488193511963, 9.691807746887207, 0.17984454333782196, -0.8005527257919312, 0.6798530220985413, -1.8825054168701172, 1.4918242692947388, -0.630126953125, -0.356201171875, -0.56640625, 0, 
112, 1007672186, 0.3033903241157532, 0.6616463661193848, -0.31944093108177185, 0.60674649477005, 9.705314636230469, 0.1560022234916687, -0.8699425458908081, 0.7686831951141357, -2.0410828590393066, 1.302714467048645, -0.629638671875, -0.355712890625, -0.56640625, 0, 
113, 1007680519, 0.3033671975135803, 0.661655068397522, -0.31944379210472107, 0.6067470908164978, 9.697490692138672, 0.20294411480426788, -0.8207762241363525, 0.7500360608100891, -2.0570919513702393, 1.2911111116409302, -0.630615234375, -0.354736328125, -0.563232421875, 0, 
114, 1007688852, 0.3033474385738373, 0.6616642475128174, -0.31943950057029724, 0.6067491769790649, 9.672282218933105, 0.20466621220111847, -0.8202076554298401, 0.7867668867111206, -1.9321715831756592, 1.2349135875701904, -0.630126953125, -0.352783203125, -0.5654296875, 0, 
115, 1007697185, 0.30333220958709717, 0.6616538763046265, -0.31944116950035095, 0.6067672371864319, 9.68864631652832, 0.21108406782150269, -0.8247280716896057, 0.6858980059623718, -1.6992610692977905, 1.3705408573150635, -0.631103515625, -0.352783203125, -0.564697265625, 0, 
116, 1007705518, 0.3033181428909302, 0.6616331934928894, -0.31945228576660156, 0.6067910194396973, 9.691518783569336, 0.23026791214942932, -0.7958658933639526, 0.5791122317314148, -1.5221387147903442, 1.5504553318023682, -0.628173828125, -0.353759765625, -0.5673828125, 0, 
117, 1007713851, 0.3032967150211334, 0.6616243720054626, -0.31946244835853577, 0.6068059802055359, 9.683241844177246, 0.16171762347221375, -0.8608023524284363, 0.6635111570358276, -1.8035112619400024, 1.4804515838623047, -0.631591796875, -0.355224609375, -0.5673828125, 0, 
118, 1007722184, 0.3032759130001068, 0.6616177558898926, -0.3194657862186432, 0.6068217158317566, 9.696953773498535, 0.15632592141628265, -0.8471744656562805, 0.7301849722862244, -1.7118889093399048, 1.4407237768173218, -0.631103515625, -0.354736328125, -0.56689453125, 0, 
119, 1007730517, 0.3032582402229309, 0.6616110801696777, -0.3194718062877655, 0.6068346500396729, 9.686944961547852, 0.19787265360355377, -0.8067538142204285, 0.6644588708877563, -1.805662751197815, 1.3941829204559326, -0.633544921875, -0.353271484375, -0.564697265625, 0, 
120, 1007738850, 0.30323708057403564, 0.6616091728210449, -0.3194775879383087, 0.6068443059921265, 9.697545051574707, 0.17886275053024292, -0.8121405243873596, 0.7045708298683167, -1.8185468912124634, 1.4190542697906494, -0.631103515625, -0.353759765625, -0.56689453125, 0, 
121, 1007747183, 0.3032210171222687, 0.661611795425415, -0.3194761276245117, 0.6068501472473145, 9.703022003173828, 0.2091275155544281, -0.834905207157135, 0.7199392914772034, -1.9093493223190308, 1.2417012453079224, -0.628662109375, -0.353759765625, -0.563232421875, 0, 
122, 1007755516, 0.30320268869400024, 0.6616144180297852, -0.3194790184497833, 0.6068549752235413, 9.69119644165039, 0.200129896402359, -0.8766214847564697, 0.6997040510177612, -1.8756920099258423, 1.33014714717865, -0.630615234375, -0.354736328125, -0.56591796875, 0, 
123, 1007763849, 0.3031904995441437, 0.661613404750824, -0.31947803497314453, 0.6068627238273621, 9.694149017333984, 0.17703750729560852, -0.8346258401870728, 0.6728858351707458, -1.8465685844421387, 1.23703932762146, -0.629638671875, -0.355224609375, -0.56591796875, 0, 
124, 1007772182, 0.3031805455684662, 0.6616239547729492, -0.31947919726371765, 0.6068554520606995, 9.72096061706543, 0.18813201785087585, -0.8271357417106628, 0.6182507872581482, -2.0076310634613037, 1.159991979598999, -0.631591796875, -0.355712890625, -0.565185546875, 0, 
125, 1007780515, 0.3031711280345917, 0.6616309285163879, -0.3194754421710968, 0.6068545579910278, 9.699893951416016, 0.18718022108078003, -0.8319882154464722, 0.666405439376831, -1.9677239656448364, 1.118266224861145, -0.633544921875, -0.35400390625, -0.564208984375, 0, 
126, 1007788848, 0.30316874384880066, 0.661639928817749, -0.3194756507873535, 0.6068457961082458, 9.705887794494629, 0.189727783203125, -0.8036882877349854, 0.547248125076294, -1.9728726148605347, 1.0870938301086426, -0.628173828125, -0.353759765625, -0.5673828125, 0, 
127, 1007797181, 0.30317193269729614, 0.6616503596305847, -0.31947049498558044, 0.6068354845046997, 9.716957092285156, 0.19048048555850983, -0.8654351830482483, 0.5360291004180908, -2.0214881896972656, 0.9449602961540222, -0.633056640625, -0.351806640625, -0.566162109375, 0, 
128, 1007805514, 0.30317720770835876, 0.6616559028625488, -0.31947439908981323, 0.6068248152732849, 9.712078094482422, 0.19396556913852692, -0.8545829653739929, 0.42073941230773926, -1.941136360168457, 1.0649629831314087, -0.628662109375, -0.352783203125, -0.56640625, 0, 
129, 1007813847, 0.30318304896354675, 0.6616663932800293, -0.31947216391563416, 0.6068117022514343, 9.698955535888672, 0.17383815348148346, -0.8299412131309509, 0.4761430025100708, -2.0480246543884277, 0.9381982088088989, -0.629150390625, -0.355712890625, -0.56494140625, 0, 
130, 1007822180, 0.3031827509403229, 0.6616699695587158, -0.3194654583930969, 0.6068114042282104, 9.69346809387207, 0.19567438960075378, -0.8101514577865601, 0.5973751544952393, -1.812578558921814, 1.0682672262191772, -0.629638671875, -0.355712890625, -0.56689453125, 0, 
131, 1007830513, 0.30318957567214966, 0.6616694927215576, -0.31946924328804016, 0.6068064570426941, 9.699763298034668, 0.198245108127594, -0.844333291053772, 0.40808597207069397, -1.9025099277496338, 1.0673707723617554, -0.632080078125, -0.355712890625, -0.566162109375, 0, 
132, 1007838846, 0.3031900227069855, 0.6616658568382263, -0.3194756507873535, 0.6068066954612732, 9.689109802246094, 0.1944964975118637, -0.823566734790802, 0.45275717973709106, -1.7980808019638062, 1.2127572298049927, -0.631591796875, -0.352783203125, -0.563232421875, 0, 
133, 1007847179, 0.3031950891017914, 0.6616569757461548, -0.31947651505470276, 0.6068133115768433, 9.675936698913574, 0.20637428760528564, -0.8226073384284973, 0.464437335729599, -1.7221859693527222, 1.1403714418411255, -0.629638671875, -0.355712890625, -0.56787109375, 0, 
134, 1007855512, 0.3032023012638092, 0.6616483330726624, -0.31947821378707886, 0.606818437576294, 9.680651664733887, 0.1834753006696701, -0.7946373820304871, 0.4321121275424957, -1.6620692014694214, 1.158121943473816, -0.631591796875, -0.352294921875, -0.56591796875, 0, 
135, 1007863845, 0.3032132387161255, 0.6616372466087341, -0.31947916746139526, 0.6068246364593506, 9.694567680358887, 0.1907884180545807, -0.8430026173591614, 0.3979939818382263, -1.6836366653442383, 1.0995680093765259, -0.630615234375, -0.354736328125, -0.56640625, 0, 
136, 1007872178, 0.3032318949699402, 0.6616277694702148, -0.31948044896125793, 0.6068247556686401, 9.707179069519043, 0.17327453196048737, -0.8216865658760071, 0.3047325611114502, -1.647187352180481, 1.0392974615097046, -0.627685546875, -0.352783203125, -0.56591796875, 0, 
137, 1007880511, 0.30325838923454285, 0.6616167426109314, -0.3194754421710968, 0.6068260669708252, 9.702713012695312, 0.17344264686107635, -0.8401039242744446, 0.28500959277153015, -1.6346107721328735, 0.8960372805595398, -0.629638671875, -0.354736328125, -0.563720703125, 0, 
138, 1007888844, 0.30328646302223206, 0.6616223454475403, -0.31947001814842224, 0.6068090200424194, 9.689332008361816, 0.18017426133155823, -0.7861154675483704, 0.26408281922340393, -1.8621422052383423, 0.7642008066177368, -0.628173828125, -0.354736328125, -0.56591796875, 0, 
139, 1007897177, 0.3033156394958496, 0.6616404056549072, -0.31945914030075073, 0.6067803502082825, 9.701300621032715, 0.18735212087631226, -0.816371738910675, 0.2991742789745331, -2.114339828491211, 0.5658696293830872, -0.629638671875, -0.353271484375, -0.568359375, 0, 
140, 1007905510, 0.30333301424980164, 0.6616669297218323, -0.31944626569747925, 0.6067496538162231, 9.7119779586792, 0.18977032601833344, -0.8016653656959534, 0.4487357437610626, -2.1767616271972656, 0.6378968954086304, -0.630126953125, -0.351318359375, -0.56494140625, 0, 
141, 1007913843, 0.30335184931755066, 0.6616908311843872, -0.3194267451763153, 0.6067243814468384, 9.702838897705078, 0.2190684825181961, -0.8195669651031494, 0.5055481195449829, -2.140338182449341, 0.5620787143707275, -0.630615234375, -0.353271484375, -0.56591796875, 0, 
142, 1007922176, 0.3033770024776459, 0.6617111563682556, -0.3194091320037842, 0.606698751449585, 9.679079055786133, 0.18533208966255188, -0.7918885946273804, 0.4167180061340332, -2.024843692779541, 0.5784206390380859, -0.630615234375, -0.354248046875, -0.564208984375, 0, 
143, 1007930509, 0.3034040927886963, 0.6617283821105957, -0.31938987970352173, 0.6066765785217285, 9.691326141357422, 0.18475878238677979, -0.8151363730430603, 0.41246604919433594, -2.022615432739258, 0.5380014777183533, -0.629638671875, -0.354248046875, -0.568359375, 0, 
144, 1007938842, 0.303437739610672, 0.6617483496665955, -0.3193652927875519, 0.6066507697105408, 9.719072341918945, 0.18972396850585938, -0.8480017781257629, 0.39540693163871765, -1.9571452140808105, 0.4443301260471344, -0.632080078125, -0.353759765625, -0.564208984375, 0, 
145, 1007947175, 0.30347007513046265, 0.6617617607116699, -0.3193494379520416, 0.6066282987594604, 9.715470314025879, 0.21801766753196716, -0.8578603863716125, 0.3197168707847595, -1.9849367141723633, 0.5412544012069702, -0.632080078125, -0.352294921875, -0.56689453125, 0, 
146, 1007955508, 0.3035086393356323, 0.6617701649665833, -0.31933242082595825, 0.6066087484359741, 9.6834716796875, 0.20312157273292542, -0.8298642039299011, 0.2655683755874634, -1.8129884004592896, 0.5489130020141602, -0.630126953125, -0.353759765625, -0.56591796875, 0, 
147, 1007963841, 0.3035380244255066, 0.6617847681045532, -0.3193213641643524, 0.6065838932991028, 9.668746948242188, 0.2241782248020172, -0.7766426801681519, 0.302222341299057, -2.049638271331787, 0.595146656036377, -0.632568359375, -0.352783203125, -0.565673828125, 0, 
148, 1007972174, 0.303561806678772, 0.661804735660553, -0.3193112015724182, 0.6065556406974792, 9.675299644470215, 0.19915789365768433, -0.8047690391540527, 0.3520420491695404, -2.0829367637634277, 0.6471692323684692, -0.628662109375, -0.354248046875, -0.564453125, 0, 
149, 1007980507, 0.3035892844200134, 0.6618203520774841, -0.3193019926548004, 0.6065297722816467, 9.688728332519531, 0.21019019186496735, -0.8496012091636658, 0.30363115668296814, -2.0816307067871094, 0.6180458664894104, -0.630615234375, -0.354248046875, -0.56689453125, 0, 
150, 1007988840, 0.3036160469055176, 0.6618383526802063, -0.31928059458732605, 0.6065078377723694, 9.67530345916748, 0.21511390805244446, -0.8061566948890686, 0.437414288520813, -1.9516382217407227, 0.5547786951065063, -0.630615234375, -0.353271484375, -0.568359375, 0, 
151, 1007997173, 0.3036316931247711, 0.661858081817627, -0.3192656338214874, 0.6064863204956055, 9.684545516967773, 0.2081434726715088, -0.8165571093559265, 0.49599403142929077, -2.104555130004883, 0.6647405624389648, -0.628173828125, -0.353271484375, -0.568359375, 0, 
152, 1008005506, 0.3036503791809082, 0.6618726849555969, -0.31925636529922485, 0.6064659953117371, 9.691512107849121, 0.19662249088287354, -0.840481698513031, 0.40419262647628784, -1.992672085762024, 0.755261242389679, -0.632080078125, -0.355224609375, -0.563720703125, 0, 
153, 1008013839, 0.3036644458770752, 0.6618908047676086, -0.319241464138031, 0.6064471006393433, 9.699941635131836, 0.21503189206123352, -0.8377648591995239, 0.5133092403411865, -2.07499623298645, 0.6973987817764282, -0.631591796875, -0.355224609375, -0.566162109375, 0, 
154, 1008022172, 0.3036811351776123, 0.6619051098823547, -0.3192276656627655, 0.6064304113388062, 9.681472778320312, 0.19176608324050903, -0.809374988079071, 0.47396576404571533, -1.9479241371154785, 0.7458353042602539, -0.630126953125, -0.356201171875, -0.564208984375, 0, 
155, 1008030505, 0.30369654297828674, 0.6619153022766113, -0.3192199170589447, 0.6064156293869019, 9.693130493164062, 0.21339057385921478, -0.8233602643013, 0.42865419387817383, -1.9945420026779175, 0.8036977648735046, -0.628662109375, -0.354736328125, -0.56640625, 0, 
156, 1008038838, 0.3037143647670746, 0.6619282960891724, -0.3192089796066284, 0.6063981056213379, 9.698214530944824, 0.21096448600292206, -0.8008608818054199, 0.430088609457016, -1.9511003494262695, 0.765199601650238, -0.628662109375, -0.354736328125, -0.56689453125, 0, 
157, 1008047171, 0.30373284220695496, 0.6619319915771484, -0.31920814514160156, 0.606385350227356, 9.672828674316406, 0.22892636060714722, -0.7949956059455872, 0.3215867280960083, -1.9386006593704224, 0.8760837316513062, -0.626220703125, -0.354736328125, -0.56494140625, 0, 
158, 1008055504, 0.3037417232990265, 0.6619436740875244, -0.31920453906059265, 0.6063699126243591, 9.674487113952637, 0.20717540383338928, -0.8307449817657471, 0.4556003510951996, -1.9915707111358643, 0.9205243587493896, -0.630126953125, -0.355712890625, -0.563232421875, 0, 
159, 1008063837, 0.30374929308891296, 0.6619487404823303, -0.3192043602466583, 0.6063607335090637, 9.679719924926758, 0.20613394677639008, -0.8238281607627869, 0.43726062774658203, -1.968005895614624, 0.9838941097259521, -0.628173828125, -0.355712890625, -0.564453125, 0, 
160, 1008072170, 0.3037581443786621, 0.6619499325752258, -0.31920093297958374, 0.6063567996025085, 9.673831939697266, 0.20727874338626862, -0.8322018980979919, 0.46236249804496765, -1.7997456789016724, 1.0165008306503296, -0.630615234375, -0.355712890625, -0.565185546875, 0, 
161, 1008080503, 0.30377310514450073, 0.6619484424591064, -0.31920069456100464, 0.6063508987426758, 9.682687759399414, 0.2124888300895691, -0.8359748721122742, 0.3586505055427551, -1.8504363298416138, 0.9630183577537537, -0.632080078125, -0.352783203125, -0.565673828125, 0, 
162, 1008088836, 0.3037799000740051, 0.6619502305984497, -0.31921225786209106, 0.6063393950462341, 9.70608139038086, 0.22159609198570251, -0.8175363540649414, 0.32588991522789, -1.946976661682129, 1.1384758949279785, -0.626708984375, -0.354736328125, -0.5673828125, 0, 
163, 1008097169, 0.30378857254981995, 0.6619505882263184, -0.319215327501297, 0.6063330173492432, 9.680658340454102, 0.2140119969844818, -0.7834814190864563, 0.3916672468185425, -1.912730097770691, 1.0348150730133057, -0.632568359375, -0.354736328125, -0.5673828125, 0, 
164, 1008105502, 0.30378296971321106, 0.661963939666748, -0.3192201554775238, 0.6063187122344971, 9.6847505569458, 0.19544948637485504, -0.8375869989395142, 0.5308294296264648, -2.092465400695801, 1.1179077625274658, -0.627197265625, -0.355224609375, -0.56787109375, 0, 
165, 1008113835, 0.30378076434135437, 0.6619671583175659, -0.31922683119773865, 0.6063128113746643, 9.70638656616211, 0.1932285875082016, -0.8293784260749817, 0.4760405421257019, -1.9935944080352783, 1.1476457118988037, -0.6298828125, -0.356201171875, -0.562255859375, 0, 
166, 1008122168, 0.30378004908561707, 0.6619787216186523, -0.31922972202301025, 0.606299102306366, 9.691570281982422, 0.201333150267601, -0.7966689467430115, 0.4963526129722595, -2.043670177459717, 1.0687538385391235, -0.633056640625, -0.352294921875, -0.564697265625, 0, 
167, 1008130501, 0.3037891685962677, 0.6619811654090881, -0.31922656297683716, 0.6062934994697571, 9.699926376342773, 0.18817412853240967, -0.8487303256988525, 0.4543452560901642, -1.8949025869369507, 0.9693706631660461, -0.632080078125, -0.354248046875, -0.5673828125, 0, 
168, 1008138834, 0.30380257964134216, 0.6619945764541626, -0.3192233145236969, 0.6062737107276917, 9.698103904724121, 0.20178698003292084, -0.8206356167793274, 0.40022242069244385, -2.0278148651123047, 0.8620726466178894, -0.632568359375, -0.354248046875, -0.5673828125, 0, 
169, 1008147167, 0.30380943417549133, 0.6620160937309265, -0.3192160427570343, 0.6062506437301636, 9.713106155395508, 0.22862589359283447, -0.8417139053344727, 0.5113625526428223, -2.2051680088043213, 0.7938364148139954, -0.630615234375, -0.355224609375, -0.565185546875, 0, 
170, 1008155500, 0.30382204055786133, 0.6620305776596069, -0.3192102015018463, 0.6062314510345459, 9.686837196350098, 0.20723280310630798, -0.8201152086257935, 0.43674832582473755, -2.0224874019622803, 0.8436816334724426, -0.629150390625, -0.357666015625, -0.565185546875, 0, 
171, 1008163833, 0.303833544254303, 0.6620407104492188, -0.31920120120048523, 0.6062192916870117, 9.700865745544434, 0.20121681690216064, -0.8090644478797913, 0.4836735427379608, -1.9827337265014648, 0.8341531157493591, -0.629638671875, -0.357177734375, -0.56884765625, 0, 
172, 1008172166, 0.3038398325443268, 0.6620602011680603, -0.31918570399284363, 0.6062031388282776, 9.704313278198242, 0.2129434496164322, -0.8244356513023376, 0.6077233552932739, -2.025381326675415, 0.7987287044525146, -0.631103515625, -0.355712890625, -0.5673828125, 0, 
173, 1008180499, 0.3038499653339386, 0.662075400352478, -0.3191740810871124, 0.6061875820159912, 9.71417236328125, 0.22752605378627777, -0.8481712341308594, 0.5241184830665588, -2.0509188175201416, 0.7863057255744934, -0.631103515625, -0.355712890625, -0.56787109375, 0, 
174, 1008188832, 0.3038632869720459, 0.662093460559845, -0.31916871666908264, 0.6061638593673706, 9.689068794250488, 0.19692763686180115, -0.81924968957901, 0.4216102957725525, -2.094949960708618, 0.8065666556358337, -0.629150390625, -0.354248046875, -0.563720703125, 0, 
175, 1008197165, 0.3038802444934845, 0.6621041893959045, -0.3191598057746887, 0.6061483025550842, 9.67726993560791, 0.21338866651058197, -0.8149919509887695, 0.4209699332714081, -1.9958739280700684, 0.7740108966827393, -0.62939453125, -0.355224609375, -0.561279296875, 0, 
176, 1008205498, 0.303903192281723, 0.6621197462081909, -0.31914806365966797, 0.6061259508132935, 9.69247817993164, 0.21612265706062317, -0.8118798136711121, 0.3813447058200836, -1.9905205965042114, 0.6856674551963806, -0.63134765625, -0.357666015625, -0.563232421875, 0, 
177, 1008213831, 0.30392172932624817, 0.6621306538581848, -0.319137305021286, 0.6061103343963623, 9.662393569946289, 0.22259308397769928, -0.800722062587738, 0.42250677943229675, -1.9824519157409668, 0.7436580657958984, -0.62744140625, -0.357177734375, -0.562255859375, 0, 
178, 1008222164, 0.3039286732673645, 0.6621474623680115, -0.31912729144096375, 0.6060938835144043, 9.659476280212402, 0.22274203598499298, -0.7786730527877808, 0.5438670516014099, -2.0267903804779053, 0.852236807346344, -0.630615234375, -0.356201171875, -0.56787109375, 0, 
179, 1008230497, 0.3039340078830719, 0.6621559858322144, -0.31911513209342957, 0.6060883402824402, 9.690784454345703, 0.20849990844726562, -0.7688808441162109, 0.5880259871482849, -1.922822117805481, 0.8927329182624817, -0.630126953125, -0.357666015625, -0.5703125, 0, 
180, 1008238830, 0.30393630266189575, 0.6621708869934082, -0.3191089928150177, 0.6060739755630493, 9.693004608154297, 0.22088272869586945, -0.8347671627998352, 0.557545006275177, -2.028557777404785, 0.9439358115196228, -0.631103515625, -0.357666015625, -0.566650390625, 0, 
181, 1008247163, 0.30394360423088074, 0.6621802449226379, -0.3191050589084625, 0.6060622930526733, 9.672496795654297, 0.2029673457145691, -0.8522089719772339, 0.4772188067436218, -2.0114216804504395, 0.9218050241470337, -0.629638671875, -0.355224609375, -0.562744140625, 0, 
182, 1008255496, 0.30395203828811646, 0.6621993184089661, -0.31909504532814026, 0.6060424447059631, 9.699888229370117, 0.22550317645072937, -0.821427047252655, 0.5256040692329407, -2.070232391357422, 0.8179649710655212, -0.630126953125, -0.354736328125, -0.564697265625, 0, 
183, 1008263829, 0.3039643168449402, 0.6622111201286316, -0.3190850019454956, 0.6060286164283752, 9.722476959228516, 0.20479120314121246, -0.8637767434120178, 0.48684975504875183, -2.0051462650299072, 0.8039795756340027, -0.628662109375, -0.359130859375, -0.564208984375, 0, 
184, 1008272162, 0.30397549271583557, 0.6622267961502075, -0.3190707564353943, 0.6060132384300232, 9.6964750289917, 0.22078201174736023, -0.7966884970664978, 0.5391284227371216, -1.9696447849273682, 0.7896100282669067, -0.628662109375, -0.355224609375, -0.564453125, 0, 
185, 1008280495, 0.30398309230804443, 0.6622430086135864, -0.31906449794769287, 0.6059949994087219, 9.691697120666504, 0.20485013723373413, -0.7983102798461914, 0.4962245523929596, -2.1171317100524902, 0.8403518199920654, -0.630615234375, -0.354736328125, -0.564697265625, 0, 
186, 1008288828, 0.3039889335632324, 0.6622645258903503, -0.3190496861934662, 0.6059763431549072, 9.67822265625, 0.20466969907283783, -0.8059247136116028, 0.6031639575958252, -2.071589469909668, 0.78989177942276, -0.628173828125, -0.354248046875, -0.562744140625, 0, 
187, 1008297161, 0.30399206280708313, 0.6622821092605591, -0.31903982162475586, 0.6059606671333313, 9.671823501586914, 0.22520539164543152, -0.8348899483680725, 0.5837996602058411, -2.111112356185913, 0.8485995531082153, -0.628662109375, -0.359619140625, -0.565185546875, 0, 
188, 1008305494, 0.30399662256240845, 0.662304162979126, -0.3190322518348694, 0.6059383749961853, 9.681818962097168, 0.21810191869735718, -0.8008120059967041, 0.5420228242874146, -2.1439754962921143, 0.8489324450492859, -0.628173828125, -0.354736328125, -0.56787109375, 0, 
189, 1008313827, 0.30400800704956055, 0.6623219847679138, -0.3190237581729889, 0.6059176921844482, 9.668234825134277, 0.22511965036392212, -0.8219008445739746, 0.4758100211620331, -2.1269161701202393, 0.7728326320648193, -0.629638671875, -0.357177734375, -0.56591796875, 0, 
190, 1008322160, 0.3040091097354889, 0.6623388528823853, -0.31901630759239197, 0.6059026718139648, 9.67691421508789, 0.21056821942329407, -0.8565420508384705, 0.5811357498168945, -2.051354169845581, 0.9304882884025574, -0.628662109375, -0.357666015625, -0.5654296875, 0, 
191, 1008330493, 0.3040171265602112, 0.6623528003692627, -0.3190091848373413, 0.6058871746063232, 9.707477569580078, 0.2428920716047287, -0.8266846537590027, 0.5018853545188904, -2.0685927867889404, 0.8508793711662292, -0.630126953125, -0.356689453125, -0.565185546875, 0, 
192, 1008338826, 0.30402177572250366, 0.6623681783676147, -0.3190002143383026, 0.6058725714683533, 9.685528755187988, 0.2047964334487915, -0.8484170436859131, 0.5582877993583679, -2.012138843536377, 0.8955761194229126, -0.626220703125, -0.355712890625, -0.5654296875, 0, 
193, 1008347159, 0.30403080582618713, 0.6623758673667908, -0.31899765133857727, 0.6058610081672668, 9.693549156188965, 0.21572622656822205, -0.8342501521110535, 0.445175439119339, -1.9950544834136963, 0.9279782176017761, -0.62939453125, -0.355224609375, -0.562255859375, 0, 
194, 1008355492, 0.30403634905815125, 0.6623902320861816, -0.3189949691295624, 0.6058439016342163, 9.70008659362793, 0.22177760303020477, -0.8196386098861694, 0.48321253061294556, -2.050790786743164, 0.9410414099693298, -0.628662109375, -0.355224609375, -0.5654296875, 0, 
195, 1008363825, 0.30403992533683777, 0.6624065637588501, -0.3189927339553833, 0.6058254241943359, 9.68319034576416, 0.23983217775821686, -0.8327434062957764, 0.4986579716205597, -2.154400587081909, 0.9087674617767334, -0.630615234375, -0.357666015625, -0.563720703125, 0, 
196, 1008372158, 0.30403932929039, 0.6624162793159485, -0.3189845383167267, 0.6058192849159241, 9.669599533081055, 0.22710272669792175, -0.8054344654083252, 0.6121547222137451, -1.9145489931106567, 1.0071773529052734, -0.631103515625, -0.356201171875, -0.56689453125, 0, 
197, 1008380491, 0.3040317893028259, 0.66242915391922, -0.31898167729377747, 0.6058105826377869, 9.657719612121582, 0.22604796290397644, -0.7975031733512878, 0.6331583261489868, -2.0832698345184326, 1.051490068435669, -0.628173828125, -0.356689453125, -0.563232421875, 0, 
198, 1008388824, 0.3040288984775543, 0.6624494791030884, -0.3189795911312103, 0.6057907342910767, 9.67699146270752, 0.21714848279953003, -0.8361472487449646, 0.5660489201545715, -2.165440320968628, 0.9811789989471436, -0.628662109375, -0.355224609375, -0.563720703125, 0, 
199, 1008397157, 0.3040158748626709, 0.6624687314033508, -0.3189685642719269, 0.6057819128036499, 9.679228782653809, 0.21028020977973938, -0.7930595874786377, 0.7773920893669128, -2.127659559249878, 0.9942421317100525, -0.630859375, -0.354736328125, -0.562255859375, 0, 
200, 1008405490, 0.3040057122707367, 0.6624861359596252, -0.31895911693573, 0.6057730317115784, 9.67785358428955, 0.22369493544101715, -0.8540928363800049, 0.7291861176490784, -2.041288137435913, 1.0312036275863647, -0.631591796875, -0.355712890625, -0.563720703125, 0, 
201, 1008413823, 0.3039972186088562, 0.6625006794929504, -0.31895536184310913, 0.60576331615448, 9.695512771606445, 0.2098170518875122, -0.8567826747894287, 0.6521640419960022, -2.1066043376922607, 1.040911078453064, -0.6298828125, -0.355224609375, -0.561767578125, 0, 
202, 1008422156, 0.303994745016098, 0.6625067591667175, -0.31894487142562866, 0.6057636141777039, 9.724125862121582, 0.23532496392726898, -0.8838411569595337, 0.6614620089530945, -1.826666235923767, 1.0445483922958374, -0.628662109375, -0.353271484375, -0.562255859375, 0, 
203, 1008430489, 0.3039955198764801, 0.6625101566314697, -0.3189410865306854, 0.6057614088058472, 9.703874588012695, 0.23160894215106964, -0.8726772665977478, 0.5545482039451599, -1.904482364654541, 1.0435495376586914, -0.630615234375, -0.355712890625, -0.56787109375, 0, 
204, 1008438822, 0.30400195717811584, 0.6625162363052368, -0.31893542408943176, 0.605754554271698, 9.693121910095215, 0.2129286825656891, -0.8404863476753235, 0.5088779926300049, -1.873770833015442, 0.9853795766830444, -0.627197265625, -0.357666015625, -0.56640625, 0, 
205, 1008447155, 0.30401843786239624, 0.6625150442123413, -0.31893131136894226, 0.6057498455047607, 9.687524795532227, 0.22028683125972748, -0.8564884066581726, 0.38380369544029236, -1.819212555885315, 0.9181166291236877, -0.628173828125, -0.355712890625, -0.5654296875, 0, 
206, 1008455488, 0.30403605103492737, 0.6625097990036011, -0.31892773509025574, 0.6057485342025757, 9.680055618286133, 0.21253396570682526, -0.8288573622703552, 0.36618107557296753, -1.686300277709961, 0.9850209951400757, -0.628662109375, -0.356689453125, -0.5654296875, 0, 
207, 1008463821, 0.30404728651046753, 0.662509024143219, -0.3189236521720886, 0.6057458519935608, 9.681992530822754, 0.2053663283586502, -0.8105722665786743, 0.4416150748729706, -1.8271018266677856, 0.9700623154640198, -0.631591796875, -0.355712890625, -0.563232421875, 0, 
208, 1008472154, 0.3040637671947479, 0.6625083684921265, -0.3189191520214081, 0.6057406067848206, 9.693583488464355, 0.20040802657604218, -0.8457076549530029, 0.3844696581363678, -1.7639113664627075, 0.9471120238304138, -0.630126953125, -0.354736328125, -0.56884765625, 0, 
209, 1008480487, 0.3040836751461029, 0.6625053882598877, -0.31891587376594543, 0.6057355403900146, 9.679459571838379, 0.20998170971870422, -0.8165075182914734, 0.3378773629665375, -1.7953912019729614, 0.9056424498558044, -0.629150390625, -0.357177734375, -0.563232421875, 0, 
210, 1008488820, 0.30409884452819824, 0.662518322467804, -0.31891417503356934, 0.605714738368988, 9.68806266784668, 0.22571104764938354, -0.8117847442626953, 0.36264634132385254, -2.0358834266662598, 0.860254168510437, -0.629638671875, -0.356689453125, -0.564208984375, 0, 
211, 1008497153, 0.3041103184223175, 0.662532389163971, -0.31891176104545593, 0.6056947708129883, 9.695521354675293, 0.22713510692119598, -0.8373071551322937, 0.41279906034469604, -2.113494634628296, 0.8457821011543274, -0.63232421875, -0.358642578125, -0.562255859375, 0, 
212, 1008505486, 0.30411839485168457, 0.6625499129295349, -0.3189053237438202, 0.6056750416755676, 9.699446678161621, 0.24174685776233673, -0.8293684720993042, 0.49030762910842896, -2.0757646560668945, 0.8591782450675964, -0.627685546875, -0.357666015625, -0.56689453125, 0, 
213, 1008513819, 0.3041265904903412, 0.6625627279281616, -0.31889399886131287, 0.6056628227233887, 9.717198371887207, 0.22497038543224335, -0.8540855050086975, 0.5448403358459473, -2.011037588119507, 0.8293120265007019, -0.630615234375, -0.355224609375, -0.564697265625, 0, 
214, 1008522152, 0.3041345775127411, 0.6625802516937256, -0.3188842833042145, 0.6056447625160217, 9.697948455810547, 0.22505585849285126, -0.8294966816902161, 0.5271409153938293, -2.044464111328125, 0.8389429450035095, -0.630126953125, -0.356689453125, -0.565185546875, 0, 
215, 1008530485, 0.30414560437202454, 0.6625897288322449, -0.31887879967689514, 0.6056317090988159, 9.690423011779785, 0.23538826406002045, -0.83486407995224, 0.45265471935272217, -2.0019445419311523, 0.8712169528007507, -0.630859375, -0.357177734375, -0.562255859375, 0, 
216, 1008538818, 0.3041574954986572, 0.6625967621803284, -0.31887146830558777, 0.6056216955184937, 9.700447082519531, 0.24350200593471527, -0.8493057489395142, 0.4632846415042877, -1.8801487684249878, 0.9084855914115906, -0.63232421875, -0.356689453125, -0.563232421875, 0, 
217, 1008547151, 0.30416762828826904, 0.6625980734825134, -0.31886690855026245, 0.6056175827980042, 9.665597915649414, 0.25503191351890564, -0.8433411121368408, 0.45631763339042664, -1.8617579936981201, 0.9588689208030701, -0.630615234375, -0.355712890625, -0.56640625, 0, 
218, 1008555484, 0.30418020486831665, 0.6626008749008179, -0.3188669681549072, 0.6056082248687744, 9.649665832519531, 0.23972927033901215, -0.8086856007575989, 0.382574200630188, -1.8654719591140747, 0.9912707805633545, -0.631103515625, -0.357666015625, -0.564697265625, 0, 
219, 1008563817, 0.30418598651885986, 0.6625947952270508, -0.3188646137714386, 0.6056131720542908, 9.670568466186523, 0.23095665872097015, -0.8358964323997498, 0.48833537101745605, -1.7438809871673584, 1.0862740278244019, -0.626708984375, -0.357666015625, -0.564453125, 0, 
220, 1008572150, 0.30419155955314636, 0.662590503692627, -0.3188585937023163, 0.6056182980537415, 9.671791076660156, 0.21943232417106628, -0.8374199867248535, 0.529497504234314, -1.680204153060913, 1.0844810009002686, -0.630615234375, -0.356201171875, -0.56689453125, 0, 
221, 1008580483, 0.30418846011161804, 0.6625882983207703, -0.31885555386543274, 0.6056239008903503, 9.708355903625488, 0.2267475426197052, -0.8402596116065979, 0.5922523140907288, -1.8078655004501343, 1.138936996459961, -0.633056640625, -0.35400390625, -0.567138671875, 0, 
222, 1008588816, 0.3041910231113434, 0.6625828742980957, -0.31886017322540283, 0.6056258082389832, 9.688369750976562, 0.20439636707305908, -0.8378074169158936, 0.4509129822254181, -1.7565088272094727, 1.200257420539856, -0.628662109375, -0.354736328125, -0.563232421875, 0, 
223, 1008597149, 0.30418893694877625, 0.6625837683677673, -0.31886038184165955, 0.6056258082389832, 9.678165435791016, 0.20971453189849854, -0.8102121949195862, 0.5461466908454895, -1.8937242031097412, 1.1231073141098022, -0.6298828125, -0.360595703125, -0.564697265625, 0, 
224, 1008605482, 0.30419352650642395, 0.66258305311203, -0.31886154413223267, 0.6056237816810608, 9.699117660522461, 0.22684843838214874, -0.8344360589981079, 0.4624650776386261, -1.8094793558120728, 1.1135021448135376, -0.629638671875, -0.358154296875, -0.565185546875, 0, 
225, 1008613815, 0.3042010962963104, 0.6625757813453674, -0.318856418132782, 0.6056306958198547, 9.706215858459473, 0.22326140105724335, -0.8322096467018127, 0.4976077675819397, -1.6977756023406982, 1.0579191446304321, -0.629150390625, -0.356689453125, -0.56591796875, 0, 
226, 1008622148, 0.3042018413543701, 0.6625812649726868, -0.3188602924346924, 0.6056220531463623, 9.701496124267578, 0.20711785554885864, -0.8155499696731567, 0.47388893365859985, -1.9492048025131226, 1.1170111894607544, -0.63037109375, -0.357177734375, -0.561767578125, 0, 
227, 1008630481, 0.30420640110969543, 0.6625851392745972, -0.3188577890396118, 0.6056167483329773, 9.694193840026855, 0.1996399313211441, -0.8513904213905334, 0.4976333975791931, -1.9262546300888062, 1.0078433752059937, -0.63232421875, -0.359619140625, -0.564208984375, 0, 
228, 1008638814, 0.3042115569114685, 0.6625972986221313, -0.3188570737838745, 0.6056013703346252, 9.685945510864258, 0.22437109053134918, -0.8318179845809937, 0.46648645401000977, -2.0282247066497803, 0.979078471660614, -0.631591796875, -0.356201171875, -0.563720703125, 0, 
229, 1008647147, 0.3042086958885193, 0.6626070141792297, -0.31885969638824463, 0.6055907011032104, 9.688013076782227, 0.24158769845962524, -0.8306912779808044, 0.522632896900177, -2.0769944190979004, 1.069676160812378, -0.629638671875, -0.355224609375, -0.56591796875, 0, 
230, 1008655480, 0.3042088747024536, 0.6626136898994446, -0.31885766983032227, 0.605584442615509, 9.686675071716309, 0.23702241480350494, -0.8234750032424927, 0.5413568615913391, -1.916597843170166, 1.0700602531433105, -0.625732421875, -0.356689453125, -0.5654296875, 0, 
231, 1008663813, 0.3042029142379761, 0.6626150012016296, -0.31885501742362976, 0.6055874824523926, 9.682043075561523, 0.2502240836620331, -0.8453997373580933, 0.6202230453491211, -1.8738477230072021, 1.1405762434005737, -0.625244140625, -0.357666015625, -0.56298828125, 0, 
232, 1008672146, 0.30419906973838806, 0.6626207828521729, -0.31885215640068054, 0.6055845022201538, 9.6912260055542, 0.23886346817016602, -0.7969513535499573, 0.5941990613937378, -1.8930840492248535, 1.1161658763885498, -0.630859375, -0.357666015625, -0.562744140625, 0, 
233, 1008680479, 0.30419036746025085, 0.6626224517822266, -0.31885388493537903, 0.605586051940918, 9.696953773498535, 0.22668597102165222, -0.8222627639770508, 0.6039068698883057, -1.9211572408676147, 1.1951346397399902, -0.627685546875, -0.358642578125, -0.5654296875, 0, 
234, 1008688812, 0.30419260263442993, 0.662621796131134, -0.3188595175743103, 0.6055828928947449, 9.694315910339355, 0.22058208286762238, -0.8203248977661133, 0.4414869546890259, -1.8491042852401733, 1.1708266735076904, -0.630615234375, -0.358642578125, -0.565673828125, 0, 
235, 1008697145, 0.30419427156448364, 0.6626177430152893, -0.31886082887649536, 0.6055859327316284, 9.71604061126709, 0.21911916136741638, -0.8516649007797241, 0.49484145641326904, -1.8128092288970947, 1.1355814933776855, -0.629150390625, -0.356201171875, -0.5654296875, 0, 
236, 1008705478, 0.3041931092739105, 0.6626183986663818, -0.3188658356666565, 0.6055826544761658, 9.69591236114502, 0.23076927661895752, -0.8355540633201599, 0.4844163954257965, -1.8736428022384644, 1.1862720251083374, -0.627685546875, -0.356201171875, -0.56396484375, 0, 
237, 1008713811, 0.30418896675109863, 0.6626202464103699, -0.31887125968933105, 0.6055798530578613, 9.696861267089844, 0.23232541978359222, -0.8939273953437805, 0.5119516849517822, -1.9581185579299927, 1.1719022989273071, -0.62841796875, -0.355712890625, -0.561767578125, 0, 
238, 1008722144, 0.30418503284454346, 0.6626232266426086, -0.3188741207122803, 0.6055771708488464, 9.694140434265137, 0.22279766201972961, -0.8683327436447144, 0.5390771627426147, -1.8905224800109863, 1.1816871166229248, -0.629150390625, -0.356201171875, -0.564208984375, 0, 
239, 1008730477, 0.30417725443840027, 0.6626243591308594, -0.31887751817703247, 0.6055780053138733, 9.682821273803711, 0.23956646025180817, -0.8219985365867615, 0.5755902528762817, -1.9263696670532227, 1.202959656715393, -0.632080078125, -0.355712890625, -0.563720703125, 0, 
240, 1008738810, 0.30417925119400024, 0.6626203656196594, -0.31888318061828613, 0.6055785417556763, 9.67299747467041, 0.2476041465997696, -0.8243645429611206, 0.445380300283432, -1.7898330688476562, 1.2025628089904785, -0.631103515625, -0.358154296875, -0.564208984375, 0, 
241, 1008747143, 0.30417710542678833, 0.6626192927360535, -0.31889283657073975, 0.6055755615234375, 9.686041831970215, 0.2485542595386505, -0.7945075631141663, 0.4461999535560608, -1.9435696601867676, 1.2058156728744507, -0.6298828125, -0.358154296875, -0.563720703125, 0, 
242, 1008755476, 0.30416956543922424, 0.6626240611076355, -0.318897008895874, 0.6055718660354614, 9.694197654724121, 0.22768686711788177, -0.8312566876411438, 0.5644096732139587, -1.937831997871399, 1.2122961282730103, -0.628173828125, -0.356689453125, -0.56494140625, 0, 
243, 1008763809, 0.3041675090789795, 0.662609338760376, -0.3189103603363037, 0.6055819392204285, 9.686792373657227, 0.236425518989563, -0.8146899342536926, 0.41477128863334656, -1.7259767055511475, 1.353763461112976, -0.6298828125, -0.355224609375, -0.559814453125, 0, 
244, 1008772142, 0.3041704595088959, 0.6626023054122925, -0.3189161717891693, 0.6055850982666016, 9.691791534423828, 0.20207735896110535, -0.8268080949783325, 0.43454545736312866, -1.7372982501983643, 1.2199803590774536, -0.633544921875, -0.3544921875, -0.564208984375, 0, 
245, 1008780475, 0.30416905879974365, 0.6625940203666687, -0.3189266324043274, 0.6055893898010254, 9.69443416595459, 0.19848288595676422, -0.8245209455490112, 0.4337514340877533, -1.8175733089447021, 1.2695951461791992, -0.630859375, -0.356689453125, -0.562255859375, 0, 
246, 1008788808, 0.304168164730072, 0.6625926494598389, -0.31893327832221985, 0.6055878400802612, 9.684566497802734, 0.21317268908023834, -0.8461374640464783, 0.46482154726982117, -1.8474396467208862, 1.215421199798584, -0.626708984375, -0.357177734375, -0.5634765625, 0, 
247, 1008797141, 0.3041774034500122, 0.6625832319259644, -0.31893908977508545, 0.6055904030799866, 9.689231872558594, 0.22208450734615326, -0.8325285911560059, 0.36474665999412537, -1.7577128410339355, 1.1356583833694458, -0.6298828125, -0.359619140625, -0.560791015625, 0, 
248, 1008805474, 0.30418530106544495, 0.6625725030899048, -0.31894418597221375, 0.6055954098701477, 9.686365127563477, 0.21755510568618774, -0.8459035754203796, 0.38767141103744507, -1.6655783653259277, 1.1977983713150024, -0.628173828125, -0.356689453125, -0.564453125, 0, 
249, 1008813807, 0.3041897118091583, 0.6625654697418213, -0.31895115971565247, 0.6055972576141357, 9.679373741149902, 0.22773237526416779, -0.8151262402534485, 0.4051916003227234, -1.8108112812042236, 1.1740283966064453, -0.630615234375, -0.360595703125, -0.565673828125, 0, 
250, 1008822140, 0.30418869853019714, 0.6625625491142273, -0.3189593553543091, 0.605596661567688, 9.679710388183594, 0.20741021633148193, -0.8425065875053406, 0.4522961378097534, -1.8328648805618286, 1.2405229806900024, -0.629638671875, -0.356689453125, -0.56689453125, 0, 
251, 1008830473, 0.3041893243789673, 0.6625564694404602, -0.3189677894115448, 0.605598509311676, 9.701803207397461, 0.2250097393989563, -0.8058087825775146, 0.4318815767765045, -1.8409075736999512, 1.214396357536316, -0.630615234375, -0.355224609375, -0.563720703125, 0, 
252, 1008838806, 0.30418914556503296, 0.6625625491142273, -0.31897133588790894, 0.6055900454521179, 9.702178955078125, 0.20162077248096466, -0.8374454379081726, 0.4866960644721985, -1.9551984071731567, 1.118957757949829, -0.628173828125, -0.356201171875, -0.5654296875, 0, 
253, 1008847139, 0.3041840195655823, 0.6625714302062988, -0.31896889209747314, 0.6055842041969299, 9.701179504394531, 0.21608328819274902, -0.8311874270439148, 0.6037018299102783, -2.0160579681396484, 1.0645276308059692, -0.631591796875, -0.357666015625, -0.565185546875, 0, 
254, 1008855472, 0.30417782068252563, 0.6625780463218689, -0.31897008419036865, 0.6055793762207031, 9.709726333618164, 0.21642965078353882, -0.8256540298461914, 0.5785486698150635, -1.9457981586456299, 1.1617591381072998, -0.629638671875, -0.355224609375, -0.564208984375, 0, 
255, 1008863805, 0.3041830062866211, 0.6625823378562927, -0.3189677596092224, 0.605573296546936, 9.696489334106445, 0.21444876492023468, -0.817219614982605, 0.4878999888896942, -1.9347584247589111, 0.9995700120925903, -0.630615234375, -0.356689453125, -0.565185546875, 0, 
256, 1008872138, 0.30417943000793457, 0.6625921130180359, -0.3189692199230194, 0.6055636405944824, 9.682448387145996, 0.239686980843544, -0.846588134765625, 0.5459674000740051, -2.0047874450683594, 1.108712077140808, -0.63623046875, -0.35595703125, -0.561279296875, 0, 
257, 1008880471, 0.30418235063552856, 0.6625933647155762, -0.31897610425949097, 0.6055570840835571, 9.662897109985352, 0.21051575243473053, -0.8129942417144775, 0.41820356249809265, -1.9609615802764893, 1.1139373779296875, -0.629150390625, -0.356689453125, -0.5654296875, 0, 
258, 1008888804, 0.30418241024017334, 0.6626011729240417, -0.3189757466316223, 0.6055488586425781, 9.67959213256836, 0.2246105670928955, -0.824020266532898, 0.5225560665130615, -1.9535080194473267, 1.0757977962493896, -0.631591796875, -0.356689453125, -0.568359375, 0, 
259, 1008897137, 0.30418646335601807, 0.6625995635986328, -0.3189757466316223, 0.605548620223999, 9.680143356323242, 0.22166979312896729, -0.8549813628196716, 0.4795112609863281, -1.8466838598251343, 1.0808054208755493, -0.629150390625, -0.356201171875, -0.563720703125, 0, 
260, 1008905470, 0.30419111251831055, 0.6626009345054626, -0.3189752697944641, 0.6055446863174438, 9.66971492767334, 0.2059383988380432, -0.790520429611206, 0.4746573865413666, -1.8400369882583618, 1.0819453001022339, -0.630126953125, -0.355712890625, -0.563232421875, 0, 
261, 1008913803, 0.3041914403438568, 0.6626027226448059, -0.3189777135848999, 0.6055412888526917, 9.692182540893555, 0.2336285412311554, -0.8130035400390625, 0.4937911927700043, -1.9310699701309204, 1.1063556671142578, -0.631103515625, -0.356201171875, -0.564208984375, 0, 
262, 1008922136, 0.30419695377349854, 0.6626056432723999, -0.318978875875473, 0.6055347323417664, 9.702235221862793, 0.21067681908607483, -0.8190727233886719, 0.4491456151008606, -1.8787657022476196, 1.0721094608306885, -0.630126953125, -0.356201171875, -0.563720703125, 0, 
263, 1008930469, 0.3042023181915283, 0.6626123785972595, -0.3189748525619507, 0.6055266857147217, 9.707159042358398, 0.22413991391658783, -0.8668607473373413, 0.50147545337677, -1.9651880264282227, 0.9634025692939758, -0.629638671875, -0.357177734375, -0.56591796875, 0, 
264, 1008938802, 0.3042190372943878, 0.6626098155975342, -0.3189755082130432, 0.6055208444595337, 9.706276893615723, 0.20790188014507294, -0.8523064851760864, 0.33096155524253845, -1.7760783433914185, 1.0024644136428833, -0.629150390625, -0.355712890625, -0.56640625, 0, 
265, 1008947135, 0.30424240231513977, 0.6626013517379761, -0.3189736008644104, 0.6055194139480591, 9.702742576599121, 0.24191665649414062, -0.8200812935829163, 0.2851632833480835, -1.7088152170181274, 0.9269534945487976, -0.63232421875, -0.357177734375, -0.562255859375, 0, 
266, 1008955468, 0.30425992608070374, 0.6626032590866089, -0.31897222995758057, 0.6055092215538025, 9.67911148071289, 0.21654890477657318, -0.8256864547729492, 0.3419756591320038, -1.8398576974868774, 0.9389921426773071, -0.629638671875, -0.357177734375, -0.564208984375, 0, 
267, 1008963801, 0.3042767643928528, 0.6625962853431702, -0.31896743178367615, 0.6055110692977905, 9.681796073913574, 0.21606890857219696, -0.8533007502555847, 0.38964372873306274, -1.7068942785263062, 0.9632489085197449, -0.627685546875, -0.355224609375, -0.56591796875, 0, 
268, 1008972134, 0.30429521203041077, 0.6625986099243164, -0.3189621865749359, 0.6055018305778503, 9.680180549621582, 0.21928656101226807, -0.8251199722290039, 0.37115025520324707, -1.814858078956604, 0.8987779021263123, -0.628662109375, -0.356689453125, -0.564208984375, 0, 
269, 1008980467, 0.30430367588996887, 0.6625984907150269, -0.318960964679718, 0.6054983735084534, 9.693906784057617, 0.2244551181793213, -0.811216413974762, 0.4408978223800659, -1.8642423152923584, 1.0123769044876099, -0.629638671875, -0.358642578125, -0.564697265625, 0, 
270, 1008988800, 0.30431100726127625, 0.662605345249176, -0.3189551830291748, 0.6054902076721191, 9.71304988861084, 0.22698554396629333, -0.8376494646072388, 0.500399649143219, -1.8897285461425781, 0.9699085354804993, -0.629150390625, -0.356689453125, -0.5654296875, 0, 
271, 1008997133, 0.30431440472602844, 0.6626092195510864, -0.3189520537853241, 0.6054859161376953, 9.660751342773438, 0.23229601979255676, -0.8459769487380981, 0.5165879130363464, -1.9196462631225586, 1.0176279544830322, -0.631591796875, -0.358642578125, -0.566162109375, 0, 
272, 1009005466, 0.3043178617954254, 0.6626215577125549, -0.31894588470458984, 0.6054738163948059, 9.670299530029297, 0.23319058120250702, -0.8486968874931335, 0.544558584690094, -1.9872418642044067, 0.9575369358062744, -0.628173828125, -0.360595703125, -0.565185546875, 0, 
273, 1009013799, 0.3043217658996582, 0.6626200675964355, -0.31894296407699585, 0.6054750680923462, 9.691205024719238, 0.2223513275384903, -0.8329858183860779, 0.5128993988037109, -1.822619080543518, 1.0611977577209473, -0.629150390625, -0.355224609375, -0.56591796875, 0, 
274, 1009022132, 0.3043234944343567, 0.662626326084137, -0.3189465403556824, 0.6054654121398926, 9.712414741516113, 0.23489847779273987, -0.8458113074302673, 0.4634639322757721, -1.9632158279418945, 1.0984920263290405, -0.628662109375, -0.358154296875, -0.564208984375, 0, 
275, 1009030465, 0.3043287694454193, 0.662626326084137, -0.31894776225090027, 0.6054620146751404, 9.681496620178223, 0.2367965281009674, -0.8435432314872742, 0.45096421241760254, -1.8880380392074585, 1.061863660812378, -0.630615234375, -0.357177734375, -0.563720703125, 0, 
276, 1009038798, 0.30432796478271484, 0.6626369953155518, -0.3189396262168884, 0.605455219745636, 9.682036399841309, 0.25119900703430176, -0.8338196277618408, 0.6156380772590637, -1.9361927509307861, 1.0050513744354248, -0.624755859375, -0.356201171875, -0.5625, 0, 
277, 1009047131, 0.3043328821659088, 0.6626356840133667, -0.31893330812454224, 0.6054575443267822, 9.680031776428223, 0.24273036420345306, -0.828248143196106, 0.5372073650360107, -1.7954680919647217, 1.025209665298462, -0.628662109375, -0.357666015625, -0.5673828125, 0, 
278, 1009055464, 0.30433499813079834, 0.6626332402229309, -0.31893521547317505, 0.6054579615592957, 9.686960220336914, 0.22976727783679962, -0.856110155582428, 0.48331496119499207, -1.7902685403823853, 1.159530758857727, -0.628173828125, -0.356689453125, -0.563232421875, 0, 
279, 1009063797, 0.3043422996997833, 0.6626195907592773, -0.3189406096935272, 0.605466365814209, 9.678555488586426, 0.2164376676082611, -0.8338861465454102, 0.3929480314254761, -1.6762341260910034, 1.1921634674072266, -0.628662109375, -0.355224609375, -0.563720703125, 0, 
280, 1009072130, 0.30434224009513855, 0.6626023054122925, -0.31895145773887634, 0.6054795980453491, 9.68567180633545, 0.2307554930448532, -0.8125458359718323, 0.4219433069229126, -1.5986229181289673, 1.3788913488388062, -0.630615234375, -0.357177734375, -0.56689453125, 0, 
281, 1009080463, 0.30434438586235046, 0.6625803709030151, -0.31895899772644043, 0.6054984927177429, 9.680594444274902, 0.22461381554603577, -0.8328547477722168, 0.4347247779369354, -1.5425275564193726, 1.3356029987335205, -0.62890625, -0.354248046875, -0.561279296875, 0, 
282, 1009088796, 0.304350882768631, 0.6625778675079346, -0.3189671039581299, 0.6054937839508057, 9.703226089477539, 0.22959358990192413, -0.8464324474334717, 0.36684709787368774, -1.843879222869873, 1.1597356796264648, -0.626953125, -0.358154296875, -0.562744140625, 0, 
283, 1009097129, 0.30435407161712646, 0.6625655889511108, -0.31897294521331787, 0.6055025458335876, 9.683371543884277, 0.2150241583585739, -0.8492720127105713, 0.43300861120224, -1.7035130262374878, 1.2249494791030884, -0.6298828125, -0.358642578125, -0.562744140625, 0, 
284, 1009105462, 0.3043628931045532, 0.6625609397888184, -0.3189759850502014, 0.6055014729499817, 9.68847942352295, 0.2260090857744217, -0.8434560894966125, 0.3960217237472534, -1.7611194849014282, 1.1181381940841675, -0.628662109375, -0.355224609375, -0.563232421875, 0, 
285, 1009113795, 0.30436965823173523, 0.662558913230896, -0.31897374987602234, 0.6055015325546265, 9.672882080078125, 0.214336097240448, -0.8319661021232605, 0.4732998311519623, -1.8191357851028442, 1.0408344268798828, -0.630615234375, -0.356689453125, -0.56787109375, 0, 
286, 1009122128, 0.30436769127845764, 0.6625645160675049, -0.3189713656902313, 0.6054975390434265, 9.670729637145996, 0.22779051959514618, -0.7970774173736572, 0.5686872005462646, -1.8978995084762573, 1.1019755601882935, -0.631103515625, -0.354248046875, -0.565185546875, 0, 
287, 1009130461, 0.3043655753135681, 0.6625709533691406, -0.31897351145744324, 0.6054903864860535, 9.67812728881836, 0.20814135670661926, -0.8217313885688782, 0.5220692753791809, -2.0137014389038086, 1.087349772453308, -0.62841796875, -0.359130859375, -0.562744140625, 0, 
288, 1009138794, 0.30435702204704285, 0.6625847220420837, -0.31896713376045227, 0.6054831743240356, 9.67984676361084, 0.22316810488700867, -0.8305383324623108, 0.680365264415741, -2.006631851196289, 1.0707261562347412, -0.62744140625, -0.358154296875, -0.561279296875, 0, 
289, 1009147127, 0.3043479323387146, 0.6625955700874329, -0.3189661204814911, 0.6054763793945312, 9.704171180725098, 0.23660533130168915, -0.8510307669639587, 0.6321592926979065, -2.063546657562256, 1.0997726917266846, -0.632568359375, -0.357666015625, -0.564208984375, 0, 
290, 1009155460, 0.30433958768844604, 0.6626056432723999, -0.3189602792263031, 0.6054726243019104, 9.69143009185791, 0.23391678929328918, -0.8646457195281982, 0.6750375032424927, -1.9466434717178345, 1.1049724817276, -0.630615234375, -0.356201171875, -0.5673828125, 0, 
291, 1009163793, 0.30432820320129395, 0.6626132130622864, -0.31896013021469116, 0.6054701209068298, 9.70329761505127, 0.22840343415737152, -0.8368393182754517, 0.6505247354507446, -2.011626720428467, 1.1579426527023315, -0.630126953125, -0.359619140625, -0.564697265625, 0, 
292, 1009172126, 0.30433568358421326, 0.6626237630844116, -0.3189551532268524, 0.6054573059082031, 9.690815925598145, 0.22711355984210968, -0.8645288944244385, 0.4858764111995697, -1.9674421548843384, 0.9414768218994141, -0.632080078125, -0.356689453125, -0.566650390625, 0, 
293, 1009180459, 0.3043363690376282, 0.6626273393630981, -0.3189604878425598, 0.6054503321647644, 9.718501091003418, 0.21856589615345, -0.8455700874328613, 0.4581362307071686, -1.9882665872573853, 1.1066886186599731, -0.630126953125, -0.354248046875, -0.562255859375, 0, 
294, 1009188792, 0.3043428957462311, 0.6626356840133667, -0.3189515173435211, 0.6054425835609436, 9.685770988464355, 0.22621981799602509, -0.8182845115661621, 0.5423557758331299, -1.8904457092285156, 0.9439613819122314, -0.629150390625, -0.357177734375, -0.564208984375, 0, 
295, 1009197125, 0.3043493330478668, 0.6626437902450562, -0.31894969940185547, 0.6054314374923706, 9.68277645111084, 0.23396998643875122, -0.8212960362434387, 0.46710115671157837, -2.0082457065582275, 0.9558976888656616, -0.631103515625, -0.358154296875, -0.564697265625, 0, 
296, 1009205458, 0.30435657501220703, 0.6626482605934143, -0.31894952058792114, 0.6054227948188782, 9.678690910339355, 0.2409157156944275, -0.8499981164932251, 0.4417943060398102, -1.9002560377120972, 1.0317414999008179, -0.628173828125, -0.355712890625, -0.564453125, 0, 
297, 1009213791, 0.304357647895813, 0.6626498699188232, -0.3189481794834137, 0.6054211854934692, 9.681395530700684, 0.2312251478433609, -0.8124188780784607, 0.5272433757781982, -1.8927510976791382, 1.0732876062393188, -0.629638671875, -0.354736328125, -0.56591796875, 0, 
298, 1009222124, 0.30435600876808167, 0.6626549363136292, -0.31894415616989136, 0.6054186820983887, 9.684514999389648, 0.23261350393295288, -0.8302842378616333, 0.5853620767593384, -1.8743343353271484, 1.092549443244934, -0.630126953125, -0.356689453125, -0.564208984375, 0, 
299, 1009230457, 0.3043576776981354, 0.6626557111740112, -0.3189462125301361, 0.6054158806800842, 9.693307876586914, 0.21835853159427643, -0.8493565320968628, 0.4825465679168701, -1.9092978239059448, 1.096750259399414, -0.627685546875, -0.356689453125, -0.5654296875, 0, 
300, 1009238790, 0.30435916781425476, 0.6626592874526978, -0.31894487142562866, 0.6054118871688843, 9.703116416931152, 0.2344040721654892, -0.8475533127784729, 0.5212497115135193, -1.872644066810608, 1.0927544832229614, -0.630615234375, -0.360595703125, -0.565185546875, 0, 
301, 1009247123, 0.3043607771396637, 0.6626603603363037, -0.3189437687397003, 0.6054104566574097, 9.68681526184082, 0.22593118250370026, -0.8336755037307739, 0.517151415348053, -1.885271668434143, 1.0742865800857544, -0.628662109375, -0.357177734375, -0.564208984375, 0, 
302, 1009255456, 0.30436503887176514, 0.6626690626144409, -0.3189374804496765, 0.6054022312164307, 9.675572395324707, 0.23049554228782654, -0.8393407464027405, 0.5395382046699524, -1.9189801216125488, 0.9846111536026001, -0.625244140625, -0.357177734375, -0.56787109375, 0, 
303, 1009263789, 0.30437421798706055, 0.6626689434051514, -0.3189357817173004, 0.6053985953330994, 9.692506790161133, 0.22615942358970642, -0.8416104316711426, 0.4403599202632904, -1.8612711429595947, 1.0016189813613892, -0.628173828125, -0.356689453125, -0.5654296875, 0, 
304, 1009272122, 0.30438122153282166, 0.6626741290092468, -0.3189341425895691, 0.6053903698921204, 9.67695426940918, 0.24686671793460846, -0.836584746837616, 0.45895591378211975, -1.8980790376663208, 1.0178072452545166, -0.630615234375, -0.357666015625, -0.566162109375, 0, 
305, 1009280455, 0.3043806254863739, 0.6626793146133423, -0.31893789768218994, 0.605383038520813, 9.691329002380371, 0.24990008771419525, -0.8571843504905701, 0.49002590775489807, -2.004301071166992, 1.094752311706543, -0.628173828125, -0.357666015625, -0.56494140625, 0, 
306, 1009288788, 0.30437755584716797, 0.6626854538917542, -0.318939208984375, 0.6053770184516907, 9.691752433776855, 0.2409665733575821, -0.8626174330711365, 0.5421508550643921, -1.941571831703186, 1.1351203918457031, -0.6298828125, -0.357177734375, -0.561767578125, 0, 
307, 1009297121, 0.304373174905777, 0.6626912951469421, -0.318938285112381, 0.6053732633590698, 9.684467315673828, 0.2432122677564621, -0.8342230319976807, 0.5809563994407654, -1.9745370149612427, 1.094035029411316, -0.629638671875, -0.358642578125, -0.565185546875, 0, 
308, 1009305454, 0.30436936020851135, 0.662695050239563, -0.3189352750778198, 0.6053725481033325, 9.68595027923584, 0.2261013388633728, -0.8205299973487854, 0.5968629121780396, -1.8588379621505737, 1.134761929512024, -0.62841796875, -0.359619140625, -0.563232421875, 0, 
309, 1009313787, 0.3043651282787323, 0.6626973152160645, -0.3189307153224945, 0.6053746938705444, 9.672045707702637, 0.2337600290775299, -0.8447636365890503, 0.6197108626365662, -1.8750004768371582, 1.1016939878463745, -0.633056640625, -0.35595703125, -0.565185546875, 0, 
310, 1009322120, 0.304363876581192, 0.6627007126808167, -0.31893306970596313, 0.6053702235221863, 9.675921440124512, 0.23089398443698883, -0.8172925710678101, 0.5145388245582581, -1.9016904830932617, 1.1464933156967163, -0.630615234375, -0.357177734375, -0.565673828125, 0, 
311, 1009330453, 0.30436497926712036, 0.6626911163330078, -0.3189389407634735, 0.6053770184516907, 9.71135139465332, 0.24198107421398163, -0.8347399830818176, 0.45506247878074646, -1.7541779279708862, 1.223643183708191, -0.629150390625, -0.358154296875, -0.564697265625, 0, 
312, 1009338786, 0.30436134338378906, 0.6626883149147034, -0.3189445734024048, 0.6053791046142578, 9.69044303894043, 0.23372948169708252, -0.8045879602432251, 0.5088779926300049, -1.813270092010498, 1.2532787322998047, -0.631103515625, -0.356689453125, -0.565673828125, 0, 
313, 1009347119, 0.3043651580810547, 0.662684977054596, -0.3189430832862854, 0.6053815484046936, 9.687338829040527, 0.22914884984493256, -0.8181286454200745, 0.4989396631717682, -1.8027170896530151, 1.087785243988037, -0.627685546875, -0.360107421875, -0.56787109375, 0, 
314, 1009355452, 0.30435749888420105, 0.6626911759376526, -0.3189411461353302, 0.6053795218467712, 9.668410301208496, 0.2324218899011612, -0.8062384724617004, 0.6294698715209961, -1.912550926208496, 1.1599150896072388, -0.632080078125, -0.356689453125, -0.567138671875, 0, 
315, 1009363785, 0.30435898900032043, 0.662680983543396, -0.31894561648368835, 0.6053876280784607, 9.682504653930664, 0.22739189863204956, -0.8213251829147339, 0.46679380536079407, -1.7295114994049072, 1.2160358428955078, -0.630126953125, -0.359619140625, -0.566162109375, 0, 
316, 1009372118, 0.30435633659362793, 0.6626790761947632, -0.31895098090171814, 0.6053881645202637, 9.70313835144043, 0.2271299511194229, -0.8086956143379211, 0.5010656714439392, -1.8304318189620972, 1.229406476020813, -0.6298828125, -0.357177734375, -0.561767578125, 0, 
317, 1009380451, 0.3043557107448578, 0.6626761555671692, -0.31895336508750916, 0.6053903698921204, 9.69046688079834, 0.2247825562953949, -0.8319263458251953, 0.5070338249206543, -1.8449550867080688, 1.158096432685852, -0.6328125, -0.357666015625, -0.563720703125, 0, 
318, 1009388784, 0.3043496310710907, 0.662671685218811, -0.31895649433135986, 0.6053967475891113, 9.702356338500977, 0.2253880351781845, -0.8395886421203613, 0.5652806162834167, -1.7624515295028687, 1.2758451700210571, -0.630615234375, -0.357666015625, -0.565185546875, 0, 
319, 1009397117, 0.3043549358844757, 0.6626648306846619, -0.31895560026168823, 0.6054020524024963, 9.700460433959961, 0.2198362946510315, -0.8296786546707153, 0.4789861738681793, -1.7443678379058838, 1.1072521209716797, -0.631591796875, -0.358154296875, -0.565673828125, 0, 
320, 1009405450, 0.30436357855796814, 0.6626707911491394, -0.31894683837890625, 0.6053957343101501, 9.727489471435547, 0.22784315049648285, -0.8396034240722656, 0.5152815580368042, -1.8501290082931519, 0.94667649269104, -0.6328125, -0.358642578125, -0.563232421875, 0, 
321, 1009413783, 0.3043738007545471, 0.6626765727996826, -0.3189380466938019, 0.6053889393806458, 9.7019681930542, 0.23793289065361023, -0.8247031569480896, 0.500399649143219, -1.9048153162002563, 0.8886858224868774, -0.627197265625, -0.358154296875, -0.5654296875, 0, 
322, 1009422116, 0.3043820858001709, 0.6626887321472168, -0.318932443857193, 0.6053743958473206, 9.707629203796387, 0.2338649034500122, -0.8220555186271667, 0.48290520906448364, -1.991801381111145, 0.915888249874115, -0.628173828125, -0.356689453125, -0.56640625, 0, 
323, 1009430449, 0.3043799102306366, 0.6627024412155151, -0.3189264237880707, 0.6053635478019714, 9.691337585449219, 0.2348906695842743, -0.8556517958641052, 0.6060968637466431, -2.072857618331909, 0.9671807289123535, -0.630615234375, -0.355712890625, -0.563232421875, 0, 
324, 1009438782, 0.3043777048587799, 0.6627200841903687, -0.31891557574272156, 0.6053510904312134, 9.681575775146484, 0.21440158784389496, -0.8473553657531738, 0.655314564704895, -2.0432345867156982, 0.9384286999702454, -0.6279296875, -0.356689453125, -0.562255859375, 0, 
325, 1009447115, 0.3043764531612396, 0.6627399325370789, -0.31890666484832764, 0.6053346395492554, 9.694080352783203, 0.2255709022283554, -0.8192092776298523, 0.6206073760986328, -2.1592929363250732, 0.8825897574424744, -0.6298828125, -0.355224609375, -0.562255859375, 0, 
326, 1009455448, 0.3043707609176636, 0.662766695022583, -0.3188905119895935, 0.6053167581558228, 9.652321815490723, 0.24358753859996796, -0.8072211742401123, 0.7449899911880493, -2.1615724563598633, 0.8586146831512451, -0.629150390625, -0.353759765625, -0.56689453125, 0, 
327, 1009463781, 0.3043597340583801, 0.6627843379974365, -0.31888577342033386, 0.6053054332733154, 9.69003677368164, 0.25020480155944824, -0.8524121046066284, 0.6892278790473938, -2.153606414794922, 1.0321513414382935, -0.626708984375, -0.356201171875, -0.56494140625, 0, 
328, 1009472114, 0.3043517470359802, 0.6628003716468811, -0.31888070702552795, 0.6052945852279663, 9.671019554138184, 0.22498716413974762, -0.8244101405143738, 0.6615132689476013, -2.065877914428711, 1.0537697076797485, -0.628173828125, -0.354736328125, -0.56689453125, 0, 
329, 1009480447, 0.3043442964553833, 0.6628065705299377, -0.3188769519329071, 0.6052934527397156, 9.676788330078125, 0.22836385667324066, -0.8117126822471619, 0.6451201438903809, -1.9550960063934326, 1.1046650409698486, -0.631103515625, -0.359130859375, -0.564697265625, 0, 
330, 1009488780, 0.30433332920074463, 0.6628111004829407, -0.318884938955307, 0.6052898168563843, 9.674821853637695, 0.24110674858093262, -0.8269508481025696, 0.562040388584137, -1.969734787940979, 1.2799049615859985, -0.634521484375, -0.3564453125, -0.564697265625, 0, 
331, 1009497113, 0.3043242394924164, 0.6628037691116333, -0.31889283657073975, 0.6052981615066528, 9.663493156433105, 0.24114814400672913, -0.8327795267105103, 0.5487850308418274, -1.81070876121521, 1.3245376348495483, -0.631591796875, -0.356689453125, -0.564697265625, 0, 
332, 1009505446, 0.3043215274810791, 0.6627994179725647, -0.3189006447792053, 0.6053003668785095, 9.66964340209961, 0.25591325759887695, -0.8253825306892395, 0.4758100211620331, -1.8086082935333252, 1.2724639177322388, -0.63037109375, -0.357666015625, -0.562744140625, 0, 
333, 1009513779, 0.30431973934173584, 0.6627846360206604, -0.31891053915023804, 0.605312168598175, 9.676224708557129, 0.23020407557487488, -0.8099929690361023, 0.4489406645298004, -1.6950091123580933, 1.3256133794784546, -0.631591796875, -0.355712890625, -0.563720703125, 0, 
334, 1009522112, 0.30431312322616577, 0.6627742648124695, -0.31892096996307373, 0.6053214073181152, 9.672921180725098, 0.24263466894626617, -0.84429532289505, 0.4960452616214752, -1.7199573516845703, 1.3860117197036743, -0.629150390625, -0.359130859375, -0.56689453125, 0, 
335, 1009530445, 0.3042978048324585, 0.6627641916275024, -0.31893566250801086, 0.6053324341773987, 9.678149223327637, 0.2255120724439621, -0.8157169222831726, 0.5475555062294006, -1.8203141689300537, 1.4596017599105835, -0.6279296875, -0.355224609375, -0.559814453125, 0, 
336, 1009538778, 0.30428746342658997, 0.6627617478370667, -0.31894081830978394, 0.605337381362915, 9.684347152709961, 0.20584768056869507, -0.8360291123390198, 0.5885381698608398, -1.8211079835891724, 1.3152140378952026, -0.631103515625, -0.355712890625, -0.563232421875, 0, 
337, 1009547111, 0.304276704788208, 0.6627500653266907, -0.318949431180954, 0.6053510308265686, 9.67592716217041, 0.2555323541164398, -0.8565524816513062, 0.5632057785987854, -1.737221360206604, 1.3846542835235596, -0.629150390625, -0.359130859375, -0.564208984375, 0, 
338, 1009555444, 0.30426037311553955, 0.6627398729324341, -0.31896498799324036, 0.6053621768951416, 9.704174995422363, 0.22983787953853607, -0.8364779353141785, 0.552140474319458, -1.7702126502990723, 1.520486831665039, -0.627685546875, -0.355712890625, -0.56591796875, 0, 
339, 1009563777, 0.3042460083961487, 0.6627312898635864, -0.3189706802368164, 0.6053758263587952, 9.69449520111084, 0.21239247918128967, -0.8175907135009766, 0.6311347484588623, -1.7671899795532227, 1.3734865188598633, -0.630615234375, -0.357177734375, -0.564208984375, 0, 
340, 1009572110, 0.3042326271533966, 0.6627294421195984, -0.3189780116081238, 0.6053807139396667, 9.682746887207031, 0.24424007534980774, -0.8634898066520691, 0.6020625829696655, -1.8501033782958984, 1.3582204580307007, -0.627685546875, -0.353271484375, -0.5634765625, 0, 
341, 1009580443, 0.30422070622444153, 0.6627163887023926, -0.3189915418624878, 0.6053938269615173, 9.683075904846191, 0.23789790272712708, -0.8384652733802795, 0.5245539546012878, -1.7560737133026123, 1.4441561698913574, -0.62841796875, -0.360107421875, -0.562255859375, 0, 
342, 1009588776, 0.3042086064815521, 0.6627122759819031, -0.3190023899078369, 0.6053987145423889, 9.68718433380127, 0.20538827776908875, -0.816269040107727, 0.5490410923957825, -1.8401906490325928, 1.3870364427566528, -0.629638671875, -0.357666015625, -0.564697265625, 0, 
343, 1009597109, 0.3041958808898926, 0.6627046465873718, -0.31901028752326965, 0.6054093241691589, 9.693066596984863, 0.2327413111925125, -0.8201643228530884, 0.589742124080658, -1.8048429489135742, 1.3652899265289307, -0.6279296875, -0.357666015625, -0.562744140625, 0, 
344, 1009605442, 0.3041841983795166, 0.6627000570297241, -0.3190147280693054, 0.6054179072380066, 9.710687637329102, 0.2239629328250885, -0.8309151530265808, 0.6139219403266907, -1.7719289064407349, 1.343697190284729, -0.62939453125, -0.355712890625, -0.562255859375, 0, 
345, 1009613775, 0.3041672706604004, 0.6626957058906555, -0.31901973485946655, 0.6054284572601318, 9.701573371887207, 0.22045831382274628, -0.8515648245811462, 0.6665592193603516, -1.8389099836349487, 1.3590145111083984, -0.6298828125, -0.357177734375, -0.562744140625, 0, 
346, 1009622108, 0.3041653037071228, 0.6626899242401123, -0.3190203309059143, 0.6054356098175049, 9.685920715332031, 0.20465894043445587, -0.8240994215011597, 0.5435084104537964, -1.717857003211975, 1.2278183698654175, -0.630615234375, -0.354248046875, -0.56591796875, 0, 
347, 1009630441, 0.30415239930152893, 0.6626964211463928, -0.3190183639526367, 0.6054359674453735, 9.681924819946289, 0.20426809787750244, -0.7866429686546326, 0.6872811317443848, -1.9749983549118042, 1.1697508096694946, -0.630126953125, -0.355712890625, -0.563232421875, 0, 
348, 1009638774, 0.3041438162326813, 0.6627106070518494, -0.3190104365348816, 0.6054288744926453, 9.685273170471191, 0.21785259246826172, -0.8304247856140137, 0.6972706913948059, -2.006606340408325, 1.0589181184768677, -0.632568359375, -0.355712890625, -0.565673828125, 0, 
349, 1009647107, 0.30413907766342163, 0.6627184152603149, -0.3189990222454071, 0.6054286360740662, 9.69959545135498, 0.2262095808982849, -0.8493325710296631, 0.6958619356155396, -1.9166234731674194, 1.008765459060669, -0.631591796875, -0.358642578125, -0.564697265625, 0, 
350, 1009655440, 0.30412983894348145, 0.6627267003059387, -0.3189918100833893, 0.6054279804229736, 9.692484855651855, 0.22173169255256653, -0.8089605569839478, 0.701138436794281, -1.9043543338775635, 1.1220827102661133, -0.629150390625, -0.355224609375, -0.56689453125, 0, 
351, 1009663773, 0.30412623286247253, 0.6627340316772461, -0.3189793825149536, 0.6054282784461975, 9.698607444763184, 0.20776063203811646, -0.7910735607147217, 0.6935054063796997, -1.8974641561508179, 0.9933455586433411, -0.631103515625, -0.357177734375, -0.563720703125, 0, 
352, 1009672106, 0.30411863327026367, 0.6627447009086609, -0.31898000836372375, 0.6054199934005737, 9.682538032531738, 0.22279730439186096, -0.8319669961929321, 0.5967348217964172, -2.0221798419952393, 1.1382197141647339, -0.628662109375, -0.355712890625, -0.56591796875, 0, 
353, 1009680439, 0.3041175603866577, 0.6627473831176758, -0.3189786374568939, 0.6054183840751648, 9.685757637023926, 0.23649798333644867, -0.8337129354476929, 0.5509877800941467, -1.9116030931472778, 1.086811900138855, -0.629638671875, -0.357177734375, -0.56787109375, 0, 
354, 1009688772, 0.304109662771225, 0.6627603769302368, -0.3189673125743866, 0.6054139733314514, 9.668375968933105, 0.23631510138511658, -0.8126222491264343, 0.7262659668922424, -1.9564793109893799, 1.0386059284210205, -0.62890625, -0.355712890625, -0.561767578125, 0, 
355, 1009697105, 0.3041099011898041, 0.662761926651001, -0.3189683258533478, 0.60541170835495, 9.679929733276367, 0.22722698748111725, -0.8230438232421875, 0.5106453895568848, -1.9119616746902466, 1.098671317100525, -0.628662109375, -0.359130859375, -0.564208984375, 0, 
356, 1009705438, 0.3041054308414459, 0.6627727150917053, -0.31896594166755676, 0.6054033041000366, 9.680595397949219, 0.23025168478488922, -0.7917571067810059, 0.5951980352401733, -1.9974619150161743, 1.0833028554916382, -0.62841796875, -0.357666015625, -0.561279296875, 0, 
357, 1009713771, 0.30409228801727295, 0.6627835631370544, -0.3189638555049896, 0.6053990721702576, 9.695966720581055, 0.2233986109495163, -0.8217712640762329, 0.6886387467384338, -2.0530707836151123, 1.1339935064315796, -0.62890625, -0.357666015625, -0.560791015625, 0, 
358, 1009722104, 0.304083913564682, 0.6627922654151917, -0.3189615309238434, 0.6053951382637024, 9.679045677185059, 0.2381410151720047, -0.8124919533729553, 0.6417133808135986, -1.9560948610305786, 1.1452891826629639, -0.630615234375, -0.357666015625, -0.563720703125, 0, 
359, 1009730437, 0.3040724992752075, 0.6627938747406006, -0.31896689534187317, 0.6053962111473083, 9.677173614501953, 0.22994279861450195, -0.816764235496521, 0.5968372821807861, -1.9507673978805542, 1.249308705329895, -0.629638671875, -0.358642578125, -0.564208984375, 0, 
360, 1009738770, 0.30406320095062256, 0.6627991795539856, -0.3189682960510254, 0.6053944230079651, 9.692495346069336, 0.24643661081790924, -0.8176066279411316, 0.6116679310798645, -1.9293792247772217, 1.2115788459777832, -0.6328125, -0.357177734375, -0.562744140625, 0, 
361, 1009747103, 0.3040481507778168, 0.6628010272979736, -0.31896671652793884, 0.6054007411003113, 9.676910400390625, 0.23041458427906036, -0.822123110294342, 0.7100009322166443, -1.893212080001831, 1.236296534538269, -0.63037109375, -0.358154296875, -0.562744140625, 0, 
362, 1009755436, 0.30403977632522583, 0.6628016829490662, -0.3189677894115448, 0.6054036617279053, 9.684429168701172, 0.2363051474094391, -0.8439946174621582, 0.6098237037658691, -1.8408565521240234, 1.240343689918518, -0.628662109375, -0.357666015625, -0.564208984375, 0, 
363, 1009763769, 0.3040284216403961, 0.6628020405769348, -0.318974107503891, 0.6054056286811829, 9.691980361938477, 0.2419349104166031, -0.829608678817749, 0.5854390263557434, -1.9365001916885376, 1.267930269241333, -0.629638671875, -0.356201171875, -0.56591796875, 0, 
364, 1009772102, 0.3040124475955963, 0.6628114581108093, -0.3189745545387268, 0.6054030656814575, 9.690123558044434, 0.2362421751022339, -0.8618924021720886, 0.6948630213737488, -1.9950288534164429, 1.2357587814331055, -0.629150390625, -0.356201171875, -0.5654296875, 0, 
365, 1009780435, 0.30399900674819946, 0.6628090739250183, -0.31897780299186707, 0.6054106950759888, 9.687521934509277, 0.22917616367340088, -0.8558790683746338, 0.645017683506012, -1.858735203742981, 1.291495442390442, -0.629150390625, -0.355712890625, -0.56494140625, 0, 
366, 1009788768, 0.30399128794670105, 0.66280597448349, -0.31898096203804016, 0.6054161787033081, 9.677261352539062, 0.21625706553459167, -0.8645922541618347, 0.5800343155860901, -1.7931373119354248, 1.2805068492889404, -0.62841796875, -0.358642578125, -0.562744140625, 0, 
367, 1009797101, 0.30397793650627136, 0.6628057360649109, -0.3189821243286133, 0.6054224967956543, 9.689016342163086, 0.23243819177150726, -0.8013080358505249, 0.6631269454956055, -1.8803024291992188, 1.2567623853683472, -0.631103515625, -0.356201171875, -0.563720703125, 0, 
368, 1009805434, 0.3039669394493103, 0.6628080606460571, -0.31899064779281616, 0.6054211258888245, 9.675089836120605, 0.22637207806110382, -0.8622780442237854, 0.560516357421875, -1.937294363975525, 1.3051222562789917, -0.62939453125, -0.359130859375, -0.563232421875, 0, 
369, 1009813767, 0.3039615750312805, 0.6628025770187378, -0.3190028667449951, 0.6054234504699707, 9.678102493286133, 0.2521718144416809, -0.8390865325927734, 0.4594937860965729, -1.883863091468811, 1.2975916862487793, -0.630126953125, -0.354736328125, -0.563720703125, 0, 
370, 1009822100, 0.30395400524139404, 0.6628057956695557, -0.31899967789649963, 0.6054253578186035, 9.700057029724121, 0.2161446064710617, -0.8211981654167175, 0.6436344385147095, -1.851409673690796, 1.178434133529663, -0.628173828125, -0.358154296875, -0.56494140625, 0, 
371, 1009830433, 0.3039458096027374, 0.6628050208091736, -0.3189961910247803, 0.6054322719573975, 9.68979549407959, 0.25017249584198, -0.8296923041343689, 0.6550584435462952, -1.8277932405471802, 1.1759495735168457, -0.6318359375, -0.355224609375, -0.561767578125, 0, 
372, 1009838766, 0.303932249546051, 0.6628081202507019, -0.31899788975715637, 0.6054345965385437, 9.69419002532959, 0.2277674525976181, -0.8312080502510071, 0.6583114862442017, -1.8938270807266235, 1.2771000862121582, -0.630126953125, -0.356201171875, -0.565185546875, 0, 
373, 1009847099, 0.303915411233902, 0.6628125309944153, -0.31899887323379517, 0.6054376363754272, 9.70508098602295, 0.2421506643295288, -0.813995897769928, 0.7022655606269836, -1.9625756740570068, 1.2506407499313354, -0.631591796875, -0.355712890625, -0.564697265625, 0, 
374, 1009855432, 0.3038997948169708, 0.6628174781799316, -0.3190036416053772, 0.6054376363754272, 9.678873062133789, 0.22213193774223328, -0.8119333982467651, 0.6506272554397583, -1.951433539390564, 1.3022021055221558, -0.625732421875, -0.352783203125, -0.5673828125, 0, 
375, 1009863765, 0.3038845658302307, 0.6628144383430481, -0.31901055574417114, 0.6054449081420898, 9.694201469421387, 0.2160278558731079, -0.829927384853363, 0.6260887384414673, -1.8803536891937256, 1.3429287672042847, -0.629150390625, -0.356689453125, -0.5654296875, 0, 
376, 1009872098, 0.30386805534362793, 0.6628208160400391, -0.3190126121044159, 0.6054450273513794, 9.699922561645508, 0.23340919613838196, -0.8263298869132996, 0.6863846778869629, -1.9560438394546509, 1.2802250385284424, -0.632080078125, -0.354248046875, -0.565185546875, 0, 
377, 1009880431, 0.3038535416126251, 0.6628222465515137, -0.31901445984840393, 0.6054497361183167, 9.679519653320312, 0.2313947230577469, -0.8300649523735046, 0.6680704951286316, -1.9167261123657227, 1.2592215538024902, -0.62890625, -0.355712890625, -0.562255859375, 0, 
378, 1009888764, 0.3038427531719208, 0.662824809551239, -0.319015771150589, 0.605451762676239, 9.681774139404297, 0.23304812610149384, -0.8176652193069458, 0.6317238211631775, -1.877382516860962, 1.2506150007247925, -0.627685546875, -0.356689453125, -0.56396484375, 0, 
379, 1009897097, 0.3038276135921478, 0.6628259420394897, -0.319019615650177, 0.6054561138153076, 9.703481674194336, 0.21694958209991455, -0.8328741788864136, 0.6545974016189575, -1.9283547401428223, 1.2814801931381226, -0.629638671875, -0.354736328125, -0.56689453125, 0, 
380, 1009905430, 0.30381250381469727, 0.6628247499465942, -0.3190145790576935, 0.6054676175117493, 9.701172828674316, 0.22024494409561157, -0.8444582223892212, 0.7521619200706482, -1.753973126411438, 1.2835805416107178, -0.632080078125, -0.354736328125, -0.564697265625, 0, 
381, 1009913763, 0.30380916595458984, 0.6628234386444092, -0.3190135061740875, 0.6054713726043701, 9.692083358764648, 0.2193419486284256, -0.8410052061080933, 0.5745529532432556, -1.8416252136230469, 1.1480813026428223, -0.632568359375, -0.353271484375, -0.564697265625, 0, 
382, 1009922096, 0.3038082420825958, 0.6628188490867615, -0.3190125823020935, 0.6054772734642029, 9.689627647399902, 0.2196761965751648, -0.8565869331359863, 0.5494765639305115, -1.7296395301818848, 1.1956212520599365, -0.629638671875, -0.355712890625, -0.564208984375, 0, 
383, 1009930429, 0.3038042485713959, 0.662818193435669, -0.3190138339996338, 0.6054793000221252, 9.695840835571289, 0.22433488070964813, -0.8314419388771057, 0.5562899112701416, -1.875333309173584, 1.1649354696273804, -0.630859375, -0.355712890625, -0.560791015625, 0, 
384, 1009938762, 0.30380532145500183, 0.6628320217132568, -0.3190076947212219, 0.605466902256012, 9.695831298828125, 0.20729492604732513, -0.8369815349578857, 0.5718377828598022, -2.019054889678955, 0.9744424223899841, -0.630126953125, -0.353271484375, -0.56591796875, 0, 
385, 1009947095, 0.3038141131401062, 0.6628312468528748, -0.31901153922080994, 0.6054613590240479, 9.701706886291504, 0.20981353521347046, -0.8464986085891724, 0.38411104679107666, -1.898155689239502, 1.050157904624939, -0.630615234375, -0.355224609375, -0.56640625, 0, 
386, 1009955428, 0.3038208484649658, 0.6628352403640747, -0.3190140128135681, 0.6054520606994629, 9.702519416809082, 0.19806726276874542, -0.8642050623893738, 0.4192538261413574, -1.9216440916061401, 1.0616332292556763, -0.629150390625, -0.357177734375, -0.563720703125, 0, 
387, 1009963761, 0.3038325309753418, 0.6628379821777344, -0.31901320815086365, 0.6054435968399048, 9.704466819763184, 0.21340031921863556, -0.8571271300315857, 0.3999662697315216, -1.9210036993026733, 0.9555391073226929, -0.630615234375, -0.357177734375, -0.565185546875, 0, 
388, 1009972094, 0.3038451373577118, 0.6628352999687195, -0.31901371479034424, 0.6054402589797974, 9.6777982711792, 0.22506964206695557, -0.8592557311058044, 0.37970539927482605, -1.7782297134399414, 1.0490309000015259, -0.629638671875, -0.354736328125, -0.56494140625, 0, 
389, 1009980427, 0.30385351181030273, 0.6628332138061523, -0.31901538372039795, 0.6054373979568481, 9.698647499084473, 0.2167099565267563, -0.8213017582893372, 0.41392606496810913, -1.8544065952301025, 1.0500811338424683, -0.630126953125, -0.357177734375, -0.564697265625, 0, 
390, 1009988760, 0.3038639426231384, 0.662824809551239, -0.31901901960372925, 0.605439305305481, 9.690019607543945, 0.23389175534248352, -0.8413434028625488, 0.3731737732887268, -1.7054084539413452, 1.1428302526474, -0.630859375, -0.357666015625, -0.563232421875, 0, 
391, 1009997093, 0.30387037992477417, 0.6628114581108093, -0.3190275728702545, 0.6054462790489197, 9.682193756103516, 0.22295509278774261, -0.8265220522880554, 0.36979272961616516, -1.70809805393219, 1.220876932144165, -0.629638671875, -0.356201171875, -0.5654296875, 0, 
392, 1010005426, 0.3038754165172577, 0.6628026962280273, -0.31902816891670227, 0.605452835559845, 9.666157722473145, 0.21310240030288696, -0.8140308260917664, 0.4700467884540558, -1.6713672876358032, 1.181328535079956, -0.627197265625, -0.353271484375, -0.56396484375, 0, 
393, 1010013759, 0.303884357213974, 0.6627932786941528, -0.3190341293811798, 0.6054554581642151, 9.671456336975098, 0.22063404321670532, -0.8285655379295349, 0.3655151426792145, -1.7593778371810913, 1.1403968334197998, -0.629638671875, -0.355224609375, -0.564208984375, 0, 
394, 1010022092, 0.3038827180862427, 0.6627865433692932, -0.31903761625289917, 0.6054618954658508, 9.689419746398926, 0.22867408394813538, -0.8488531708717346, 0.511721134185791, -1.729870080947876, 1.2523053884506226, -0.631591796875, -0.355224609375, -0.565185546875, 0, 
395, 1010030425, 0.3038785755634308, 0.6627756953239441, -0.3190450072288513, 0.6054719686508179, 9.705305099487305, 0.23147307336330414, -0.8342147469520569, 0.499144583940506, -1.7433431148529053, 1.300408959388733, -0.630126953125, -0.354736328125, -0.56591796875, 0, 
396, 1010038758, 0.3038860857486725, 0.6627635955810547, -0.31904909014701843, 0.60547935962677, 9.669109344482422, 0.22672514617443085, -0.8365716338157654, 0.4058063328266144, -1.6397079229354858, 1.2109129428863525, -0.63134765625, -0.358154296875, -0.563232421875, 0, 
397, 1010047091, 0.30388838052749634, 0.6627532839775085, -0.31905925273895264, 0.605484127998352, 9.675996780395508, 0.21797014772891998, -0.8565043807029724, 0.39749446511268616, -1.7785499095916748, 1.247169852256775, -0.63037109375, -0.356689453125, -0.562744140625, 0, 
398, 1010055424, 0.30389297008514404, 0.6627427339553833, -0.3190663456916809, 0.6054894924163818, 9.664200782775879, 0.21083688735961914, -0.8055692315101624, 0.4072919189929962, -1.698262095451355, 1.2472082376480103, -0.631591796875, -0.358154296875, -0.564208984375, 0, 
399, 1010063757, 0.3038862943649292, 0.6627309322357178, -0.3190707564353943, 0.6055034399032593, 9.679466247558594, 0.21390876173973083, -0.8530309200286865, 0.5607724189758301, -1.6979291439056396, 1.3141638040542603, -0.62939453125, -0.357177734375, -0.562744140625, 0, 
400, 1010072090, 0.3038847744464874, 0.6627295613288879, -0.31907010078430176, 0.6055061221122742, 9.698005676269531, 0.20759829878807068, -0.8381108045578003, 0.5501168966293335, -1.7920870780944824, 1.175693392753601, -0.627685546875, -0.354736328125, -0.562744140625, 0, 
401, 1010080423, 0.3038831055164337, 0.6627240777015686, -0.3190736174583435, 0.6055111289024353, 9.692371368408203, 0.21909715235233307, -0.8375235199928284, 0.5082376599311829, -1.806046724319458, 1.1989253759384155, -0.62939453125, -0.357177734375, -0.562255859375, 0, 
402, 1010088756, 0.30387941002845764, 0.662727952003479, -0.3190769851207733, 0.6055068373680115, 9.709120750427246, 0.21117644011974335, -0.8441029787063599, 0.5301121473312378, -1.9262032508850098, 1.1775119304656982, -0.630126953125, -0.354248046875, -0.563720703125, 0, 
403, 1010097089, 0.30388420820236206, 0.6627184748649597, -0.31907933950424194, 0.6055135726928711, 9.684896469116211, 0.21391355991363525, -0.8054015040397644, 0.4525778889656067, -1.7241325378417969, 1.1595820188522339, -0.629638671875, -0.358154296875, -0.565185546875, 0, 
404, 1010105422, 0.30388179421424866, 0.6627119779586792, -0.3190818727016449, 0.6055205464363098, 9.695879936218262, 0.22007021307945251, -0.8387393951416016, 0.5322638154029846, -1.7281029224395752, 1.2543803453445435, -0.631103515625, -0.355224609375, -0.564697265625, 0, 
405, 1010113755, 0.30388081073760986, 0.6627058386802673, -0.31908848881721497, 0.6055243015289307, 9.680784225463867, 0.21523013710975647, -0.8284228444099426, 0.4694576859474182, -1.8227729797363281, 1.2178287506103516, -0.632080078125, -0.358642578125, -0.565673828125, 0, 
406, 1010122088, 0.30388695001602173, 0.6627023816108704, -0.31909462809562683, 0.6055218577384949, 9.682175636291504, 0.23290316760540009, -0.8248283267021179, 0.3927430808544159, -1.8166000843048096, 1.1626558303833008, -0.628662109375, -0.357177734375, -0.56494140625, 0, 
407, 1010130421, 0.30389782786369324, 0.6626978516578674, -0.31909629702568054, 0.6055204272270203, 9.706658363342285, 0.23203226923942566, -0.830764889717102, 0.3855454921722412, -1.8105294704437256, 1.0474941730499268, -0.630615234375, -0.354248046875, -0.564697265625, 0, 
408, 1010138754, 0.30391058325767517, 0.6626883745193481, -0.3191017508506775, 0.6055214405059814, 9.702680587768555, 0.22169801592826843, -0.8117746710777283, 0.3286049962043762, -1.7032824754714966, 1.1395258903503418, -0.630126953125, -0.353759765625, -0.564697265625, 0, 
409, 1010147087, 0.30391889810562134, 0.6626853942871094, -0.3191002905368805, 0.6055213212966919, 9.682533264160156, 0.204392209649086, -0.807732880115509, 0.4483003318309784, -1.8091717958450317, 1.0373765230178833, -0.629638671875, -0.354736328125, -0.568359375, 0, 
410, 1010155420, 0.30391666293144226, 0.6626953482627869, -0.3190995752811432, 0.6055119037628174, 9.69006633758545, 0.2029576450586319, -0.8480616807937622, 0.5514488220214844, -2.000843048095703, 1.0824575424194336, -0.633056640625, -0.35595703125, -0.566650390625, 0, 
411, 1010163753, 0.3039093315601349, 0.6626971960067749, -0.31910082697868347, 0.6055129170417786, 9.686415672302246, 0.21694736182689667, -0.8202584385871887, 0.5947625041007996, -1.917494297027588, 1.1769227981567383, -0.629150390625, -0.355712890625, -0.563720703125, 0, 
412, 1010172086, 0.30390167236328125, 0.6627092361450195, -0.3190980553627014, 0.6055049896240234, 9.69411849975586, 0.19415763020515442, -0.8397434949874878, 0.6327484846115112, -2.0213091373443604, 1.104562759399414, -0.6298828125, -0.357177734375, -0.561767578125, 0, 
413, 1010180419, 0.30389443039894104, 0.662715494632721, -0.31910207867622375, 0.6054996252059937, 9.703217506408691, 0.21646425127983093, -0.8336636424064636, 0.5605675578117371, -2.025765895843506, 1.1558680534362793, -0.629150390625, -0.355224609375, -0.56591796875, 0, 
414, 1010188752, 0.30389469861984253, 0.6627298593521118, -0.3190971612930298, 0.6054864525794983, 9.70478343963623, 0.2095262110233307, -0.8538643717765808, 0.5668942332267761, -2.0428504943847656, 0.9847392439842224, -0.62939453125, -0.358154296875, -0.563232421875, 0, 
415, 1010197085, 0.3038981854915619, 0.6627354621887207, -0.31908848881721497, 0.6054831147193909, 9.70071029663086, 0.19682155549526215, -0.8333582878112793, 0.5741173624992371, -1.90130615234375, 0.9621475338935852, -0.6328125, -0.356689453125, -0.562255859375, 0, 
416, 1010205418, 0.30390119552612305, 0.6627504825592041, -0.31908562779426575, 0.6054666042327881, 9.708070755004883, 0.20562833547592163, -0.857216477394104, 0.5133605003356934, -2.0757648944854736, 0.9663739204406738, -0.63232421875, -0.358642578125, -0.563720703125, 0, 
417, 1010213751, 0.3039066791534424, 0.6627590656280518, -0.31908756494522095, 0.6054534912109375, 9.681380271911621, 0.2053164392709732, -0.8336829543113708, 0.43695321679115295, -2.051354169845581, 0.9877616763114929, -0.628662109375, -0.356201171875, -0.5654296875, 0, 
418, 1010222084, 0.3039112687110901, 0.6627652049064636, -0.3190833628177643, 0.605446457862854, 9.678958892822266, 0.22267037630081177, -0.8346908688545227, 0.5162805318832397, -1.9033297300338745, 1.0189342498779297, -0.6318359375, -0.357177734375, -0.563232421875, 0, 
419, 1010230417, 0.30392253398895264, 0.6627655625343323, -0.31908082962036133, 0.6054418087005615, 9.676464080810547, 0.23316271603107452, -0.8237011432647705, 0.4246584177017212, -1.8608615398406982, 0.9714711308479309, -0.6318359375, -0.357177734375, -0.563232421875, 0, 
420, 1010238750, 0.30392906069755554, 0.6627684831619263, -0.31907719373703003, 0.6054374575614929, 9.70493221282959, 0.22967132925987244, -0.8538650870323181, 0.48928317427635193, -1.8455698490142822, 1.0319976806640625, -0.630126953125, -0.355224609375, -0.562744140625, 0, 
421, 1010247083, 0.3039328157901764, 0.6627655029296875, -0.31907889246940613, 0.6054379343986511, 9.676324844360352, 0.2323966771364212, -0.8207567930221558, 0.46638399362564087, -1.8381925821304321, 1.1080716848373413, -0.6337890625, -0.354248046875, -0.559814453125, 0, 
422, 1010255416, 0.3039393424987793, 0.6627693176269531, -0.3190816342830658, 0.60542893409729, 9.680328369140625, 0.2162291258573532, -0.8057871460914612, 0.4193049967288971, -1.9216951131820679, 1.0691893100738525, -0.630615234375, -0.355712890625, -0.56689453125, 0, 
423, 1010263749, 0.30394381284713745, 0.6627696752548218, -0.31908196210861206, 0.6054261326789856, 9.673418998718262, 0.2127070277929306, -0.8459335565567017, 0.47148117423057556, -1.885297179222107, 1.0605828762054443, -0.630126953125, -0.357177734375, -0.565185546875, 0, 
424, 1010272082, 0.30394020676612854, 0.6627680063247681, -0.3190833330154419, 0.6054289937019348, 9.684170722961426, 0.2115413099527359, -0.8232359886169434, 0.5545482039451599, -1.8073276281356812, 1.2128851413726807, -0.632568359375, -0.356201171875, -0.565185546875, 0, 
425, 1010280415, 0.30394357442855835, 0.6627669930458069, -0.3190886080265045, 0.6054256558418274, 9.676732063293457, 0.23310071229934692, -0.8254207372665405, 0.43152305483818054, -1.9049689769744873, 1.118957757949829, -0.630126953125, -0.355712890625, -0.565185546875, 0, 
426, 1010288748, 0.303944855928421, 0.6627601385116577, -0.31909456849098206, 0.6054293513298035, 9.691365242004395, 0.22652043402194977, -0.8251038193702698, 0.4525778889656067, -1.7534607648849487, 1.240497350692749, -0.627197265625, -0.357666015625, -0.56396484375, 0, 
427, 1010297081, 0.30394455790519714, 0.6627587676048279, -0.31910255551338196, 0.6054267883300781, 9.696244239807129, 0.23017798364162445, -0.8499385714530945, 0.4432030916213989, -1.9226939678192139, 1.1788183450698853, -0.630126953125, -0.356201171875, -0.563720703125, 0, 
428, 1010305414, 0.3039532005786896, 0.6627602577209473, -0.3191010057926178, 0.6054216623306274, 9.705472946166992, 0.2043181210756302, -0.8543040156364441, 0.4446374773979187, -1.841163992881775, 1.0379656553268433, -0.630615234375, -0.358642578125, -0.565185546875, 0, 
429, 1010313747, 0.30396315455436707, 0.6627536416053772, -0.31910258531570435, 0.6054229736328125, 9.715266227722168, 0.18991665542125702, -0.8541240096092224, 0.3997613787651062, -1.771134614944458, 1.075157642364502, -0.632080078125, -0.3583984375, -0.567138671875, 0, 
430, 1010322080, 0.3039696216583252, 0.6627568602561951, -0.31910431385040283, 0.605415403842926, 9.702969551086426, 0.22506912052631378, -0.8268978595733643, 0.4328037202358246, -1.9004098176956177, 1.06703782081604, -0.630126953125, -0.354736328125, -0.564697265625, 0, 
431, 1010330413, 0.30397120118141174, 0.662752628326416, -0.3191121220588684, 0.6054151654243469, 9.691283226013184, 0.21651975810527802, -0.8285242319107056, 0.42575985193252563, -1.8685967922210693, 1.1844533681869507, -0.630126953125, -0.357666015625, -0.564697265625, 0, 
432, 1010338746, 0.303973913192749, 0.6627590656280518, -0.31910377740859985, 0.6054109930992126, 9.675323486328125, 0.21133291721343994, -0.8260271549224854, 0.5797781348228455, -1.8707995414733887, 1.0061014890670776, -0.630615234375, -0.355712890625, -0.565185546875, 0, 
433, 1010347079, 0.3039751946926117, 0.6627614498138428, -0.3191039264202118, 0.6054076552391052, 9.666189193725586, 0.2204349786043167, -0.8117882013320923, 0.5078534483909607, -1.9219000339508057, 1.074824571609497, -0.630859375, -0.360595703125, -0.564208984375, 0, 
434, 1010355412, 0.3039713203907013, 0.6627677083015442, -0.3191036880016327, 0.6054028868675232, 9.701894760131836, 0.2353384643793106, -0.8143313527107239, 0.5688154101371765, -1.936397910118103, 1.1346850395202637, -0.629638671875, -0.354736328125, -0.563232421875, 0, 
435, 1010363745, 0.3039736747741699, 0.6627725958824158, -0.319103479385376, 0.6053965091705322, 9.680787086486816, 0.23304736614227295, -0.8498819470405579, 0.497044175863266, -1.9637022018432617, 1.0395537614822388, -0.629638671875, -0.355712890625, -0.563232421875, 0, 
436, 1010372078, 0.30397894978523254, 0.6627792716026306, -0.31910085678100586, 0.6053879857063293, 9.695558547973633, 0.22732414305210114, -0.8437409400939941, 0.491204172372818, -1.9268178939819336, 1.0177814960479736, -0.629150390625, -0.356689453125, -0.563232421875, 0, 
437, 1010380411, 0.3039776384830475, 0.6627832055091858, -0.31910181045532227, 0.6053838133811951, 9.685108184814453, 0.22079899907112122, -0.8256102204322815, 0.5262700319290161, -1.955582618713379, 1.0942144393920898, -0.630615234375, -0.359130859375, -0.56787109375, 0, 
438, 1010388744, 0.3039756715297699, 0.6627902388572693, -0.3190983831882477, 0.6053788065910339, 9.691513061523438, 0.22682496905326843, -0.849366307258606, 0.5808283686637878, -1.9246153831481934, 1.0841481685638428, -0.630615234375, -0.357177734375, -0.565185546875, 0, 
