PacketCounter,SampleTimeFine,Quat_W,Quat_X,Quat_Y,Quat_Z,Acc_X,Acc_Y,Acc_Z,Gyr_X,Gyr_Y,Gyr_Z,Mag_X,Mag_Y,Mag_Z,Status,
0, 1039412583, 0.2722170948982239, 0.6815496683120728, -0.2760142385959625, 0.6206463575363159, 0, 0, 0, 0, 0, 0, -0.6123046875, -0.365234375, -0.546630859375, 0, 
1, 1039420916, 0.2722174823284149, 0.6815279126167297, -0.2760041058063507, 0.6206746697425842, 9.636093139648438, 0.347061425447464, -0.7052097320556641, 0.6320056319236755, -1.3803894519805908, 1.2176494598388672, -0.609375, -0.36376953125, -0.550537109375, 0, 
2, 1039429249, 0.27221962809562683, 0.6815022230148315, -0.2760127782821655, 0.620698094367981, 9.68518352508545, 0.34488946199417114, -0.7854101061820984, 0.42176398634910583, -1.460971713066101, 1.3591424226760864, -0.60986328125, -0.365234375, -0.551025390625, 0, 
3, 1039437582, 0.27222082018852234, 0.6814755797386169, -0.27602913975715637, 0.6207194328308105, 9.682966232299805, 0.3259028494358063, -0.7544184327125549, 0.3577796518802643, -1.4975746870040894, 1.4508414268493652, -0.60888671875, -0.3662109375, -0.546630859375, 0, 
4, 1039445915, 0.2722181975841522, 0.6814569234848022, -0.2760393023490906, 0.6207366585731506, 9.697982788085938, 0.36410194635391235, -0.8059680461883545, 0.4574190080165863, -1.6034126281738281, 1.3643677234649658, -0.60986328125, -0.36474609375, -0.549560546875, 0, 
5, 1039454248, 0.2722196877002716, 0.6814309358596802, -0.2760421335697174, 0.62076336145401, 9.693360328674316, 0.3330611288547516, -0.8213470578193665, 0.4906407296657562, -1.4033912420272827, 1.3388818502426147, -0.607421875, -0.3662109375, -0.549560546875, 0, 
6, 1039462581, 0.2722199261188507, 0.6814042925834656, -0.27604159712791443, 0.620792806148529, 9.692906379699707, 0.32132112979888916, -0.789320707321167, 0.5386674404144287, -1.3689913749694824, 1.3164691925048828, -0.61181640625, -0.3681640625, -0.547607421875, 0, 
7, 1039470914, 0.2722203731536865, 0.6813652515411377, -0.27603474259376526, 0.6208382248878479, 9.720768928527832, 0.3028271496295929, -0.8447761535644531, 0.6039580702781677, -1.0858771800994873, 1.3791474103927612, -0.6083984375, -0.36572265625, -0.548583984375, 0, 
8, 1039479247, 0.2722114026546478, 0.6813361048698425, -0.27603259682655334, 0.6208751797676086, 9.686959266662598, 0.3232865333557129, -0.8083784580230713, 0.6574406623840332, -1.3056985139846802, 1.4154682159423828, -0.60986328125, -0.365234375, -0.551513671875, 0, 
9, 1039487580, 0.27220144867897034, 0.6812945604324341, -0.27603092789649963, 0.6209259033203125, 9.678729057312012, 0.31666651368141174, -0.820671021938324, 0.6678912043571472, -1.0757850408554077, 1.544999361038208, -0.60888671875, -0.36572265625, -0.550048828125, 0, 
10, 1039495913, 0.27218422293663025, 0.6812606453895569, -0.2760254442691803, 0.6209731698036194, 9.692381858825684, 0.3288155496120453, -0.7930938005447388, 0.7844616174697876, -1.1865410804748535, 1.5138781070709229, -0.611328125, -0.36376953125, -0.550537109375, 0, 
11, 1039504246, 0.27217260003089905, 0.6812320947647095, -0.27601557970046997, 0.621013879776001, 9.706249237060547, 0.3020915389060974, -0.7493171691894531, 0.7645336985588074, -1.252753734588623, 1.3967698812484741, -0.60986328125, -0.36474609375, -0.549072265625, 0, 
12, 1039512579, 0.2721506953239441, 0.6812110543251038, -0.2759985029697418, 0.6210541129112244, 9.715707778930664, 0.2970450222492218, -0.8245702385902405, 0.949570894241333, -1.3376905918121338, 1.36882483959198, -0.6103515625, -0.36279296875, -0.550048828125, 0, 
13, 1039520912, 0.27211928367614746, 0.681191623210907, -0.27596569061279297, 0.6211038827896118, 9.735493659973145, 0.31834760308265686, -0.8031618595123291, 1.214089035987854, -1.2369496822357178, 1.348281979560852, -0.611328125, -0.3662109375, -0.552490234375, 0, 
14, 1039529245, 0.2720935344696045, 0.6811683177947998, -0.27592626214027405, 0.621158242225647, 9.73127269744873, 0.306939035654068, -0.8137888312339783, 1.2208768129348755, -1.1156407594680786, 1.254072904586792, -0.60888671875, -0.3671875, -0.55224609375, 0, 
15, 1039537578, 0.27205806970596313, 0.6811473369598389, -0.2758675217628479, 0.6212228536605835, 9.734465599060059, 0.3199406564235687, -0.8476112484931946, 1.5255327224731445, -1.0024771690368652, 1.2008209228515625, -0.61328125, -0.36474609375, -0.549560546875, 0, 
16, 1039545911, 0.272013783454895, 0.6811279058456421, -0.2758052349090576, 0.6212912797927856, 9.743481636047363, 0.34042996168136597, -0.8662099242210388, 1.6571128368377686, -1.0023746490478516, 1.237013816833496, -0.611328125, -0.36572265625, -0.550537109375, 0, 
17, 1039554244, 0.2719562351703644, 0.6810975670814514, -0.275736927986145, 0.6213799118995667, 9.712477684020996, 0.32919612526893616, -0.828918993473053, 1.8725031614303589, -0.7442601323127747, 1.4272252321243286, -0.609375, -0.36865234375, -0.549560546875, 0, 
18, 1039562577, 0.2719084918498993, 0.6810851693153381, -0.2756424844264984, 0.6214562058448792, 9.804951667785645, 0.33409109711647034, -0.8373203277587891, 2.020066499710083, -0.8823719024658203, 0.9680643677711487, -0.61279296875, -0.36474609375, -0.547119140625, 0, 
19, 1039570910, 0.2718579173088074, 0.6810818314552307, -0.2755272090435028, 0.6215331554412842, 9.762206077575684, 0.28216755390167236, -0.9286638498306274, 2.261992931365967, -0.8814754486083984, 0.7812341451644897, -0.61181640625, -0.3662109375, -0.552490234375, 0, 
20, 1039579243, 0.27178558707237244, 0.6810837388038635, -0.2754100263118744, 0.6216146945953369, 9.789273262023926, 0.3152960240840912, -0.9071953892707825, 2.51821231842041, -0.9628775119781494, 0.9297966361045837, -0.60791015625, -0.36767578125, -0.55224609375, 0, 
21, 1039587576, 0.2717217206954956, 0.6810779571533203, -0.2752828896045685, 0.6217051148414612, 9.751838684082031, 0.33436304330825806, -0.8444878458976746, 2.531582832336426, -0.7397262454032898, 0.8455002903938293, -0.609375, -0.3671875, -0.551025390625, 0, 
22, 1039595909, 0.27165159583091736, 0.681060791015625, -0.27514931559562683, 0.6218137145042419, 9.716226577758789, 0.37856271862983704, -0.8122018575668335, 2.668132781982422, -0.4791783392429352, 0.9312055706977844, -0.6103515625, -0.3662109375, -0.550048828125, 0, 
23, 1039604242, 0.2715684771537781, 0.6810516715049744, -0.27500659227371216, 0.6219232678413391, 9.741216659545898, 0.3486843705177307, -0.854094922542572, 2.903783082962036, -0.5455703735351562, 0.947265625, -0.61376953125, -0.3662109375, -0.552001953125, 0, 
24, 1039612575, 0.2714892327785492, 0.6810327768325806, -0.27485665678977966, 0.6220449209213257, 9.765533447265625, 0.28945064544677734, -0.8522618412971497, 2.9385673999786377, -0.3148629665374756, 0.9098944664001465, -0.60986328125, -0.3662109375, -0.550537109375, 0, 
25, 1039620908, 0.271410197019577, 0.6810266375541687, -0.27467119693756104, 0.6221678256988525, 9.73999309539795, 0.28992965817451477, -0.8225827813148499, 3.2928638458251953, -0.27216407656669617, 0.551500141620636, -0.60888671875, -0.36669921875, -0.549560546875, 0, 
26, 1039629241, 0.2713107168674469, 0.6810411810874939, -0.2744634449481964, 0.6222870349884033, 9.670761108398438, 0.3289569914340973, -0.7451446652412415, 3.738858461380005, -0.48358389735221863, 0.4066515564918518, -0.611328125, -0.36865234375, -0.549072265625, 0, 
27, 1039637574, 0.27103307843208313, 0.6811472773551941, -0.2742011249065399, 0.6224074959754944, 9.921853065490723, 0.49812188744544983, -0.6897391080856323, 6.219750881195068, -1.7191121578216553, 1.0969294309616089, -0.609375, -0.3681640625, -0.551513671875, 0, 
28, 1039645907, 0.2708559036254883, 0.6811809539794922, -0.27398669719696045, 0.6225420832633972, 9.305809020996094, 0.17969155311584473, -0.6966806054115295, 4.651904106140137, -0.7716928720474243, 0.9944726824760437, -0.611328125, -0.3681640625, -0.550537109375, 0, 
29, 1039654240, 0.27070388197898865, 0.6811999678611755, -0.27380049228668213, 0.6226693987846375, 9.62661075592041, 0.3673686981201172, -0.7241424918174744, 4.092411994934082, -0.7175956964492798, 1.0879136323928833, -0.60986328125, -0.36865234375, -0.551025390625, 0, 
30, 1039662573, 0.2705204486846924, 0.6812230944633484, -0.27360785007476807, 0.6228085160255432, 9.62034797668457, 0.35125434398651123, -0.6956630349159241, 4.5015740394592285, -0.7433122992515564, 1.3104243278503418, -0.61181640625, -0.36669921875, -0.552001953125, 0, 
31, 1039670906, 0.2703136205673218, 0.6812434792518616, -0.273419588804245, 0.6229586005210876, 9.639874458312988, 0.3751930892467499, -0.6975885033607483, 4.7162981033325195, -0.7169296145439148, 1.619178295135498, -0.60791015625, -0.36865234375, -0.5546875, 0, 
32, 1039679239, 0.2700873017311096, 0.6812600493431091, -0.2732451856136322, 0.6231151819229126, 9.684703826904297, 0.3586796224117279, -0.7110834717750549, 4.788376331329346, -0.7518930435180664, 1.9360777139663696, -0.60986328125, -0.3671875, -0.551025390625, 0, 
33, 1039687572, 0.26984187960624695, 0.681291401386261, -0.2730560898780823, 0.6232700943946838, 9.691401481628418, 0.2914133369922638, -0.7312803268432617, 5.1425957679748535, -0.9076276421546936, 1.9218873977661133, -0.60986328125, -0.36962890625, -0.547119140625, 0, 
34, 1039695905, 0.26950788497924805, 0.6813820004463196, -0.2728142738342285, 0.6234213709831238, 9.720769882202148, 0.33429545164108276, -0.785173237323761, 6.628733158111572, -1.5912457704544067, 1.9281624555587769, -0.609375, -0.36767578125, -0.549560546875, 0, 
35, 1039704238, 0.2692053020000458, 0.6814404726028442, -0.272592157125473, 0.6235854029655457, 9.658425331115723, 0.33369237184524536, -0.7656334042549133, 6.095932483673096, -1.1455838680267334, 2.0315420627593994, -0.60986328125, -0.3671875, -0.552001953125, 0, 
36, 1039712571, 0.26892414689064026, 0.681475818157196, -0.27239152789115906, 0.6237557530403137, 9.696249961853027, 0.3282308578491211, -0.6994355916976929, 5.647503852844238, -0.8940010070800781, 2.1411709785461426, -0.60986328125, -0.36767578125, -0.550537109375, 0, 
37, 1039720904, 0.26853451132774353, 0.6815662980079651, -0.272126168012619, 0.6239405274391174, 9.776878356933594, 0.40350309014320374, -0.7481702566146851, 7.479511260986328, -1.3918392658233643, 2.3299992084503174, -0.60888671875, -0.36865234375, -0.547607421875, 0, 
38, 1039729237, 0.2681690454483032, 0.6816116571426392, -0.27190253138542175, 0.6241456866264343, 9.540023803710938, 0.22831150889396667, -0.7526079416275024, 6.8038330078125, -0.8842418789863586, 2.7386231422424316, -0.60888671875, -0.3701171875, -0.550537109375, 0, 
39, 1039737570, 0.26784369349479675, 0.6816349029541016, -0.2716808319091797, 0.6243562698364258, 9.699209213256836, 0.33709314465522766, -0.8072465062141418, 6.350050449371338, -0.4947517514228821, 2.5356297492980957, -0.60791015625, -0.36962890625, -0.550537109375, 0, 
40, 1039745903, 0.2674192488193512, 0.6817015409469604, -0.2713949382305145, 0.6245898008346558, 9.741456031799316, 0.3317889869213104, -0.7837727665901184, 8.074605941772461, -0.7908267378807068, 2.6867284774780273, -0.6123046875, -0.37060546875, -0.550537109375, 0, 
41, 1039754236, 0.26705873012542725, 0.6817435026168823, -0.27115732431411743, 0.6248012781143188, 9.642007827758789, 0.22716465592384338, -0.7703889608383179, 6.888743877410889, -0.7190300822257996, 2.619619369506836, -0.60888671875, -0.369140625, -0.552001953125, 0, 
42, 1039762569, 0.2666887640953064, 0.6818172335624695, -0.27088701725006104, 0.6249961853027344, 9.87030029296875, 0.3560798466205597, -0.9330203533172607, 7.310662269592285, -1.0677167177200317, 2.1978042125701904, -0.60888671875, -0.36865234375, -0.548095703125, 0, 
43, 1039770902, 0.26626673340797424, 0.6819128394126892, -0.27057111263275146, 0.6252087354660034, 9.662540435791016, 0.12893792986869812, -0.7912213802337646, 8.340276718139648, -1.111363172531128, 2.2205493450164795, -0.6123046875, -0.36669921875, -0.551025390625, 0, 
44, 1039779235, 0.2659603953361511, 0.6819947957992554, -0.27029091119766235, 0.6253708004951477, 9.719695091247559, 0.27826830744743347, -0.7575181722640991, 6.7095208168029785, -1.1729398965835571, 1.4058116674423218, -0.60693359375, -0.37060546875, -0.55224609375, 0, 
45, 1039787568, 0.26545950770378113, 0.6821821331977844, -0.269871324300766, 0.6255605220794678, 9.773394584655762, 0.2130737155675888, -0.733772337436676, 10.216751098632812, -2.028122663497925, 1.5017116069793701, -0.61181640625, -0.369140625, -0.550537109375, 0, 
46, 1039795901, 0.2652105987071991, 0.6823711395263672, -0.26951298117637634, 0.6256144046783447, 9.74193000793457, -0.014940432272851467, -0.8990309238433838, 6.831035137176514, -2.61220383644104, -0.6125773191452026, -0.60986328125, -0.36865234375, -0.55322265625, 0, 
47, 1039804234, 0.2648117244243622, 0.682673454284668, -0.26889681816101074, 0.6257187724113464, 10.050898551940918, 0.5196443796157837, -1.0392851829528809, 11.05669116973877, -2.720142126083374, -1.9591686725616455, -0.6083984375, -0.37255859375, -0.548583984375, 0, 
48, 1039812567, 0.2642449736595154, 0.6829156875610352, -0.26822811365127563, 0.6259810924530029, 9.410688400268555, 0.06302067637443542, -0.5866562724113464, 13.450088500976562, -1.1585705280303955, -0.23100201785564423, -0.607421875, -0.37060546875, -0.547119140625, 0, 
49, 1039820900, 0.264006644487381, 0.6831129193305969, -0.26771488785743713, 0.6260860562324524, 9.532383918762207, 0.2413477599620819, -0.619802713394165, 8.284565925598145, -1.5912716388702393, -1.9817862510681152, -0.60986328125, -0.37109375, -0.548095703125, 0, 
50, 1039829233, 0.2633685767650604, 0.6834782361984253, -0.26698142290115356, 0.6262692809104919, 9.582509994506836, 0.3547590970993042, -0.591877281665802, 14.834794044494629, -2.98604416847229, -0.9641583561897278, -0.6103515625, -0.37255859375, -0.546630859375, 0, 
51, 1039837566, 0.26305630803108215, 0.6837202310562134, -0.26649174094200134, 0.6263449192047119, 9.470656394958496, 0.333169162273407, -0.6352103352546692, 8.830303192138672, -2.6133053302764893, -1.3965266942977905, -0.60986328125, -0.37353515625, -0.545654296875, 0, 
52, 1039845899, 0.26253387331962585, 0.6839990019798279, -0.26589351892471313, 0.6265140175819397, 9.675668716430664, 0.5051213502883911, -0.730400562286377, 12.216736793518066, -2.437924861907959, -0.42203301191329956, -0.60888671875, -0.375, -0.547119140625, 0, 
53, 1039854232, 0.2621937394142151, 0.6841958165168762, -0.2654784321784973, 0.6266176104545593, 9.295042037963867, 0.22905024886131287, -0.500061571598053, 8.391018867492676, -2.3351857662200928, -0.19027535617351532, -0.609619140625, -0.3759765625, -0.544189453125, 0, 
54, 1039862565, 0.2618209719657898, 0.6843791007995605, -0.265126496553421, 0.6267224550247192, 9.2843017578125, 0.4273167848587036, -0.4780578911304474, 8.107366561889648, -2.560283660888672, 0.7224238514900208, -0.607666015625, -0.3759765625, -0.544677734375, 0, 
55, 1039870898, 0.2612091600894928, 0.6846768260002136, -0.26471513509750366, 0.6268261671066284, 9.25378704071045, 0.41773903369903564, -0.17598776519298553, 11.276922225952148, -4.2078680992126465, 1.8221708536148071, -0.610107421875, -0.3740234375, -0.543212890625, 0, 
56, 1039879231, 0.26072296500205994, 0.6849810481071472, -0.2645493149757385, 0.6267663836479187, 9.1635103225708, 0.24798060953617096, -0.153499573469162, 7.40502405166626, -6.234619140625, 2.4187521934509277, -0.609130859375, -0.376953125, -0.543212890625, 0, 
57, 1039887564, 0.2602289617061615, 0.685336709022522, -0.26447105407714844, 0.6266158819198608, 9.430708885192871, 0.31262215971946716, -0.4058108329772949, 6.581655502319336, -7.8700127601623535, 2.819974184036255, -0.612060546875, -0.375, -0.542236328125, 0, 
58, 1039895897, 0.25972670316696167, 0.6857467293739319, -0.26439207792282104, 0.6264089345932007, 9.635529518127441, 0.2596729099750519, -0.8188003301620483, 6.6528120040893555, -8.903265953063965, 2.464038610458374, -0.611572265625, -0.37744140625, -0.542724609375, 0, 
59, 1039904230, 0.25931811332702637, 0.6860974431037903, -0.26432400941848755, 0.6262228488922119, 9.785686492919922, 0.33146780729293823, -0.8957130312919617, 5.543304920196533, -7.8890180587768555, 2.068554401397705, -0.613037109375, -0.37646484375, -0.541259765625, 0, 
60, 1039912563, 0.25902673602104187, 0.6863399744033813, -0.2643008828163147, 0.626087486743927, 9.779746055603027, 0.3834209740161896, -0.909789502620697, 3.8440308570861816, -6.217100143432617, 2.0383551120758057, -0.610107421875, -0.375, -0.538818359375, 0, 
61, 1039920896, 0.25877973437309265, 0.6865307092666626, -0.26430606842041016, 0.6259782910346985, 9.685802459716797, 0.3573943078517914, -0.7799133062362671, 3.092252492904663, -5.459866046905518, 2.2242631912231445, -0.609130859375, -0.3779296875, -0.542724609375, 0, 
62, 1039929229, 0.25855082273483276, 0.6867052316665649, -0.2643384337425232, 0.6258678436279297, 9.784043312072754, 0.33388039469718933, -0.9250112175941467, 2.626688241958618, -5.366937160491943, 2.3607871532440186, -0.610595703125, -0.37548828125, -0.538818359375, 0, 
63, 1039937562, 0.25835278630256653, 0.6868277788162231, -0.2643751800060272, 0.6257996559143066, 9.869428634643555, 0.3621552884578705, -1.135620355606079, 2.2678589820861816, -4.4214911460876465, 2.4964659214019775, -0.613037109375, -0.37451171875, -0.537841796875, 0, 
64, 1039945895, 0.25820299983024597, 0.6868759393692017, -0.2643923759460449, 0.6258013248443604, 9.763727188110352, 0.310628205537796, -1.0777548551559448, 1.9680699110031128, -2.8801801204681396, 2.3928303718566895, -0.609619140625, -0.37646484375, -0.538330078125, 0, 
65, 1039954228, 0.25805410742759705, 0.686928391456604, -0.26441720128059387, 0.6257945895195007, 9.589459419250488, 0.29283320903778076, -0.5998945832252502, 1.8818525075912476, -3.0155255794525146, 2.4334805011749268, -0.611083984375, -0.375, -0.535888671875, 0, 
66, 1039962561, 0.25790223479270935, 0.687012791633606, -0.2644796371459961, 0.6257382035255432, 9.588245391845703, 0.34202176332473755, -0.6915966868400574, 1.516004204750061, -3.9076435565948486, 2.5023059844970703, -0.610107421875, -0.3759765625, -0.534912109375, 0, 
67, 1039970894, 0.25774914026260376, 0.6870669722557068, -0.26457181572914124, 0.6257027387619019, 9.528250694274902, 0.30895349383354187, -0.6951251029968262, 1.2428796291351318, -3.5573434829711914, 3.0001697540283203, -0.608154296875, -0.373046875, -0.535400390625, 0, 
68, 1039979227, 0.2575851082801819, 0.6871423125267029, -0.2646869719028473, 0.6256389021873474, 9.463431358337402, 0.2914446294307709, -0.4601675570011139, 1.1169599294662476, -4.129181385040283, 3.1107466220855713, -0.610595703125, -0.3779296875, -0.537841796875, 0, 
69, 1039987560, 0.25743740797042847, 0.6872560977935791, -0.2648566663265228, 0.62550288438797, 9.431946754455566, 0.3146410882472992, -0.540733814239502, 0.36653971672058105, -5.277083396911621, 3.1139228343963623, -0.611083984375, -0.3720703125, -0.535888671875, 0, 
70, 1039995893, 0.25732362270355225, 0.6873617172241211, -0.2650597095489502, 0.6253477334976196, 9.50941276550293, 0.26164400577545166, -0.6473870873451233, -0.3387610912322998, -5.383049488067627, 3.0751683712005615, -0.611083984375, -0.373046875, -0.538330078125, 0, 
71, 1040004226, 0.2571716606616974, 0.6875180006027222, -0.26530876755714417, 0.62513267993927, 9.551642417907715, 0.20919544994831085, -0.45428621768951416, -0.41153112053871155, -6.6871209144592285, 3.4664254188537598, -0.610595703125, -0.37451171875, -0.535888671875, 0, 
72, 1040012559, 0.2570076584815979, 0.6876735687255859, -0.26552754640579224, 0.6249361634254456, 9.729009628295898, 0.3397325277328491, -1.0240864753723145, 0.02653634548187256, -6.441351890563965, 3.327212333679199, -0.613037109375, -0.3701171875, -0.532958984375, 0, 
73, 1040020892, 0.2568191885948181, 0.6878174543380737, -0.2657490670681, 0.6247608065605164, 9.731648445129395, 0.29755470156669617, -1.1004924774169922, 0.2709217667579651, -6.238283157348633, 3.702538013458252, -0.613037109375, -0.37109375, -0.533447265625, 0, 
74, 1040029225, 0.2566550374031067, 0.6878880858421326, -0.2659437656402588, 0.6246676445007324, 9.70708179473877, 0.33311355113983154, -1.0112334489822388, 0.3119301199913025, -4.650943279266357, 3.778893232345581, -0.611572265625, -0.375, -0.534912109375, 0, 
75, 1040037558, 0.25649625062942505, 0.687955379486084, -0.26616641879081726, 0.6245641112327576, 9.602516174316406, 0.3300636410713196, -0.8368152379989624, -0.024986689910292625, -4.795714855194092, 3.9889564514160156, -0.612548828125, -0.37255859375, -0.533447265625, 0, 
76, 1040045891, 0.25633704662323, 0.6880136132240295, -0.2664192318916321, 0.6244575381278992, 9.603668212890625, 0.3549370765686035, -1.0028212070465088, -0.32685044407844543, -4.858059406280518, 4.282060146331787, -0.612548828125, -0.373046875, -0.534912109375, 0, 
77, 1040054224, 0.2562488913536072, 0.6880025863647461, -0.26669061183929443, 0.6243900656700134, 9.604480743408203, 0.2770821750164032, -0.822394847869873, -1.257953405380249, -3.6956348419189453, 4.263284206390381, -0.613525390625, -0.373046875, -0.532470703125, 0, 
78, 1040062557, 0.25618240237236023, 0.6880457401275635, -0.2669937014579773, 0.6242402791976929, 9.651449203491211, 0.18678885698318481, -0.5917412638664246, -1.8464149236679077, -4.975270748138428, 3.863523483276367, -0.614013671875, -0.36962890625, -0.528564453125, 0, 
79, 1040070890, 0.25612974166870117, 0.6881545782089233, -0.26729679107666016, 0.6240121126174927, 9.861815452575684, 0.19814671576023102, -0.9302352666854858, -2.0328099727630615, -6.2262701988220215, 3.2532641887664795, -0.614013671875, -0.36865234375, -0.530517578125, 0, 
80, 1040079223, 0.2560982406139374, 0.6882482767105103, -0.2675641179084778, 0.6238070726394653, 9.998746871948242, 0.15977898240089417, -1.1968437433242798, -1.896823763847351, -5.677919864654541, 2.844716787338257, -0.616943359375, -0.36767578125, -0.531494140625, 0, 
81, 1040087556, 0.2560877799987793, 0.6883524656295776, -0.2677634656429291, 0.6236109733581543, 9.968700408935547, 0.11942040920257568, -1.156045913696289, -1.4404805898666382, -5.362506866455078, 2.0400712490081787, -0.616455078125, -0.3681640625, -0.531494140625, 0, 
82, 1040095889, 0.25606000423431396, 0.6884423494338989, -0.2678956091403961, 0.6234664916992188, 10.020145416259766, 0.25114092230796814, -1.2156381607055664, -0.5626551508903503, -4.580581188201904, 1.7615935802459717, -0.617431640625, -0.36865234375, -0.531982421875, 0, 
83, 1040104222, 0.2560150623321533, 0.6884862780570984, -0.26798656582832336, 0.623397171497345, 9.998970031738281, 0.23710735142230988, -1.2844892740249634, 0.07054159790277481, -3.391721487045288, 1.9754207134246826, -0.614013671875, -0.36572265625, -0.529541015625, 0, 
84, 1040112555, 0.2559566795825958, 0.688518762588501, -0.26804089546203613, 0.6233618855476379, 9.876596450805664, 0.22369231283664703, -1.1091705560684204, 0.5954797267913818, -2.893627405166626, 1.8828257322311401, -0.614990234375, -0.36865234375, -0.531982421875, 0, 
85, 1040120888, 0.255940318107605, 0.6884992718696594, -0.2680465579032898, 0.6233876347541809, 10.04863166809082, 0.23312856256961823, -1.2885693311691284, 0.6575174331665039, -1.5388648509979248, 1.4935405254364014, -0.615966796875, -0.3662109375, -0.528564453125, 0, 
86, 1040129221, 0.25594794750213623, 0.6884615421295166, -0.2680175006389618, 0.6234387159347534, 10.008358001708984, 0.22233182191848755, -1.251153826713562, 0.7554661631584167, -0.9370583295822144, 1.0890916585922241, -0.615478515625, -0.36669921875, -0.531494140625, 0, 
87, 1040137554, 0.2559528052806854, 0.6884260177612305, -0.2679464817047119, 0.6235063672065735, 9.895686149597168, 0.19397079944610596, -1.019881010055542, 1.2118862867355347, -0.6594512462615967, 0.7906602025032043, -0.612060546875, -0.3701171875, -0.533935546875, 0, 
88, 1040145887, 0.25594592094421387, 0.6884247660636902, -0.2678318917751312, 0.6235597729682922, 9.954492568969727, 0.15286701917648315, -1.1201022863388062, 1.76466703414917, -0.9805768728256226, 0.2783498466014862, -0.613525390625, -0.36669921875, -0.531005859375, 0, 
89, 1040154220, 0.25594648718833923, 0.6884269714355469, -0.267652302980423, 0.623634397983551, 9.830244064331055, 0.15036270022392273, -0.907393217086792, 2.3426012992858887, -0.5460314750671387, -0.31432509422302246, -0.613525390625, -0.369140625, -0.531005859375, 0, 
90, 1040162553, 0.25593358278274536, 0.6884740591049194, -0.2674642503261566, 0.6236684918403625, 9.632286071777344, 0.19870533049106598, -0.6808534264564514, 2.5498714447021484, -1.3421730995178223, -0.6115782260894775, -0.611083984375, -0.36962890625, -0.529052734375, 0, 
91, 1040170886, 0.2559206783771515, 0.6885554790496826, -0.2673039436340332, 0.6236525177955627, 9.610246658325195, 0.2823285162448883, -0.9716795086860657, 2.2514402866363525, -2.199148416519165, -0.6280482411384583, -0.614501953125, -0.3671875, -0.531494140625, 0, 
92, 1040179219, 0.25598058104515076, 0.6885671019554138, -0.26717105507850647, 0.6236721873283386, 9.609615325927734, 0.25799524784088135, -0.8791472911834717, 1.2089918851852417, -1.1001441478729248, -0.6346567273139954, -0.614990234375, -0.36962890625, -0.530029296875, 0, 
93, 1040187552, 0.2560512125492096, 0.6886172890663147, -0.26709234714508057, 0.6236211657524109, 9.451051712036133, 0.2904239892959595, -0.5401674509048462, 0.5203275680541992, -2.245305299758911, -0.5781516432762146, -0.616943359375, -0.369140625, -0.528564453125, 0, 
94, 1040195885, 0.25614267587661743, 0.6886495351791382, -0.2670638859272003, 0.6235601902008057, 9.542733192443848, 0.30563947558403015, -0.8404697775840759, -0.2095116525888443, -2.2928457260131836, -0.2744949460029602, -0.614013671875, -0.3681640625, -0.530029296875, 0, 
95, 1040204218, 0.2562073767185211, 0.6887054443359375, -0.2670500874519348, 0.6234779953956604, 9.592850685119629, 0.2418690174818039, -0.8823116421699524, -0.07365373522043228, -2.840784788131714, -0.04301910474896431, -0.613037109375, -0.369140625, -0.530517578125, 0, 
96, 1040212551, 0.25627124309539795, 0.6887652277946472, -0.2670491635799408, 0.6233861446380615, 9.677279472351074, 0.2637596130371094, -0.8572616577148438, -0.20013682544231415, -3.0187273025512695, 0.011193419806659222, -0.614990234375, -0.3701171875, -0.532958984375, 0, 
97, 1040220884, 0.25640997290611267, 0.6888818740844727, -0.26701682806015015, 0.6232140064239502, 9.705087661743164, 0.017017725855112076, -1.0062429904937744, -0.7322468757629395, -3.875190258026123, -1.3944772481918335, -0.615478515625, -0.3720703125, -0.531005859375, 0, 
98, 1040229217, 0.2566215991973877, 0.6890124678611755, -0.26695483922958374, 0.6230090856552124, 9.784977912902832, 0.2669054865837097, -1.033423662185669, -1.2405871152877808, -3.9417364597320557, -2.492431640625, -0.613525390625, -0.3681640625, -0.528076171875, 0, 
99, 1040237550, 0.25692659616470337, 0.6891263127326965, -0.2669457197189331, 0.6227612495422363, 9.532633781433105, 0.2957935929298401, -0.6206552982330322, -2.7944746017456055, -4.0387115478515625, -2.8545401096343994, -0.613037109375, -0.37109375, -0.529541015625, 0, 
100, 1040245883, 0.2572920024394989, 0.6892489194869995, -0.2670338749885559, 0.6224368810653687, 9.523054122924805, 0.38602492213249207, -0.725852370262146, -4.450922012329102, -4.967893123626709, -2.7779788970947266, -0.615478515625, -0.3701171875, -0.531982421875, 0, 
101, 1040254216, 0.2577010691165924, 0.6893093585968018, -0.2671852707862854, 0.6221354603767395, 9.515813827514648, 0.37446922063827515, -0.8176366090774536, -5.542497634887695, -4.277564525604248, -2.221637487411499, -0.612548828125, -0.3720703125, -0.529052734375, 0, 
102, 1040262549, 0.25816401839256287, 0.6893580555915833, -0.26745328307151794, 0.621774435043335, 9.467514038085938, 0.35673439502716064, -0.4138090908527374, -7.3110575675964355, -4.962259292602539, -1.768009901046753, -0.614013671875, -0.37060546875, -0.530517578125, 0, 
103, 1040270882, 0.2585296630859375, 0.6894735097885132, -0.26774361729621887, 0.6213693618774414, 9.778071403503418, 0.3221758306026459, -0.9979892373085022, -6.503544807434082, -6.383363246917725, -1.0995041131973267, -0.614990234375, -0.37109375, -0.528564453125, 0, 
104, 1040279215, 0.25884637236595154, 0.689524233341217, -0.2679690420627594, 0.6210841536521912, 9.967927932739258, 0.2978145480155945, -1.3399913311004639, -5.275674819946289, -4.647152423858643, -0.6582987308502197, -0.612060546875, -0.37109375, -0.531005859375, 0, 
105, 1040287548, 0.259052574634552, 0.6895209550857544, -0.26810234785079956, 0.6209442019462585, 10.106858253479004, 0.37486717104911804, -1.6562522649765015, -3.0940845012664795, -2.886404514312744, 0.15419770777225494, -0.614990234375, -0.37158203125, -0.531005859375, 0, 
106, 1040295881, 0.25921642780303955, 0.6893680691719055, -0.26813599467277527, 0.6210309267044067, 9.963785171508789, 0.3162764012813568, -1.606156587600708, -1.5420154333114624, 0.7369728088378906, 0.9042338132858276, -0.614013671875, -0.373046875, -0.530517578125, 0, 
107, 1040304214, 0.2593304514884949, 0.6891510486602783, -0.2680986225605011, 0.6212401986122131, 9.825858116149902, 0.37563014030456543, -1.315625548362732, -0.23907047510147095, 2.523232936859131, 1.3556591272354126, -0.614990234375, -0.3701171875, -0.530029296875, 0, 
108, 1040312547, 0.25943055748939514, 0.6888816356658936, -0.2680273652076721, 0.6215279698371887, 9.777862548828125, 0.2782873809337616, -1.0414347648620605, 0.2826786935329437, 3.776306629180908, 1.6006335020065308, -0.614501953125, -0.369140625, -0.530029296875, 0, 
109, 1040320880, 0.2595212757587433, 0.6886229515075684, -0.2679222822189331, 0.6218219995498657, 9.774720191955566, 0.2109171599149704, -0.8909534811973572, 0.7251901626586914, 3.839573860168457, 1.3710274696350098, -0.612060546875, -0.37109375, -0.531005859375, 0, 
110, 1040329213, 0.25959861278533936, 0.6884186267852783, -0.2678089439868927, 0.6220647692680359, 9.708846092224121, 0.22901186347007751, -0.7139772772789001, 0.9258777499198914, 2.8607001304626465, 0.9971879124641418, -0.615478515625, -0.373046875, -0.533935546875, 0, 
111, 1040337546, 0.25967592000961304, 0.6882659196853638, -0.2676965892314911, 0.6222498416900635, 9.737282752990723, 0.25840285420417786, -0.8513041734695435, 0.8905812501907349, 1.8810068368911743, 0.6360783576965332, -0.611083984375, -0.37353515625, -0.535400390625, 0, 
112, 1040345879, 0.2597912549972534, 0.6881221532821655, -0.26758280396461487, 0.6224097013473511, 9.694293022155762, 0.22956110537052155, -0.8327643275260925, 0.48113778233528137, 1.697737216949463, 0.1469232589006424, -0.611083984375, -0.37158203125, -0.530517578125, 0, 
113, 1040354212, 0.2599106431007385, 0.6880343556404114, -0.2674887776374817, 0.6224971413612366, 9.557648658752441, 0.23232461512088776, -0.595509946346283, 0.20880724489688873, 0.487669438123703, -0.13738195598125458, -0.612548828125, -0.373046875, -0.533447265625, 0, 
114, 1040362545, 0.26001647114753723, 0.6880330443382263, -0.2674139440059662, 0.6224865317344666, 9.635665893554688, 0.27815261483192444, -0.8076990246772766, 0.11977215856313705, -1.3086953163146973, -0.5348123908042908, -0.613525390625, -0.36962890625, -0.532958984375, 0, 
115, 1040370878, 0.2601455748081207, 0.6880224943161011, -0.26734253764152527, 0.6224749684333801, 9.768386840820312, 0.29813048243522644, -1.0140156745910645, -0.16468673944473267, -1.1549330949783325, -0.6458757519721985, -0.614013671875, -0.3681640625, -0.532958984375, 0, 
116, 1040379211, 0.26031723618507385, 0.6880043745040894, -0.2672789394855499, 0.6224506497383118, 9.627161979675293, 0.2537614107131958, -0.698289155960083, -0.7111920118331909, -1.090282678604126, -0.9807561635971069, -0.612060546875, -0.37353515625, -0.531982421875, 0, 
117, 1040387544, 0.26049599051475525, 0.6880698204040527, -0.2672373950481415, 0.6223214268684387, 9.592018127441406, 0.19525548815727234, -0.6794847249984741, -1.0502477884292603, -2.843449354171753, -1.4878926277160645, -0.613525390625, -0.37548828125, -0.534912109375, 0, 
118, 1040395877, 0.26068681478500366, 0.6881701350212097, -0.26718541979789734, 0.6221530437469482, 9.599563598632812, 0.31906360387802124, -0.859627366065979, -1.0973008871078491, -3.439082145690918, -1.9848854541778564, -0.611083984375, -0.37548828125, -0.531982421875, 0, 
119, 1040404210, 0.26091280579566956, 0.6882662773132324, -0.26715418696403503, 0.6219650506973267, 9.357129096984863, 0.31190526485443115, -0.6193812489509583, -1.690168023109436, -3.525966167449951, -2.1176955699920654, -0.610595703125, -0.37451171875, -0.531494140625, 0, 
120, 1040412543, 0.26113906502723694, 0.6884390115737915, -0.26718825101852417, 0.6216641664505005, 9.447304725646973, 0.31909722089767456, -0.5349933505058289, -2.395199775695801, -5.491422653198242, -2.2152085304260254, -0.614501953125, -0.3740234375, -0.532470703125, 0, 
121, 1040420876, 0.26132988929748535, 0.688646674156189, -0.2672240734100342, 0.6213387250900269, 9.720940589904785, 0.30643153190612793, -0.9368088245391846, -2.037574052810669, -6.152219295501709, -2.0877010822296143, -0.610107421875, -0.3740234375, -0.532470703125, 0, 
122, 1040429209, 0.2615239918231964, 0.6888225078582764, -0.26724502444267273, 0.6210530996322632, 9.727892875671387, 0.32819631695747375, -0.9478402137756348, -1.9124482870101929, -5.445522308349609, -2.0218725204467773, -0.612548828125, -0.373046875, -0.535888671875, 0, 
123, 1040437542, 0.2617512345314026, 0.688961923122406, -0.2672678232192993, 0.6207926273345947, 9.831790924072266, 0.3645517826080322, -1.2173110246658325, -2.2755298614501953, -4.773097038269043, -2.036702871322632, -0.611083984375, -0.3759765625, -0.534423828125, 0, 
124, 1040445875, 0.26202213764190674, 0.6890251040458679, -0.26724839210510254, 0.6206166744232178, 9.552501678466797, 0.23552198708057404, -0.8346588611602783, -2.2962775230407715, -3.01570463180542, -2.250581979751587, -0.611083984375, -0.37548828125, -0.529541015625, 0, 
125, 1040454208, 0.26218095421791077, 0.6892386078834534, -0.26720306277275085, 0.620331883430481, 9.499507904052734, 0.2751532196998596, -0.4776519238948822, -0.8693087697029114, -5.643008232116699, -2.4585697650909424, -0.610595703125, -0.375, -0.531494140625, 0, 
126, 1040462541, 0.26230770349502563, 0.6895154714584351, -0.2671431005001068, 0.6199964284896851, 9.855331420898438, 0.2807559669017792, -1.1910336017608643, -0.4007475674152374, -6.733534812927246, -2.764019727706909, -0.612548828125, -0.37841796875, -0.529052734375, 0, 
127, 1040470874, 0.26248911023139954, 0.6897541880607605, -0.2670106887817383, 0.6197109818458557, 9.813345909118652, 0.24560703337192535, -1.094157338142395, -0.2534143924713135, -5.468267440795898, -3.5706627368927, -0.612548828125, -0.37646484375, -0.530517578125, 0, 
128, 1040479207, 0.26269078254699707, 0.690033495426178, -0.2668609023094177, 0.6193791627883911, 9.61051082611084, 0.3327733874320984, -0.7907087802886963, -0.32341814041137695, -6.121840000152588, -4.2506184577941895, -0.612060546875, -0.375, -0.528076171875, 0, 
129, 1040487540, 0.2629486322402954, 0.6903517246246338, -0.2667132318019867, 0.6189784407615662, 9.750596046447754, 0.2594549059867859, -1.0521240234375, -0.9841117858886719, -6.902153015136719, -5.073936939239502, -0.611083984375, -0.3759765625, -0.530517578125, 0, 
130, 1040495873, 0.2632780969142914, 0.6906459331512451, -0.2665749490261078, 0.6185696125030518, 9.57844352722168, 0.38478419184684753, -0.6210989952087402, -1.862346887588501, -6.552108287811279, -5.563424587249756, -0.613037109375, -0.37939453125, -0.529052734375, 0, 
131, 1040504206, 0.26360005140304565, 0.6910220980644226, -0.2665272355079651, 0.6180328130722046, 9.3646240234375, 0.4305809736251831, -0.4527364671230316, -2.7342047691345215, -8.812590599060059, -5.374699592590332, -0.61181640625, -0.3798828125, -0.525146484375, 0, 
132, 1040512539, 0.263906866312027, 0.6914547681808472, -0.2665543556213379, 0.6174059510231018, 9.36940860748291, 0.4905349314212799, -0.6356379985809326, -3.3524293899536133, -10.482868194580078, -5.09688663482666, -0.609619140625, -0.380859375, -0.527099609375, 0, 
133, 1040520872, 0.26423850655555725, 0.6919088959693909, -0.2666667699813843, 0.6167065501213074, 9.29942512512207, 0.4387567639350891, -0.6437827348709106, -4.49730920791626, -11.568504333496094, -4.809905529022217, -0.61181640625, -0.38330078125, -0.525634765625, 0, 
134, 1040529205, 0.2645995020866394, 0.6924747824668884, -0.26689115166664124, 0.6158189177513123, 9.21545696258545, 0.40227779746055603, -0.2711438536643982, -6.012930870056152, -14.610016822814941, -5.116739749908447, -0.61083984375, -0.3837890625, -0.525146484375, 0, 
135, 1040537538, 0.2649707496166229, 0.6932348608970642, -0.2672222852706909, 0.614659309387207, 9.47486400604248, 0.2891715466976166, -0.5256364345550537, -7.304017543792725, -19.193023681640625, -5.860424041748047, -0.611328125, -0.384765625, -0.519287109375, 0, 
136, 1040545871, 0.26533645391464233, 0.694081723690033, -0.26753857731819153, 0.6134069561958313, 9.692415237426758, 0.3959413468837738, -0.935352623462677, -7.153202056884766, -20.78046989440918, -6.64068603515625, -0.6123046875, -0.38623046875, -0.515380859375, 0, 
137, 1040554204, 0.2656383812427521, 0.6949737668037415, -0.2678842544555664, 0.6121140122413635, 9.549725532531738, 0.5127764940261841, -0.6387135982513428, -6.772189617156982, -21.89000129699707, -6.1048359870910645, -0.61279296875, -0.38525390625, -0.517333984375, 0, 
138, 1040562537, 0.2658652365207672, 0.6958087682723999, -0.2682393491268158, 0.6109101176261902, 9.659589767456055, 0.4850291609764099, -0.5781610012054443, -6.01718282699585, -20.871984481811523, -4.879219055175781, -0.61376953125, -0.38720703125, -0.516357421875, 0, 
139, 1040570870, 0.26589280366897583, 0.6967360377311707, -0.2685127556324005, 0.6097200512886047, 10.694618225097656, 0.5908348560333252, -2.7840561866760254, -3.034045934677124, -21.949474334716797, -4.2461628913879395, -0.6103515625, -0.387451171875, -0.509521484375, 0, 
140, 1040579203, 0.26599398255348206, 0.6973932385444641, -0.26871585845947266, 0.6088343262672424, 9.820954322814941, 0.7183226943016052, -1.5417346954345703, -3.01601243019104, -16.241130828857422, -3.456270217895508, -0.6103515625, -0.388427734375, -0.508056640625, 0, 
141, 1040587536, 0.26614826917648315, 0.6978411078453064, -0.26892194151878357, 0.6081625819206238, 9.85726547241211, 0.7226085662841797, -1.9127854108810425, -3.5218162536621094, -12.247076034545898, -2.286006212234497, -0.611083984375, -0.389404296875, -0.506103515625, 0, 
142, 1040595869, 0.26638293266296387, 0.698078989982605, -0.26909831166267395, 0.607708752155304, 9.72685718536377, 0.5989994406700134, -1.7686288356781006, -4.00984525680542, -7.996982574462891, -1.700644612312317, -0.610595703125, -0.388916015625, -0.506591796875, 0, 
143, 1040604202, 0.26664310693740845, 0.6982094049453735, -0.26926764845848083, 0.6073695421218872, 9.60180377960205, 0.5573796033859253, -1.4432011842727661, -4.164913177490234, -5.874305248260498, -1.1270649433135986, -0.614501953125, -0.38818359375, -0.505126953125, 0, 
144, 1040612535, 0.2669067084789276, 0.6982988119125366, -0.2694375514984131, 0.6070755124092102, 9.430103302001953, 0.5049995183944702, -0.953029453754425, -4.187427520751953, -5.092609405517578, -0.868898868560791, -0.614013671875, -0.39111328125, -0.505615234375, 0, 
145, 1040620868, 0.2670823931694031, 0.6984843015670776, -0.2696168124675751, 0.6067051887512207, 9.400267601013184, 0.34436866641044617, -0.5018593072891235, -3.348562240600586, -6.978612422943115, -0.6502559185028076, -0.61474609375, -0.3857421875, -0.507568359375, 0, 
146, 1040629201, 0.26715269684791565, 0.6988307237625122, -0.26977646350860596, 0.6062044501304626, 9.484549522399902, 0.37711215019226074, -0.652336835861206, -2.066774368286133, -9.900479316711426, -1.0639257431030273, -0.614013671875, -0.39208984375, -0.502685546875, 0, 
147, 1040637534, 0.26717522740364075, 0.699251115322113, -0.26991966366767883, 0.605645477771759, 9.630578994750977, 0.45126691460609436, -1.1604558229446411, -1.4127404689788818, -11.186211585998535, -1.282953143119812, -0.612060546875, -0.389892578125, -0.501220703125, 0, 
148, 1040645867, 0.2672249674797058, 0.6996334195137024, -0.2700578272342682, 0.6051202416419983, 9.689349174499512, 0.5614702105522156, -1.4018198251724243, -1.651260495185852, -10.433819770812988, -1.324499487876892, -0.613525390625, -0.39013671875, -0.501708984375, 0, 
149, 1040654200, 0.2673068046569824, 0.6999793648719788, -0.27026283740997314, 0.6045920848846436, 9.484297752380371, 0.6645976305007935, -1.118316888809204, -2.654954433441162, -10.281082153320312, -0.7916976809501648, -0.612060546875, -0.387939453125, -0.499755859375, 0, 
150, 1040662533, 0.2673426866531372, 0.7003123164176941, -0.2705358564853668, 0.6040684580802917, 9.390554428100586, 0.6993981599807739, -1.0088237524032593, -2.8146843910217285, -10.552642822265625, 0.27924641966819763, -0.616455078125, -0.390625, -0.497314453125, 0, 
151, 1040670866, 0.26737165451049805, 0.7006378173828125, -0.27086231112480164, 0.6035316586494446, 9.304108619689941, 0.5958830118179321, -0.8483222723007202, -3.2661609649658203, -10.83729362487793, 0.862047016620636, -0.614013671875, -0.39111328125, -0.501220703125, 0, 
152, 1040679199, 0.2673545479774475, 0.7010293006896973, -0.27126890420913696, 0.602901816368103, 9.335179328918457, 0.6167519092559814, -0.9316236972808838, -3.592383623123169, -12.752494812011719, 1.3976409435272217, -0.613037109375, -0.386962890625, -0.495361328125, 0, 
153, 1040687532, 0.2673144042491913, 0.7014095187187195, -0.27170121669769287, 0.6022823452949524, 9.58847713470459, 0.5538600087165833, -1.273404598236084, -3.582573890686035, -12.735821723937988, 1.9467077255249023, -0.613037109375, -0.388427734375, -0.496337890625, 0, 
154, 1040695865, 0.2672557532787323, 0.7018054127693176, -0.2721613943576813, 0.6016390323638916, 9.444048881530762, 0.5806561708450317, -0.869397759437561, -3.6700472831726074, -13.26990795135498, 2.191067934036255, -0.613525390625, -0.392333984375, -0.49072265625, 0, 
155, 1040704198, 0.2671657204627991, 0.7023109197616577, -0.272689551115036, 0.6008495688438416, 9.343735694885254, 0.5996474027633667, -0.9289776682853699, -4.069014549255371, -15.951641082763672, 2.194807291030884, -0.616943359375, -0.38818359375, -0.49169921875, 0, 
156, 1040712531, 0.26708313822746277, 0.702854335308075, -0.2732613682746887, 0.5999903082847595, 9.392995834350586, 0.5802721977233887, -1.1423301696777344, -4.628608226776123, -17.07395362854004, 2.121166467666626, -0.614990234375, -0.389404296875, -0.4873046875, 0, 
157, 1040720864, 0.2669738233089447, 0.7034782767295837, -0.2739037573337555, 0.5990140438079834, 9.260214805603027, 0.5465536713600159, -0.7254403233528137, -5.092842102050781, -19.228626251220703, 2.324646472930908, -0.614501953125, -0.388427734375, -0.4892578125, 0, 
158, 1040729197, 0.2667955458164215, 0.7042644023895264, -0.2745961546897888, 0.5978516340255737, 9.435708045959473, 0.44711485505104065, -0.9400467276573181, -4.945278167724609, -22.81008529663086, 2.0500359535217285, -0.6162109375, -0.387451171875, -0.48388671875, 0, 
159, 1040737530, 0.26660558581352234, 0.7051054835319519, -0.27529463171958923, 0.5966225862503052, 9.690385818481445, 0.44071879982948303, -1.3594838380813599, -4.93101167678833, -23.975126266479492, 1.785671591758728, -0.619140625, -0.387939453125, -0.48193359375, 0, 
160, 1040745863, 0.2664077877998352, 0.7059978246688843, -0.2759708762168884, 0.5953419208526611, 9.94909954071045, 0.473056823015213, -1.5220401287078857, -4.682835578918457, -24.842226028442383, 1.2182137966156006, -0.61865234375, -0.385986328125, -0.47998046875, 0, 
161, 1040754196, 0.2661929130554199, 0.7068049907684326, -0.27653324604034424, 0.5942181944847107, 10.085700988769531, 0.35240378975868225, -2.454967975616455, -3.297564744949341, -22.269550323486328, 1.1833781003952026, -0.61865234375, -0.385009765625, -0.4794921875, 0, 
162, 1040762529, 0.26606452465057373, 0.707343578338623, -0.27694955468177795, 0.5934404134750366, 10.117321014404297, 0.5605551600456238, -2.639195203781128, -2.6155850887298584, -15.848875045776367, 1.3116538524627686, -0.61767578125, -0.385986328125, -0.4736328125, 0, 
163, 1040770862, 0.2659904658794403, 0.7076599597930908, -0.2772517800331116, 0.5929552316665649, 10.021162033081055, 0.555951714515686, -2.429366111755371, -1.9088114500045776, -10.562300682067871, 1.709699273109436, -0.619140625, -0.385009765625, -0.47119140625, 0, 
164, 1040779195, 0.2659018933773041, 0.7077517509460449, -0.2774076461791992, 0.5928125977516174, 9.869269371032715, 0.5454354286193848, -2.3963003158569336, -0.09409388899803162, -4.921070098876953, 2.4785611629486084, -0.6201171875, -0.386474609375, -0.4716796875, 0, 
165, 1040787528, 0.26573798060417175, 0.7076367139816284, -0.2774207293987274, 0.5930169820785522, 9.862133979797363, 0.513189971446991, -2.0766146183013916, 2.3774876594543457, 0.3819594979286194, 3.7939293384552, -0.6171875, -0.384521484375, -0.47021484375, 0, 
166, 1040795861, 0.2654673755168915, 0.7073614597320557, -0.27725404500961304, 0.5935442447662354, 10.110089302062988, 0.4059699773788452, -2.350181818008423, 5.522198677062988, 5.077510356903076, 4.672984600067139, -0.6181640625, -0.387451171875, -0.47216796875, 0, 
167, 1040804194, 0.26510509848594666, 0.7068840265274048, -0.2769092321395874, 0.5944352746009827, 9.975981712341309, 0.5434474945068359, -2.176074981689453, 8.521267890930176, 10.57442855834961, 5.821578502655029, -0.61669921875, -0.385986328125, -0.47216796875, 0, 
168, 1040812527, 0.26468345522880554, 0.7062807083129883, -0.27650734782218933, 0.5955264568328857, 9.562052726745605, 0.613540530204773, -1.360994577407837, 9.863353729248047, 13.522603988647461, 6.926911354064941, -0.62060546875, -0.384033203125, -0.47509765625, 0, 
169, 1040820860, 0.2641967236995697, 0.7056810855865479, -0.2761198580265045, 0.5966321229934692, 9.439260482788086, 0.5648390054702759, -1.4811577796936035, 10.453094482421875, 13.343560218811035, 7.670748233795166, -0.61865234375, -0.385009765625, -0.47412109375, 0, 
170, 1040829193, 0.2637600004673004, 0.7050141096115112, -0.27579089999198914, 0.5977649092674255, 9.484243392944336, 0.6271385550498962, -1.4115068912506104, 9.337620735168457, 14.126869201660156, 8.148991584777832, -0.61962890625, -0.383544921875, -0.48046875, 0, 
171, 1040837526, 0.2633548974990845, 0.704379677772522, -0.2755591571331024, 0.5987977385520935, 9.28471565246582, 0.43362364172935486, -0.7000024914741516, 7.975147724151611, 12.668086051940918, 8.377188682556152, -0.6201171875, -0.380615234375, -0.4794921875, 0, 
172, 1040845859, 0.26289016008377075, 0.7039737701416016, -0.2754809856414795, 0.599514901638031, 9.336068153381348, 0.5089879035949707, -0.6993061304092407, 6.916459560394287, 6.937002182006836, 8.318608283996582, -0.62158203125, -0.38232421875, -0.4814453125, 0, 
173, 1040854192, 0.2623843252658844, 0.7036888599395752, -0.2755122780799866, 0.600055992603302, 9.53668212890625, 0.46377572417259216, -1.1763849258422852, 6.187836647033691, 3.688373565673828, 8.650748252868652, -0.619873046875, -0.380615234375, -0.482421875, 0, 
174, 1040862525, 0.26189297437667847, 0.7034589052200317, -0.2755672335624695, 0.6005149483680725, 9.470223426818848, 0.3269692063331604, -1.0306419134140015, 5.734182357788086, 2.4032814502716064, 8.224732398986816, -0.616943359375, -0.380126953125, -0.48291015625, 0, 
175, 1040870858, 0.2614114582538605, 0.7032906413078308, -0.2756125330924988, 0.6009010076522827, 9.767061233520508, 0.29281535744667053, -1.4920990467071533, 5.666074752807617, 1.2701845169067383, 7.5882182121276855, -0.621337890625, -0.37890625, -0.48388671875, 0, 
176, 1040879191, 0.2609977424144745, 0.7029922604560852, -0.27558568120002747, 0.601442277431488, 9.735618591308594, 0.3662947714328766, -1.5718613862991333, 5.725268840789795, 4.354292392730713, 7.347085952758789, -0.618896484375, -0.380615234375, -0.484375, 0, 
177, 1040887524, 0.26055997610092163, 0.7027266025543213, -0.2755628526210785, 0.6019524335861206, 9.446884155273438, 0.4881272614002228, -0.8729957938194275, 5.929234981536865, 3.6819441318511963, 7.38714599609375, -0.622802734375, -0.376953125, -0.48583984375, 0, 
178, 1040895857, 0.26006144285202026, 0.7025220990180969, -0.2755415439605713, 0.6024162769317627, 9.734061241149902, 0.2964008152484894, -1.3743404150009155, 6.543259620666504, 2.4867072105407715, 7.469086170196533, -0.623291015625, -0.37548828125, -0.482421875, 0, 
179, 1040904190, 0.259581595659256, 0.7022657990455627, -0.27545058727264404, 0.6029636263847351, 9.968779563903809, 0.3199750483036041, -1.8136343955993652, 7.073013782501221, 4.047638893127441, 7.170168876647949, -0.619384765625, -0.374755859375, -0.48681640625, 0, 
180, 1040912523, 0.25910118222236633, 0.7019261121749878, -0.27527332305908203, 0.603646457195282, 9.974372863769531, 0.3517506718635559, -1.6590309143066406, 8.006704330444336, 6.3486175537109375, 7.10592794418335, -0.624755859375, -0.37451171875, -0.48291015625, 0, 
181, 1040920856, 0.25862160325050354, 0.7014931440353394, -0.2750055491924286, 0.6044765710830688, 10.21894645690918, 0.32784849405288696, -2.0679101943969727, 8.981120109558105, 8.878586769104004, 7.137868404388428, -0.620849609375, -0.374267578125, -0.4873046875, 0, 
182, 1040929189, 0.25816214084625244, 0.7008169293403625, -0.2745337188243866, 0.6056707501411438, 10.222857475280762, 0.2777412533760071, -2.5554325580596924, 10.988896369934082, 15.204950332641602, 7.184335231781006, -0.622314453125, -0.3720703125, -0.490234375, 0, 
183, 1040937522, 0.25763678550720215, 0.7000225186347961, -0.27391842007637024, 0.6070902347564697, 9.998628616333008, 0.3851594626903534, -1.8118770122528076, 13.252735137939453, 18.631290435791016, 7.630662441253662, -0.620849609375, -0.36962890625, -0.4921875, 0, 
184, 1040945855, 0.25706949830055237, 0.6990553140640259, -0.2732486426830292, 0.6087448000907898, 10.04870891571045, 0.5388767123222351, -1.978718876838684, 14.383069038391113, 22.36285400390625, 8.905692100524902, -0.619873046875, -0.369140625, -0.495361328125, 0, 
185, 1040954188, 0.25649452209472656, 0.6978147625923157, -0.2725116014480591, 0.6107375025749207, 9.714420318603516, 0.4906720519065857, -1.845885157585144, 15.326777458190918, 28.12453269958496, 10.579022407531738, -0.6162109375, -0.369873046875, -0.498779296875, 0, 
186, 1040962521, 0.25577956438064575, 0.6965816020965576, -0.27176564931869507, 0.612774133682251, 9.398503303527832, 0.43598854541778564, -0.9510144591331482, 16.932437896728516, 27.97684669494629, 11.763632774353027, -0.61767578125, -0.36767578125, -0.505126953125, 0, 
187, 1040970854, 0.2549791634082794, 0.6953123211860657, -0.2711217701435089, 0.6148310899734497, 9.499947547912598, 0.5332324504852295, -1.5241202116012573, 16.84232521057129, 27.813936233520508, 13.701322555541992, -0.61669921875, -0.367431640625, -0.506591796875, 0, 
188, 1040979187, 0.25424984097480774, 0.6939163208007812, -0.2705037295818329, 0.6169789433479309, 9.282575607299805, 0.2798730134963989, -1.4142311811447144, 15.83458137512207, 29.913257598876953, 14.105645179748535, -0.623046875, -0.365234375, -0.514404296875, 0, 
189, 1040987520, 0.2535884976387024, 0.6927672028541565, -0.2700307369232178, 0.6187467575073242, 8.72833251953125, 0.0952000841498375, 0.5824891924858093, 13.410319328308105, 23.95594024658203, 12.699446678161621, -0.6181640625, -0.3662109375, -0.514892578125, 0, 
190, 1040995853, 0.25297147035598755, 0.6919762492179871, -0.2697879672050476, 0.6199889779090881, 9.232268333435059, 0.1884862631559372, 0.12343385815620422, 10.322925567626953, 15.243805885314941, 11.318731307983398, -0.6181640625, -0.3671875, -0.515869140625, 0, 
191, 1041004186, 0.2523777484893799, 0.6913544535636902, -0.2696321904659271, 0.6209918856620789, 9.272453308105469, -0.05226769298315048, -0.09027314186096191, 9.061729431152344, 11.323851585388184, 10.522689819335938, -0.6181640625, -0.365234375, -0.517822265625, 0, 
192, 1041012519, 0.2517169713973999, 0.691021740436554, -0.26952481269836426, 0.6216766238212585, 9.306113243103027, 0.01368674449622631, 0.1448064148426056, 9.10711669921875, 5.398329257965088, 9.343844413757324, -0.61962890625, -0.3603515625, -0.516357421875, 0, 
193, 1041020852, 0.25104600191116333, 0.6908883452415466, -0.2694592773914337, 0.622124433517456, 9.711111068725586, 0.09317260980606079, -0.786815345287323, 8.659789085388184, 1.2711578607559204, 8.305545806884766, -0.619384765625, -0.361328125, -0.521240234375, 0, 
194, 1041029185, 0.2504432499408722, 0.6908064484596252, -0.2694447934627533, 0.6224644780158997, 9.790919303894043, 0.2177688181400299, -0.9882259964942932, 7.351030349731445, -0.12782785296440125, 7.607352256774902, -0.617919921875, -0.3603515625, -0.521728515625, 0, 
195, 1041037518, 0.24995861947536469, 0.6906783580780029, -0.26946085691452026, 0.6227944493293762, 9.776077270507812, 0.11984863877296448, -1.1901968717575073, 5.774141311645508, 0.5104661583900452, 7.061102867126465, -0.620849609375, -0.3603515625, -0.521728515625, 0, 
196, 1041045851, 0.24960076808929443, 0.690536379814148, -0.2694823145866394, 0.6230860948562622, 9.937992095947266, 0.1234026551246643, -1.4982924461364746, 4.330265998840332, 0.7119476795196533, 5.908077239990234, -0.620361328125, -0.359375, -0.519287109375, 0, 
197, 1041054184, 0.24933773279190063, 0.6903224587440491, -0.2694547474384308, 0.623440146446228, 9.925747871398926, 0.058221153914928436, -1.4137051105499268, 3.840752124786377, 2.4486184120178223, 5.1472063064575195, -0.617431640625, -0.35888671875, -0.520751953125, 0, 
198, 1041062517, 0.24907711148262024, 0.6901475191116333, -0.26939865946769714, 0.6237623691558838, 9.818739891052246, 0.05454374849796295, -1.0750945806503296, 4.071331024169922, 1.9101558923721313, 4.566710472106934, -0.617919921875, -0.3564453125, -0.524169921875, 0, 
199, 1041070850, 0.2488510012626648, 0.6899922490119934, -0.26933053135871887, 0.6240534782409668, 9.928006172180176, 0.060588106513023376, -1.1719987392425537, 3.805532693862915, 1.6228411197662354, 4.011778831481934, -0.621337890625, -0.35693359375, -0.526123046875, 0, 
200, 1041079183, 0.2486448585987091, 0.6898695230484009, -0.26920971274375916, 0.6243233680725098, 9.943428993225098, 0.012313546612858772, -1.0961596965789795, 4.096203327178955, 1.3892905712127686, 3.1117966175079346, -0.615478515625, -0.35888671875, -0.525146484375, 0, 
201, 1041087516, 0.24842484295368195, 0.6897795796394348, -0.26905128359794617, 0.6245786547660828, 9.94571590423584, 0.15697592496871948, -1.2169016599655151, 4.610998153686523, 1.054768681526184, 2.7395448684692383, -0.620361328125, -0.35546875, -0.524658203125, 0, 
202, 1041095849, 0.24822404980659485, 0.6896215081214905, -0.2688894271850586, 0.6249026656150818, 9.876365661621094, 0.2045871764421463, -1.2150828838348389, 4.477675914764404, 2.3648858070373535, 2.9923319816589355, -0.618408203125, -0.357421875, -0.521728515625, 0, 
203, 1041104182, 0.2480277121067047, 0.6894047260284424, -0.26871395111083984, 0.6252952218055725, 9.840298652648926, 0.18411070108413696, -1.355600357055664, 4.606540679931641, 3.5954957008361816, 3.3094615936279297, -0.619873046875, -0.35888671875, -0.521240234375, 0, 
204, 1041112515, 0.24784184992313385, 0.6891188025474548, -0.2685053050518036, 0.6257734894752502, 9.75753116607666, 0.14919139444828033, -1.2383391857147217, 4.872417449951172, 5.143313884735107, 3.4205000400543213, -0.617919921875, -0.357421875, -0.524658203125, 0, 
205, 1041120848, 0.24765117466449738, 0.6888039708137512, -0.26830706000328064, 0.6262802481651306, 9.656251907348633, 0.2356872260570526, -0.9489453434944153, 4.837888717651367, 5.619865417480469, 3.79738712310791, -0.617919921875, -0.35498046875, -0.523681640625, 0, 
206, 1041129181, 0.24744176864624023, 0.6884874105453491, -0.26812970638275146, 0.6267868876457214, 9.56743049621582, 0.07204605638980865, -0.8198312520980835, 4.825107097625732, 5.482240200042725, 4.128169536590576, -0.615478515625, -0.3564453125, -0.525634765625, 0, 
207, 1041137514, 0.24719630181789398, 0.688207745552063, -0.2679421305656433, 0.6272711157798767, 9.687487602233887, 0.1535464972257614, -0.9102752804756165, 5.301608562469482, 4.8669352531433105, 4.168511867523193, -0.618408203125, -0.35595703125, -0.527587890625, 0, 
208, 1041145847, 0.24691008031368256, 0.6879208087921143, -0.26774147152900696, 0.6277840733528137, 9.756280899047852, 0.13422957062721252, -1.1113783121109009, 5.878159046173096, 5.083118438720703, 4.482593536376953, -0.619384765625, -0.35498046875, -0.529541015625, 0, 
209, 1041154180, 0.24663043022155762, 0.6875941753387451, -0.2674886882305145, 0.6283591389656067, 9.573108673095703, 0.022488731890916824, -0.8203881978988647, 6.3623456954956055, 6.225053310394287, 4.32716703414917, -0.614501953125, -0.353515625, -0.529541015625, 0, 
210, 1041162513, 0.24639084935188293, 0.687339186668396, -0.2672635316848755, 0.628827691078186, 9.497886657714844, 0.06753481179475784, -0.4954017698764801, 5.593765735626221, 4.640121936798096, 3.5802559852600098, -0.616455078125, -0.35595703125, -0.531982421875, 0, 
211, 1041170846, 0.24624261260032654, 0.6871075630187988, -0.2670954763889313, 0.6292102932929993, 9.606945037841797, -0.038236092776060104, -0.636297345161438, 4.0008416175842285, 3.783350706100464, 2.990974187850952, -0.618896484375, -0.35498046875, -0.530029296875, 0, 
212, 1041179179, 0.24615620076656342, 0.6870246529579163, -0.26692885160446167, 0.6294052004814148, 9.486062049865723, -0.2655183970928192, -0.19074654579162598, 3.2180442810058594, 0.9298990964889526, 1.2480791807174683, -0.620849609375, -0.3544921875, -0.530029296875, 0, 
213, 1041187512, 0.24612361192703247, 0.6871157288551331, -0.2667311429977417, 0.6294025778770447, 9.786767959594727, -0.05768134444952011, -0.9058793783187866, 2.843179941177368, -2.1265833377838135, -0.7802992463111877, -0.618408203125, -0.35693359375, -0.531982421875, 0, 
214, 1041195845, 0.24616380035877228, 0.6871854662895203, -0.26653602719306946, 0.6293933987617493, 9.583885192871094, 0.08415374159812927, -0.6209180355072021, 2.035998821258545, -1.7571238279342651, -1.3669934272766113, -0.616455078125, -0.35888671875, -0.529052734375, 0, 
215, 1041204178, 0.2462214082479477, 0.6873180866241455, -0.26641806960105896, 0.6292756795883179, 9.500096321105957, 0.12964676320552826, -0.4116644263267517, 1.0181145668029785, -3.516514301300049, -1.3512405157089233, -0.618408203125, -0.35498046875, -0.531005859375, 0, 
216, 1041212511, 0.24627718329429626, 0.6874192953109741, -0.2663503885269165, 0.6291720271110535, 9.743671417236328, 0.20961683988571167, -1.018470048904419, 0.5451477766036987, -3.296308994293213, -0.7315810322761536, -0.616943359375, -0.35888671875, -0.532958984375, 0, 
217, 1041220844, 0.24634216725826263, 0.6874371767044067, -0.2662963271141052, 0.6291500329971313, 9.686126708984375, 0.17466771602630615, -0.9289038777351379, 0.35993123054504395, -1.8075838088989258, -0.06725016981363297, -0.616943359375, -0.3564453125, -0.533447265625, 0, 
218, 1041229177, 0.24639521539211273, 0.6874300241470337, -0.2662659287452698, 0.6291499137878418, 9.710349082946777, 0.13073250651359558, -0.9161862134933472, 0.26113706827163696, -1.5174767971038818, 0.3903352916240692, -0.616943359375, -0.357421875, -0.531494140625, 0, 
219, 1041237510, 0.24646815657615662, 0.687390923500061, -0.2662208676338196, 0.629183292388916, 9.9326753616333, 0.1046963557600975, -1.229609727859497, 0.2171318680047989, -0.7926196455955505, 0.3486097455024719, -0.615478515625, -0.35791015625, -0.532470703125, 0, 
220, 1041245843, 0.24655650556087494, 0.6873094439506531, -0.26613444089889526, 0.629274308681488, 9.93460464477539, 0.06696491688489914, -1.1558350324630737, 0.4939192533493042, 0.3053472936153412, 0.1359347403049469, -0.616455078125, -0.35791015625, -0.535400390625, 0, 
221, 1041254176, 0.2466445416212082, 0.6872385144233704, -0.2659991681575775, 0.6293744444847107, 9.815145492553711, 0.007353122346103191, -0.9785518050193787, 0.9922186136245728, 0.4778079092502594, -0.2909905016422272, -0.617431640625, -0.357421875, -0.532470703125, 0, 
222, 1041262509, 0.24673889577388763, 0.6871795654296875, -0.2658379077911377, 0.6294699311256409, 9.775947570800781, 0.10364469140768051, -0.9570789933204651, 1.1767691373825073, 0.42932015657424927, -0.6907262802124023, -0.617431640625, -0.35791015625, -0.529052734375, 0, 
223, 1041270842, 0.24682745337486267, 0.6871172785758972, -0.265668660402298, 0.6295745968818665, 9.697087287902832, 0.09360925853252411, -0.7611340284347534, 1.3251780271530151, 0.5619507431983948, -0.6334785223007202, -0.616455078125, -0.35693359375, -0.533935546875, 0, 
224, 1041279175, 0.24691447615623474, 0.6870847940444946, -0.2654965817928314, 0.629648745059967, 9.749432563781738, 0.023632993921637535, -0.8774607181549072, 1.3510997295379639, 0.0085551543161273, -0.8978685140609741, -0.621826171875, -0.36083984375, -0.531982421875, 0, 
225, 1041287508, 0.24702675640583038, 0.6870765686035156, -0.2652856707572937, 0.6297024488449097, 9.810138702392578, 0.013698368333280087, -0.9263287782669067, 1.4613176584243774, -0.1584368497133255, -1.605615496635437, -0.616455078125, -0.36083984375, -0.531005859375, 0, 
226, 1041295841, 0.24710384011268616, 0.6871200799942017, -0.26504072546958923, 0.6297279596328735, 9.860844612121582, 0.03909745439887047, -0.8106893301010132, 2.156872272491455, -0.8983297348022461, -1.9411876201629639, -0.614501953125, -0.359375, -0.533447265625, 0, 
227, 1041304174, 0.2471570372581482, 0.6872127652168274, -0.26474347710609436, 0.629730761051178, 9.825209617614746, 0.03590283915400505, -1.020795464515686, 2.923224449157715, -1.434051275253296, -2.451371669769287, -0.617919921875, -0.357421875, -0.534423828125, 0, 
228, 1041312507, 0.24718141555786133, 0.6873181462287903, -0.26438671350479126, 0.6297560930252075, 9.72557544708252, 0.09219135344028473, -0.9885634779930115, 3.832632303237915, -1.2477589845657349, -2.7678873538970947, -0.615966796875, -0.35791015625, -0.532470703125, 0, 
229, 1041320840, 0.24717238545417786, 0.6874212026596069, -0.26403114199638367, 0.6297963857650757, 9.696794509887695, 0.17117197811603546, -0.7581565380096436, 4.189515113830566, -1.1967355012893677, -2.3721470832824707, -0.615966796875, -0.361328125, -0.530517578125, 0, 
230, 1041329173, 0.2471255660057068, 0.6875379681587219, -0.263671875, 0.6298378109931946, 9.673831939697266, 0.13618505001068115, -0.9068419933319092, 4.623958587646484, -1.444732427597046, -2.1626484394073486, -0.617919921875, -0.3623046875, -0.531982421875, 0, 
231, 1041337506, 0.2470870167016983, 0.6876344084739685, -0.2632807791233063, 0.6299112439155579, 9.68602466583252, 0.13178913295269012, -0.9870780110359192, 4.871365547180176, -0.8134183883666992, -2.316359043121338, -0.614013671875, -0.36376953125, -0.532470703125, 0, 
232, 1041345839, 0.24700555205345154, 0.6877211332321167, -0.26287806034088135, 0.630016565322876, 9.579591751098633, 0.20070838928222656, -0.8151964545249939, 5.459341049194336, -0.5566357970237732, -1.9462850093841553, -0.614501953125, -0.3642578125, -0.533935546875, 0, 
233, 1041354172, 0.24687516689300537, 0.6878139972686768, -0.2624364197254181, 0.6301504969596863, 9.436081886291504, 0.1459481567144394, -0.566411554813385, 6.383272171020508, -0.36944690346717834, -1.7805862426757812, -0.614501953125, -0.365234375, -0.535888671875, 0, 
234, 1041362505, 0.2467249631881714, 0.6879931092262268, -0.2619689106941223, 0.6302083134651184, 9.46855354309082, -0.03284921497106552, -0.5802306532859802, 6.81228494644165, -1.8339920043945312, -2.4596452713012695, -0.616455078125, -0.36572265625, -0.532958984375, 0, 
235, 1041370838, 0.24681314826011658, 0.6881369948387146, -0.26162955164909363, 0.6301577687263489, 9.644920349121094, 0.21052241325378418, -0.5470186471939087, 2.9398486614227295, -2.119206666946411, -3.5139529705047607, -0.614501953125, -0.36767578125, -0.530517578125, 0, 
236, 1041379171, 0.2469780445098877, 0.6883129477500916, -0.26140016317367554, 0.6299960017204285, 9.547079086303711, 0.14010000228881836, -0.3026368021965027, 0.9657335877418518, -3.5602121353149414, -3.6705074310302734, -0.614013671875, -0.36669921875, -0.531005859375, 0, 
237, 1041387504, 0.2472580224275589, 0.6885185241699219, -0.2612491250038147, 0.6297242045402527, 9.58053970336914, 0.2210996299982071, -0.7216482162475586, -1.0954310894012451, -4.695306777954102, -4.366445541381836, -0.614013671875, -0.36669921875, -0.531982421875, 0, 
238, 1041395837, 0.2476704865694046, 0.688645601272583, -0.2611595094203949, 0.629460334777832, 9.534782409667969, 0.18192990124225616, -0.6530612111091614, -3.1206207275390625, -3.6889493465423584, -4.662392616271973, -0.612548828125, -0.36865234375, -0.533447265625, 0, 
239, 1041404170, 0.24814119935035706, 0.6888136863708496, -0.26113709807395935, 0.6291000247001648, 9.484103202819824, 0.17497606575489044, -0.46176573634147644, -4.459168910980225, -4.964973449707031, -4.970250129699707, -0.614013671875, -0.37109375, -0.532470703125, 0, 
240, 1041412503, 0.24870747327804565, 0.6889947056770325, -0.26120248436927795, 0.6286510229110718, 9.577515602111816, 0.23189391195774078, -0.6306670904159546, -6.401574611663818, -5.884268760681152, -5.350135326385498, -0.615966796875, -0.36865234375, -0.531005859375, 0, 
241, 1041420836, 0.24940547347068787, 0.6891806721687317, -0.2613446116447449, 0.6281112432479858, 9.525604248046875, 0.16389960050582886, -0.6476990580558777, -8.618537902832031, -6.565812587738037, -6.053246021270752, -0.613037109375, -0.3740234375, -0.531982421875, 0, 
242, 1041429169, 0.2503090798854828, 0.6893950700759888, -0.26153573393821716, 0.6274365186691284, 9.502985000610352, 0.053893327713012695, -0.6558140516281128, -11.379343032836914, -7.529062747955322, -7.966553211212158, -0.613037109375, -0.3701171875, -0.531982421875, 0, 
243, 1041437502, 0.25133049488067627, 0.6897090077400208, -0.2617693543434143, 0.6265851855278015, 9.621562957763672, 0.041606415063142776, -0.7887006402015686, -13.15382194519043, -9.778172492980957, -9.509325981140137, -0.613037109375, -0.37451171875, -0.531005859375, 0, 
244, 1041445835, 0.25242674350738525, 0.6900153756141663, -0.26198816299438477, 0.6257151961326599, 9.854118347167969, 0.19211150705814362, -0.9093997478485107, -13.831753730773926, -9.57651138305664, -10.368529319763184, -0.614013671875, -0.37646484375, -0.528564453125, 0, 
245, 1041454168, 0.2533907890319824, 0.6904028058052063, -0.26215434074401855, 0.6248278021812439, 10.151588439941406, 0.10900557041168213, -1.005687952041626, -11.902517318725586, -10.72600269317627, -10.043997764587402, -0.614990234375, -0.375, -0.529541015625, 0, 
246, 1041462501, 0.25419503450393677, 0.6908406615257263, -0.2621116042137146, 0.624034583568573, 10.433298110961914, 0.06691121309995651, -1.8213920593261719, -8.078182220458984, -10.119791030883789, -10.547856330871582, -0.611572265625, -0.37744140625, -0.527099609375, 0, 
247, 1041470834, 0.2550089657306671, 0.691069483757019, -0.2619032859802246, 0.6235364675521851, 10.07878303527832, 0.4024781882762909, -1.6330170631408691, -6.414611339569092, -4.899682998657227, -10.379387855529785, -0.614013671875, -0.3759765625, -0.525634765625, 0, 
248, 1041479167, 0.25576624274253845, 0.6912234425544739, -0.2617134749889374, 0.6231351494789124, 9.400606155395508, 0.571001410484314, -0.5789250135421753, -5.951967239379883, -3.6164357662200928, -9.147600173950195, -0.611572265625, -0.37744140625, -0.526611328125, 0, 
249, 1041487500, 0.2564491331577301, 0.6914008855819702, -0.2616031765937805, 0.6227042078971863, 9.31888198852539, 0.46908968687057495, -0.6034238934516907, -5.946512222290039, -4.633935928344727, -7.908152103424072, -0.608642578125, -0.37939453125, -0.527099609375, 0, 
250, 1041495833, 0.25704583525657654, 0.6915882229804993, -0.26154568791389465, 0.6222741603851318, 9.406112670898438, 0.3983902037143707, -0.5695181488990784, -5.542652606964111, -5.218606472015381, -6.734738826751709, -0.611572265625, -0.38330078125, -0.528564453125, 0, 
251, 1041504166, 0.2575204372406006, 0.6918527483940125, -0.26145386695861816, 0.6218220591545105, 9.677078247070312, 0.23579438030719757, -0.8010650277137756, -3.894631862640381, -6.396143436431885, -6.334310531616211, -0.61328125, -0.3837890625, -0.524658203125, 0, 
252, 1041512499, 0.2578982412815094, 0.6921389102935791, -0.26129409670829773, 0.621414065361023, 9.837242126464844, 0.38299012184143066, -1.1179279088974, -2.158139944076538, -6.280725479125977, -6.111799716949463, -0.610595703125, -0.3818359375, -0.526123046875, 0, 
253, 1041520832, 0.25824233889579773, 0.6923859119415283, -0.261120080947876, 0.6210692524909973, 9.732707977294922, 0.42372164130210876, -0.9716094732284546, -1.6253899335861206, -5.4046430587768555, -5.55914831161499, -0.61083984375, -0.38671875, -0.524169921875, 0, 
254, 1041529165, 0.258551687002182, 0.6925987601280212, -0.2609381377696991, 0.6207796931266785, 9.815743446350098, 0.48280641436576843, -1.0937902927398682, -1.1519105434417725, -4.692412376403809, -5.055673599243164, -0.611328125, -0.38671875, -0.524169921875, 0, 
255, 1041537498, 0.25888147950172424, 0.692670464515686, -0.26074889302253723, 0.6206414103507996, 9.765243530273438, 0.535533607006073, -1.3066717386245728, -1.2409969568252563, -1.9398813247680664, -4.214655876159668, -0.6103515625, -0.388671875, -0.525146484375, 0, 
256, 1041545831, 0.2592184543609619, 0.6926510334014893, -0.2605726718902588, 0.6205964684486389, 9.395339965820312, 0.4975196123123169, -0.8351389765739441, -1.412355899810791, -0.3022095263004303, -3.533752202987671, -0.61083984375, -0.38720703125, -0.526611328125, 0, 
257, 1041554164, 0.2594924867153168, 0.6926660537719727, -0.2604633867740631, 0.6205111145973206, 9.26014232635498, 0.4882342219352722, -0.42571455240249634, -1.4035191535949707, -1.436202883720398, -2.586179733276367, -0.60986328125, -0.39013671875, -0.523193359375, 0, 
258, 1041562497, 0.25971049070358276, 0.6927622556686401, -0.26043716073036194, 0.6203235387802124, 9.408008575439453, 0.4836186170578003, -0.6369274258613586, -1.657996654510498, -3.6083927154541016, -2.0122413635253906, -0.6083984375, -0.38720703125, -0.526611328125, 0, 
259, 1041570830, 0.259919673204422, 0.6928291916847229, -0.2604585289955139, 0.6201522946357727, 9.326020240783691, 0.5133689045906067, -0.6591706871986389, -2.0220518112182617, -3.3945648670196533, -1.2809550762176514, -0.609375, -0.3896484375, -0.525146484375, 0, 
260, 1041579163, 0.26005926728248596, 0.6929675340652466, -0.26056861877441406, 0.6198927760124207, 9.203205108642578, 0.49038946628570557, -0.4572647213935852, -2.1811931133270264, -5.419626235961914, -0.4533079266548157, -0.60986328125, -0.3896484375, -0.524169921875, 0, 
261, 1041587496, 0.2601490616798401, 0.6931676268577576, -0.2607402205467224, 0.6195590496063232, 9.349074363708496, 0.42177343368530273, -0.499257355928421, -2.2711758613586426, -7.047027111053467, 0.11178053170442581, -0.61181640625, -0.38623046875, -0.522705078125, 0, 
262, 1041595829, 0.26022347807884216, 0.6933997273445129, -0.2609691917896271, 0.6191715598106384, 9.548900604248047, 0.4913936257362366, -0.8829185962677002, -2.6966025829315186, -8.097800254821777, 0.44281888008117676, -0.60888671875, -0.38671875, -0.525146484375, 0, 
263, 1041604162, 0.2603325843811035, 0.6935629844665527, -0.2612306475639343, 0.6188326478004456, 9.681387901306152, 0.5348471403121948, -1.1025278568267822, -3.3694379329681396, -7.035731315612793, 0.9176045656204224, -0.60888671875, -0.390625, -0.522216796875, 0, 
264, 1041612495, 0.2604897618293762, 0.693634033203125, -0.2615114450454712, 0.6185681819915771, 9.692164421081543, 0.47933265566825867, -1.1891411542892456, -4.061918258666992, -5.443985462188721, 1.2497440576553345, -0.6103515625, -0.38818359375, -0.521240234375, 0, 
265, 1041620828, 0.2606455385684967, 0.6936702728271484, -0.2617834508419037, 0.6183468699455261, 9.559630393981934, 0.44451704621315, -0.9302153587341309, -3.9400203227996826, -4.7034525871276855, 1.5009173154830933, -0.61279296875, -0.3876953125, -0.521728515625, 0, 
266, 1041629161, 0.26075997948646545, 0.6937057375907898, -0.26208704710006714, 0.6181301474571228, 9.552021026611328, 0.4775853157043457, -0.8797461986541748, -3.8011395931243896, -4.919559478759766, 2.1286966800689697, -0.61181640625, -0.38720703125, -0.522216796875, 0, 
267, 1041637494, 0.2608649730682373, 0.6937199234962463, -0.2624208629131317, 0.617928147315979, 9.498729705810547, 0.5365251898765564, -0.8811209797859192, -3.990095853805542, -4.73590612411499, 2.6713342666625977, -0.6083984375, -0.38525390625, -0.522216796875, 0, 
268, 1041645827, 0.2609836161136627, 0.6937021613121033, -0.2627958655357361, 0.6177386045455933, 9.519865036010742, 0.49724504351615906, -0.8530901074409485, -4.543619632720947, -4.449256420135498, 3.0641283988952637, -0.6083984375, -0.388671875, -0.521728515625, 0, 
269, 1041654160, 0.2611367404460907, 0.6936701536178589, -0.2632056474685669, 0.6175353527069092, 9.553749084472656, 0.3761986494064331, -0.6576018929481506, -5.260639190673828, -4.454251766204834, 3.1488094329833984, -0.60986328125, -0.38525390625, -0.519287109375, 0, 
270, 1041662493, 0.26126599311828613, 0.6937411427497864, -0.26363521814346313, 0.6172177791595459, 9.561281204223633, 0.349370539188385, -0.7002855539321899, -5.251623153686523, -6.582590103149414, 2.7143406867980957, -0.61083984375, -0.3876953125, -0.521728515625, 0, 
271, 1041670826, 0.2613992691040039, 0.6938592791557312, -0.2640765905380249, 0.6168397665023804, 9.783934593200684, 0.3572600483894348, -1.0084030628204346, -5.436147689819336, -7.583619117736816, 2.44638991355896, -0.611328125, -0.38671875, -0.521240234375, 0, 
272, 1041679159, 0.2616237998008728, 0.6939944624900818, -0.2645132839679718, 0.616405189037323, 9.822212219238281, 0.2803071141242981, -1.045676589012146, -6.413690090179443, -7.923367023468018, 1.3207981586456299, -0.611328125, -0.38623046875, -0.518310546875, 0, 
273, 1041687492, 0.2619306147098541, 0.694210410118103, -0.26491081714630127, 0.6158607006072998, 9.686942100524902, 0.18132741749286652, -0.908955454826355, -6.974668025970459, -9.211840629577637, -0.39636752009391785, -0.60986328125, -0.3857421875, -0.520751953125, 0, 
274, 1041695825, 0.26223012804985046, 0.6945594549179077, -0.2652626633644104, 0.6151881217956543, 9.674641609191895, 0.33618709444999695, -0.944936990737915, -6.508001327514648, -11.428496360778809, -1.7598389387130737, -0.6103515625, -0.38671875, -0.518798828125, 0, 
275, 1041704158, 0.2624809443950653, 0.6949687004089355, -0.26558297872543335, 0.6144800186157227, 9.567395210266113, 0.42698535323143005, -0.596881091594696, -5.684580326080322, -12.337059020996094, -1.955147385597229, -0.61083984375, -0.38232421875, -0.517333984375, 0, 
276, 1041712491, 0.26258841156959534, 0.6953997611999512, -0.2658798098564148, 0.6138177514076233, 9.915800094604492, 0.6268964409828186, -1.6587239503860474, -3.874652862548828, -12.525373458862305, -0.9233803153038025, -0.61328125, -0.38525390625, -0.515869140625, 0, 
277, 1041720824, 0.2627188265323639, 0.695518970489502, -0.266109436750412, 0.6135274171829224, 9.699298858642578, 0.5526772737503052, -1.4315826892852783, -3.289828062057495, -6.007678031921387, 0.7648153901100159, -0.61474609375, -0.38623046875, -0.513916015625, 0, 
278, 1041729157, 0.26274046301841736, 0.6956393718719482, -0.26633936166763306, 0.613281786441803, 9.697495460510254, 0.5649974346160889, -1.237255573272705, -2.086061716079712, -5.992283344268799, 1.7997329235076904, -0.61474609375, -0.38525390625, -0.511962890625, 0, 
279, 1041737490, 0.2627103328704834, 0.6956442594528198, -0.266523540019989, 0.6132091283798218, 9.752117156982422, 0.5738305449485779, -1.576722264289856, -0.985289990901947, -3.3826801776885986, 2.8887736797332764, -0.6123046875, -0.38623046875, -0.514404296875, 0, 
280, 1041745823, 0.2626186013221741, 0.6955526471138, -0.26667338609695435, 0.6132871508598328, 9.61828327178955, 0.43662163615226746, -1.173275351524353, 0.09364563971757889, -1.2340041399002075, 3.936549186706543, -0.61279296875, -0.3828125, -0.514404296875, 0, 
281, 1041754156, 0.26241829991340637, 0.6954848766326904, -0.26678213477134705, 0.6134025454521179, 9.678549766540527, 0.39311859011650085, -0.9097396731376648, 1.702757477760315, -1.3214510679244995, 4.548882961273193, -0.61181640625, -0.3837890625, -0.512451171875, 0, 
282, 1041762489, 0.2621060013771057, 0.6954822540283203, -0.2668551206588745, 0.6135071516036987, 9.70251178741455, 0.36311039328575134, -0.8156518936157227, 3.270503044128418, -2.260674238204956, 4.832459449768066, -0.6123046875, -0.3837890625, -0.515380859375, 0, 
283, 1041770822, 0.2617681920528412, 0.6954932808876038, -0.26693201065063477, 0.6136054396629333, 9.713967323303223, 0.47423258423805237, -1.079869031906128, 3.508253812789917, -2.5395617485046387, 5.0536627769470215, -0.61376953125, -0.38232421875, -0.517822265625, 0, 
284, 1041779155, 0.26156488060951233, 0.6954490542411804, -0.2670840620994568, 0.6136760115623474, 9.697251319885254, 0.46589913964271545, -1.0470962524414062, 1.2857834100723267, -2.1199493408203125, 4.6978302001953125, -0.61328125, -0.38134765625, -0.510986328125, 0, 
285, 1041787488, 0.2614293396472931, 0.6954472661018372, -0.267306387424469, 0.6136390566825867, 9.623210906982422, 0.3117606043815613, -0.6353658437728882, -0.19532135128974915, -3.5064220428466797, 4.300015449523926, -0.61279296875, -0.3828125, -0.513916015625, 0, 
286, 1041795821, 0.26129940152168274, 0.6955814361572266, -0.2675623595714569, 0.6134307384490967, 9.770029067993164, 0.3491038978099823, -0.8247479796409607, -0.6774581074714661, -6.398141860961914, 3.411560297012329, -0.6142578125, -0.380859375, -0.513427734375, 0, 
287, 1041804154, 0.2612103819847107, 0.6957275867462158, -0.26782670617103577, 0.6131876111030579, 9.78488826751709, 0.4341321885585785, -1.3165706396102905, -1.2195322513580322, -6.7077412605285645, 3.024580240249634, -0.61669921875, -0.38330078125, -0.510986328125, 0, 
288, 1041812487, 0.26115331053733826, 0.6958296895027161, -0.26807472109794617, 0.612987756729126, 9.558899879455566, 0.4201468825340271, -1.3215699195861816, -1.390302300453186, -5.7497687339782715, 2.871227502822876, -0.61328125, -0.3798828125, -0.515380859375, 0, 
289, 1041820820, 0.26111289858818054, 0.6959145069122314, -0.2683100402355194, 0.6128055453300476, 9.545415878295898, 0.3612960875034332, -1.2005324363708496, -1.436536192893982, -5.322882175445557, 2.7819881439208984, -0.6142578125, -0.37939453125, -0.511962890625, 0, 
290, 1041829153, 0.26102879643440247, 0.6960128545761108, -0.2685049772262573, 0.6126442551612854, 9.57485580444336, 0.360821932554245, -0.9479076862335205, -0.5554831027984619, -5.257949352264404, 2.7440531253814697, -0.615234375, -0.38037109375, -0.510498046875, 0, 
291, 1041837486, 0.2608501613140106, 0.6961463689804077, -0.2686748504638672, 0.6124939322471619, 9.52700424194336, 0.33550605177879333, -0.9334119558334351, 0.7273162007331848, -5.702945232391357, 3.253955602645874, -0.61474609375, -0.37841796875, -0.507568359375, 0, 
292, 1041845819, 0.260560542345047, 0.696318507194519, -0.2688024342060089, 0.6123655438423157, 9.610711097717285, 0.29831698536872864, -0.8702458739280701, 2.3640146255493164, -6.080883979797363, 3.676206350326538, -0.61474609375, -0.37939453125, -0.507080078125, 0, 
293, 1041854152, 0.26016080379486084, 0.6965786218643188, -0.26889851689338684, 0.6121975779533386, 9.777862548828125, 0.2790371775627136, -0.9306089282035828, 3.859527826309204, -7.492690086364746, 3.8784310817718506, -0.6181640625, -0.37890625, -0.507080078125, 0, 
294, 1041862485, 0.2596895694732666, 0.6968729496002197, -0.2689449191093445, 0.6120424270629883, 9.916242599487305, 0.29965314269065857, -1.2244410514831543, 5.126766204833984, -7.748422145843506, 3.8803768157958984, -0.6171875, -0.38037109375, -0.506103515625, 0, 
295, 1041870818, 0.2592092454433441, 0.6971883177757263, -0.2689610719680786, 0.6118796467781067, 9.789664268493652, 0.32185715436935425, -1.0685440301895142, 5.519510269165039, -7.920652866363525, 3.6031036376953125, -0.6181640625, -0.3779296875, -0.507080078125, 0, 
296, 1041879151, 0.25872862339019775, 0.6975250840187073, -0.2689937353134155, 0.6116848587989807, 9.656678199768066, 0.3976393938064575, -1.0828008651733398, 5.337392807006836, -8.469541549682617, 3.530000925064087, -0.61865234375, -0.3779296875, -0.503662109375, 0, 
297, 1041887484, 0.25824621319770813, 0.6978535652160645, -0.2690471112728119, 0.6114906072616577, 9.776898384094238, 0.3669106662273407, -1.3358912467956543, 5.15717077255249, -8.47430419921875, 3.817725658416748, -0.61669921875, -0.3779296875, -0.506591796875, 0, 
298, 1041895817, 0.2578158378601074, 0.6981222629547119, -0.2690697908401489, 0.6113556027412415, 9.87515640258789, 0.35973772406578064, -1.4768469333648682, 4.917984962463379, -7.101381301879883, 3.4752633571624756, -0.61572265625, -0.37890625, -0.504150390625, 0, 
299, 1041904150, 0.2574177086353302, 0.6983593106269836, -0.2691071033477783, 0.6112360954284668, 9.61594009399414, 0.4122503697872162, -1.1560039520263672, 4.4368720054626465, -6.617757320404053, 3.5606346130371094, -0.620361328125, -0.3779296875, -0.502197265625, 0, 
300, 1041912483, 0.25703859329223633, 0.6986086964607239, -0.2692016661167145, 0.6110690832138062, 9.375800132751465, 0.46527859568595886, -0.8058948516845703, 3.6329946517944336, -7.312723159790039, 3.692676067352295, -0.620361328125, -0.37890625, -0.501220703125, 0, 
301, 1041920816, 0.2566320300102234, 0.6989163160324097, -0.26938360929489136, 0.6108078360557556, 9.315587997436523, 0.42680713534355164, -0.6623603701591492, 3.0253491401672363, -9.116914749145508, 4.2583417892456055, -0.61669921875, -0.37646484375, -0.502685546875, 0, 
302, 1041929149, 0.25618433952331543, 0.6993120908737183, -0.2696422040462494, 0.6104287505149841, 9.368947982788086, 0.33977389335632324, -0.6727027297019958, 2.646130084991455, -11.414280891418457, 4.553802013397217, -0.620361328125, -0.3759765625, -0.497314453125, 0, 
303, 1041937482, 0.2557596266269684, 0.6997618675231934, -0.2699016332626343, 0.6099764108657837, 9.544534683227539, 0.2772703766822815, -1.0977411270141602, 2.3421404361724854, -12.487824440002441, 3.955325126647949, -0.619873046875, -0.37548828125, -0.497802734375, 0, 
304, 1041945815, 0.25537624955177307, 0.7002810835838318, -0.27014490962028503, 0.6094332337379456, 9.66108226776123, 0.24468810856342316, -1.3938356637954712, 1.9831314086914062, -13.735444068908691, 2.8304758071899414, -0.618896484375, -0.37548828125, -0.494873046875, 0, 
305, 1041954148, 0.2550423741340637, 0.7007966041564941, -0.2703965902328491, 0.6088685989379883, 9.63914680480957, 0.41534239053726196, -1.392410397529602, 1.3484361171722412, -13.754936218261719, 2.480841636657715, -0.620361328125, -0.3759765625, -0.49365234375, 0, 
306, 1041962481, 0.2547459900379181, 0.7013345956802368, -0.27067434787750244, 0.6082496047019958, 9.509525299072266, 0.3214363753795624, -1.1577410697937012, 0.6398179531097412, -14.420750617980957, 2.0982158184051514, -0.623779296875, -0.373046875, -0.48876953125, 0, 
307, 1041970814, 0.2544763684272766, 0.7019541263580322, -0.27096813917160034, 0.6075165271759033, 9.528376579284668, 0.290261834859848, -1.1494547128677368, 0.11408582329750061, -16.15890884399414, 1.370720386505127, -0.618408203125, -0.375244140625, -0.49169921875, 0, 
308, 1041979147, 0.25421181321144104, 0.7026458978652954, -0.2712811827659607, 0.6066873073577881, 9.61549186706543, 0.35162702202796936, -1.2524142265319824, -0.20600253343582153, -17.739974975585938, 0.8645830750465393, -0.622802734375, -0.37158203125, -0.484375, 0, 
309, 1041987480, 0.25396114587783813, 0.7034181952476501, -0.2716182470321655, 0.605745792388916, 9.627971649169922, 0.3638138771057129, -1.2293504476547241, -0.6757678389549255, -19.52818489074707, 0.33165326714515686, -0.618896484375, -0.374267578125, -0.484375, 0, 
310, 1041995813, 0.2537001967430115, 0.7042269706726074, -0.2719764709472656, 0.6047539710998535, 9.630794525146484, 0.36934760212898254, -1.2751171588897705, -0.8166974186897278, -20.43216323852539, 0.26633691787719727, -0.621337890625, -0.374755859375, -0.47998046875, 0, 
311, 1042004146, 0.2534080743789673, 0.7050232887268066, -0.2723071277141571, 0.6037991046905518, 9.763707160949707, 0.3582081198692322, -1.4400616884231567, -0.18297533690929413, -19.990392684936523, 0.478525310754776, -0.623291015625, -0.37353515625, -0.4814453125, 0, 
312, 1042012479, 0.2530664801597595, 0.7057659029960632, -0.2725837826728821, 0.6029495000839233, 9.978564262390137, 0.36702656745910645, -1.4884315729141235, 0.9443715214729309, -18.522235870361328, 0.8881482481956482, -0.6259765625, -0.37646484375, -0.47607421875, 0, 
313, 1042020812, 0.2527264654636383, 0.7063780426979065, -0.27279555797576904, 0.6022788882255554, 9.996869087219238, 0.08056380599737167, -2.0718436241149902, 1.6931012868881226, -15.470169067382812, 1.4028918743133545, -0.62353515625, -0.373779296875, -0.47509765625, 0, 
314, 1042029145, 0.25248390436172485, 0.7068348526954651, -0.2729291021823883, 0.6017839908599854, 10.004265785217285, 0.27472740411758423, -2.4323267936706543, 1.505784273147583, -11.839810371398926, 0.9843552708625793, -0.6240234375, -0.376220703125, -0.47509765625, 0, 
315, 1042037478, 0.2523115575313568, 0.7070860266685486, -0.2729860842227936, 0.6015352606773376, 10.047468185424805, 0.3946742117404938, -2.3840670585632324, 1.6723792552947998, -7.213878631591797, 1.3322733640670776, -0.6240234375, -0.372314453125, -0.47216796875, 0, 
316, 1042045811, 0.25223657488822937, 0.7071055173873901, -0.27298086881637573, 0.6015462875366211, 10.009303092956543, 0.3450329899787903, -2.5258476734161377, 1.4029430150985718, -2.1930012702941895, 1.6463295221328735, -0.62548828125, -0.376220703125, -0.4697265625, 0, 
317, 1042054144, 0.25225669145584106, 0.7069168090820312, -0.2729351222515106, 0.6017802953720093, 9.911676406860352, 0.46540719270706177, -2.2668919563293457, 0.9373785853385925, 2.2034902572631836, 2.06535267829895, -0.625, -0.372314453125, -0.47265625, 0, 
318, 1042062477, 0.25231558084487915, 0.7066015601158142, -0.2728895843029022, 0.6021464467048645, 9.756782531738281, 0.38316962122917175, -1.7286354303359985, 0.6093114614486694, 4.671063423156738, 2.634552240371704, -0.62158203125, -0.373779296875, -0.47412109375, 0, 
319, 1042070810, 0.25237107276916504, 0.7062312960624695, -0.2728330194950104, 0.6025829911231995, 9.582345962524414, 0.3527996838092804, -1.4731541872024536, 0.8153267502784729, 5.847627639770508, 3.0532679557800293, -0.6240234375, -0.373779296875, -0.47509765625, 0, 
320, 1042079143, 0.25238582491874695, 0.7058485746383667, -0.27278104424476624, 0.6030486822128296, 9.4352445602417, 0.34767675399780273, -1.0121488571166992, 1.2285354137420654, 6.05446195602417, 3.5359935760498047, -0.625, -0.37255859375, -0.4775390625, 0, 
321, 1042087476, 0.2523484230041504, 0.7054936289787292, -0.2727705240249634, 0.603484034538269, 9.576338768005371, 0.36677834391593933, -1.1070371866226196, 1.3807352781295776, 5.202481269836426, 4.208751201629639, -0.62353515625, -0.371826171875, -0.4775390625, 0, 
322, 1042095809, 0.2523031234741211, 0.7050788402557373, -0.2727624177932739, 0.6039911508560181, 9.732702255249023, 0.3008316159248352, -1.6140589714050293, 1.4931564331054688, 6.345364093780518, 4.725110054016113, -0.623046875, -0.372314453125, -0.47607421875, 0, 
323, 1042104142, 0.2522830665111542, 0.704576849937439, -0.27274611592292786, 0.6045923829078674, 9.680015563964844, 0.34598538279533386, -1.6221872568130493, 1.3731790781021118, 8.11458969116211, 5.13703727722168, -0.626708984375, -0.369140625, -0.47900390625, 0, 
324, 1042112475, 0.25226572155952454, 0.7039734125137329, -0.2727241814136505, 0.6053121089935303, 9.751504898071289, 0.45862704515457153, -1.7717314958572388, 1.4796065092086792, 10.125385284423828, 5.802624225616455, -0.624267578125, -0.37158203125, -0.4794921875, 0, 
325, 1042120808, 0.252237468957901, 0.7031949162483215, -0.27269139885902405, 0.6062427759170532, 9.792746543884277, 0.4939765930175781, -1.797344446182251, 1.864537239074707, 13.63392162322998, 7.225213050842285, -0.623779296875, -0.37255859375, -0.48583984375, 0, 
326, 1042129141, 0.2521868944168091, 0.7022343277931213, -0.27264440059661865, 0.6073973774909973, 9.83730697631836, 0.4608500599861145, -1.763754963874817, 2.4018476009368896, 17.272247314453125, 8.68497085571289, -0.622314453125, -0.367919921875, -0.4853515625, 0, 
327, 1042137474, 0.2521151602268219, 0.701088547706604, -0.2725610136985779, 0.6087865829467773, 9.97698974609375, 0.4190080463886261, -2.03902530670166, 3.1541125774383545, 21.143510818481445, 10.066577911376953, -0.622802734375, -0.36865234375, -0.48681640625, 0, 
328, 1042145807, 0.25202780961990356, 0.6998034715652466, -0.2724290192127228, 0.6103584170341492, 9.651729583740234, 0.19381509721279144, -1.7844154834747314, 3.90632700920105, 24.16771125793457, 10.836466789245605, -0.622314453125, -0.3671875, -0.4931640625, 0, 
329, 1042154140, 0.2519347369670868, 0.6986385583877563, -0.27229049801826477, 0.6117913722991943, 9.451013565063477, 0.19268272817134857, -0.8249412178993225, 3.9196202754974365, 21.84173011779785, 9.939070701599121, -0.62353515625, -0.3642578125, -0.498779296875, 0, 
330, 1042162473, 0.2518911063671112, 0.6976091861724854, -0.2722283899784088, 0.6130103468894958, 9.576614379882812, 0.13612987101078033, -0.7292487621307373, 2.464115858078003, 18.547428131103516, 8.95809555053711, -0.61962890625, -0.36376953125, -0.500732421875, 0, 
331, 1042170806, 0.2518446147441864, 0.6967463493347168, -0.2721747159957886, 0.6140337586402893, 9.576016426086426, -0.09519872814416885, -0.5667645931243896, 2.268627882003784, 15.24365234375, 7.813625335693359, -0.6220703125, -0.36474609375, -0.500244140625, 0, 
332, 1042179139, 0.2518044412136078, 0.6960627436637878, -0.2721126675605774, 0.6148526668548584, 9.791301727294922, 0.02117311768233776, -0.8842167854309082, 2.130873918533325, 11.809060096740723, 6.250693321228027, -0.62255859375, -0.361328125, -0.505615234375, 0, 
333, 1042187472, 0.251787930727005, 0.6954509615898132, -0.27204206585884094, 0.6155826449394226, 9.81006908416748, 0.08909689635038376, -1.065554141998291, 1.8973491191864014, 10.480502128601074, 5.441744804382324, -0.6201171875, -0.359375, -0.503173828125, 0, 
334, 1042195805, 0.2517997920513153, 0.6948983669281006, -0.2719779908657074, 0.6162296533584595, 9.66667652130127, 0.11600162088871002, -1.015934944152832, 1.459447979927063, 9.257394790649414, 4.705079555511475, -0.62060546875, -0.36181640625, -0.506103515625, 0, 
335, 1042204138, 0.2518360912799835, 0.6944174766540527, -0.27192258834838867, 0.6167810559272766, 9.642903327941895, 0.19637730717658997, -0.9766772985458374, 1.0492870807647705, 7.808295249938965, 4.029913425445557, -0.619140625, -0.3603515625, -0.507080078125, 0, 
336, 1042212471, 0.2518875300884247, 0.6939579844474792, -0.27190276980400085, 0.6172856688499451, 9.741866111755371, 0.27368804812431335, -1.339570164680481, 0.49717235565185547, 7.101650238037109, 3.9520976543426514, -0.6181640625, -0.359375, -0.509033203125, 0, 
337, 1042220804, 0.2519591152667999, 0.6934620141983032, -0.27189013361930847, 0.6178191304206848, 9.600768089294434, 0.17608889937400818, -1.166028618812561, 0.2292986363172531, 7.749587535858154, 4.130602836608887, -0.62158203125, -0.3603515625, -0.510498046875, 0, 
338, 1042229137, 0.2520059049129486, 0.6930521130561829, -0.2718988358974457, 0.6182560920715332, 9.55652141571045, 0.18751415610313416, -0.8202338814735413, 0.21636344492435455, 5.919987678527832, 3.8437230587005615, -0.6220703125, -0.3603515625, -0.510498046875, 0, 
339, 1042237470, 0.2520543932914734, 0.6926836371421814, -0.2719361186027527, 0.6186325550079346, 9.704492568969727, 0.20285573601722717, -1.0768024921417236, -0.11791513115167618, 4.910197734832764, 3.7867064476013184, -0.61669921875, -0.357666015625, -0.513916015625, 0, 
340, 1042245803, 0.2521277964115143, 0.6922931671142578, -0.27197927236557007, 0.6190206408500671, 9.799337387084961, 0.18159635365009308, -1.2445460557937622, -0.4460334777832031, 5.266977787017822, 3.702153444290161, -0.61962890625, -0.357421875, -0.513916015625, 0, 
341, 1042254136, 0.252197265625, 0.6919008493423462, -0.27201128005981445, 0.6194170117378235, 9.759986877441406, 0.16128279268741608, -1.0586225986480713, -0.28174373507499695, 5.3999924659729, 3.71488356590271, -0.617431640625, -0.3583984375, -0.518798828125, 0, 
342, 1042262469, 0.2522437274456024, 0.6915115118026733, -0.27202361822128296, 0.6198273301124573, 9.831875801086426, 0.14046788215637207, -1.1596821546554565, 0.16119037568569183, 5.476528167724609, 3.71319317817688, -0.6220703125, -0.3603515625, -0.515869140625, 0, 
343, 1042270802, 0.252262681722641, 0.6910936832427979, -0.27199649810791016, 0.6202971935272217, 9.786382675170898, 0.17806600034236908, -1.030113697052002, 0.8872259259223938, 6.332889556884766, 3.932476758956909, -0.618896484375, -0.35595703125, -0.517822265625, 0, 
344, 1042279135, 0.25226208567619324, 0.6906341314315796, -0.27197107672691345, 0.6208202242851257, 9.78136157989502, 0.2601372301578522, -1.0941369533538818, 1.1076107025146484, 7.1002912521362305, 4.40897798538208, -0.620849609375, -0.3544921875, -0.518310546875, 0, 
345, 1042287468, 0.25222593545913696, 0.6901111602783203, -0.2719278037548065, 0.6214353442192078, 9.777059555053711, 0.13722103834152222, -1.5459023714065552, 1.7261176109313965, 8.459741592407227, 5.145925521850586, -0.619384765625, -0.3564453125, -0.520751953125, 0, 
346, 1042295801, 0.25212427973747253, 0.6895637512207031, -0.271797239780426, 0.6221410036087036, 9.630013465881348, 0.09999794512987137, -1.0515450239181519, 3.3444252014160156, 9.573653221130371, 5.236189842224121, -0.618896484375, -0.357421875, -0.520751953125, 0, 
347, 1042304134, 0.2519918382167816, 0.6890619993209839, -0.27165502309799194, 0.6228121519088745, 9.730986595153809, 0.22327107191085815, -1.146803855895996, 3.7690837383270264, 8.79472541809082, 5.146643161773682, -0.617919921875, -0.3564453125, -0.524169921875, 0, 
348, 1042312467, 0.2518167495727539, 0.6884945034980774, -0.27149084210395813, 0.6235817074775696, 9.728837013244629, 0.2060122936964035, -1.275897741317749, 4.496912479400635, 10.192955017089844, 5.842454433441162, -0.618408203125, -0.35595703125, -0.527587890625, 0, 
349, 1042320800, 0.2516120374202728, 0.6879153847694397, -0.2712932527065277, 0.6243889927864075, 9.592330932617188, 0.09109131246805191, -0.8410273194313049, 5.167877197265625, 10.6705322265625, 6.001594543457031, -0.617919921875, -0.35546875, -0.528564453125, 0, 
350, 1042329133, 0.25136059522628784, 0.6874001622200012, -0.2710646986961365, 0.625156581401825, 9.691794395446777, 0.057939741760492325, -0.962226390838623, 5.945295333862305, 9.66412353515625, 5.686821937561035, -0.617919921875, -0.35498046875, -0.528564453125, 0, 
351, 1042337466, 0.251055508852005, 0.6868744492530823, -0.2708086669445038, 0.6259673833847046, 9.698917388916016, 0.20170710980892181, -1.0550254583358765, 6.817996978759766, 10.07103157043457, 6.12533712387085, -0.617919921875, -0.3544921875, -0.530029296875, 0, 
352, 1042345799, 0.25069478154182434, 0.6863183975219727, -0.2705393135547638, 0.6268378496170044, 9.601728439331055, 0.1542259305715561, -0.9713155031204224, 7.572465419769287, 10.721274375915527, 6.748403549194336, -0.620361328125, -0.3544921875, -0.531005859375, 0, 
353, 1042354132, 0.2503082752227783, 0.6857874989509583, -0.2702547609806061, 0.6276953220367432, 9.63052749633789, 0.135856494307518, -0.8986974358558655, 7.986518859863281, 10.351737022399902, 6.738696098327637, -0.616455078125, -0.35107421875, -0.534423828125, 0, 
354, 1042362465, 0.24994221329689026, 0.6852625012397766, -0.26997506618499756, 0.6285343766212463, 9.708664894104004, 0.08984249830245972, -1.0151538848876953, 7.700818061828613, 10.170798301696777, 6.474792003631592, -0.619873046875, -0.35693359375, -0.535888671875, 0, 
355, 1042370798, 0.24963903427124023, 0.6847242116928101, -0.2696828544139862, 0.6293665170669556, 9.584955215454102, 0.08676896244287491, -0.7765200734138489, 7.147884845733643, 10.516080856323242, 5.885768890380859, -0.619873046875, -0.3505859375, -0.535400390625, 0, 
356, 1042379131, 0.24941697716712952, 0.6842395067214966, -0.2694067656993866, 0.6300994157791138, 9.419776916503906, -0.05625184252858162, -0.4627819359302521, 6.058791637420654, 9.344328880310059, 4.747291088104248, -0.61865234375, -0.35400390625, -0.538330078125, 0, 
357, 1042387464, 0.24925948679447174, 0.6839236617088318, -0.2691132724285126, 0.6306299567222595, 9.51919174194336, -0.24252216517925262, -0.27541351318359375, 5.435647964477539, 6.295518398284912, 2.7536072731018066, -0.6162109375, -0.3525390625, -0.539794921875, 0, 
358, 1042395797, 0.24920803308486938, 0.6837603449821472, -0.2688330411911011, 0.6309468150138855, 9.760863304138184, -0.0816512405872345, -0.43058040738105774, 4.0483293533325195, 3.29060959815979, 0.6125388145446777, -0.61865234375, -0.35302734375, -0.540283203125, 0, 
359, 1042404130, 0.24925945699214935, 0.6836764216423035, -0.2685595452785492, 0.6311338543891907, 9.72197151184082, -0.12947726249694824, -0.3942265510559082, 2.8217668533325195, 1.7562657594680786, -0.9082167744636536, -0.61474609375, -0.3544921875, -0.541259765625, 0, 
360, 1042412463, 0.24937313795089722, 0.6837447285652161, -0.2683210074901581, 0.631116509437561, 9.510930061340332, -0.0661594569683075, -0.24362964928150177, 1.6954060792922974, -1.3941442966461182, -2.4287545680999756, -0.619140625, -0.353515625, -0.538818359375, 0, 
361, 1042420796, 0.24955648183822632, 0.6838966012001038, -0.2681254744529724, 0.6309625506401062, 9.527400016784668, 0.0750245526432991, -0.4334503710269928, 0.45170703530311584, -3.279249906539917, -3.358551502227783, -0.615234375, -0.3525390625, -0.542236328125, 0, 
362, 1042429129, 0.24983245134353638, 0.6840727925300598, -0.2679857909679413, 0.6307217478752136, 9.560280799865723, 0.01789638213813305, -0.6088163256645203, -1.1421003341674805, -4.171624183654785, -4.073034763336182, -0.61474609375, -0.35498046875, -0.538818359375, 0, 
363, 1042437462, 0.2502075731754303, 0.6842911839485168, -0.26786482334136963, 0.6303873062133789, 9.691694259643555, -0.0032051480375230312, -0.7187057733535767, -2.437053918838501, -5.105699062347412, -5.187767028808594, -0.61767578125, -0.35498046875, -0.542724609375, 0, 
364, 1042445795, 0.2506052255630493, 0.6845348477363586, -0.2677094340324402, 0.630030632019043, 9.83658218383789, 0.07280749082565308, -1.056962490081787, -2.346353530883789, -5.345293998718262, -5.922638893127441, -0.61572265625, -0.35498046875, -0.540771484375, 0, 
365, 1042454128, 0.2510376572608948, 0.684686541557312, -0.26751020550727844, 0.629778265953064, 9.855520248413086, 0.24147914350032806, -1.0856305360794067, -2.223635673522949, -3.2761757373809814, -5.891619682312012, -0.61328125, -0.3544921875, -0.537841796875, 0, 
366, 1042462461, 0.2514455318450928, 0.6847953796386719, -0.26729848980903625, 0.6295871138572693, 9.702742576599121, 0.1306191384792328, -0.8585202693939209, -1.809120774269104, -2.3854410648345947, -5.474876403808594, -0.61669921875, -0.35791015625, -0.541259765625, 0, 
367, 1042470794, 0.2518104612827301, 0.6848792433738708, -0.26707834005355835, 0.6294434666633606, 9.657456398010254, 0.1964491605758667, -0.617110013961792, -1.2423033714294434, -1.8397810459136963, -4.878244400024414, -0.617431640625, -0.36181640625, -0.540283203125, 0, 
368, 1042479127, 0.2520926594734192, 0.6849414110183716, -0.26688551902770996, 0.6293445825576782, 9.57235050201416, 0.2426910102367401, -0.6490085124969482, -0.6127051711082458, -1.6401945352554321, -3.71722674369812, -0.61474609375, -0.35595703125, -0.538818359375, 0, 
369, 1042487460, 0.252263605594635, 0.6850070357322693, -0.2667078971862793, 0.6292800307273865, 9.292920112609863, 0.17220206558704376, -0.3473406434059143, 0.44407397508621216, -1.7961342334747314, -2.459798812866211, -0.614013671875, -0.35986328125, -0.537841796875, 0, 
370, 1042495793, 0.25230658054351807, 0.6850999593734741, -0.2665786147117615, 0.6292163729667664, 9.401687622070312, 0.30345040559768677, -0.548902690410614, 1.3267916440963745, -2.6726789474487305, -1.0382345914840698, -0.615478515625, -0.3603515625, -0.538330078125, 0, 
371, 1042504126, 0.2522806227207184, 0.6851569414138794, -0.2664864659309387, 0.6292036175727844, 9.564087867736816, 0.2534639537334442, -0.6631293892860413, 1.7192785739898682, -2.254039764404297, 0.25988203287124634, -0.613037109375, -0.361328125, -0.538330078125, 0, 
372, 1042512459, 0.2522323727607727, 0.6851934194564819, -0.26640966534614563, 0.6292157173156738, 9.54552936553955, 0.14950057864189148, -0.5023893713951111, 1.8130781650543213, -1.9873188734054565, 0.7145603895187378, -0.617431640625, -0.3623046875, -0.540283203125, 0, 
373, 1042520792, 0.2521305978298187, 0.685269296169281, -0.2663586139678955, 0.6291955709457397, 9.538803100585938, 0.18307864665985107, -0.6212219595909119, 2.1157100200653076, -2.9075613021850586, 1.2128595113754272, -0.612060546875, -0.359375, -0.537841796875, 0, 
374, 1042529125, 0.2520100772380829, 0.6853179931640625, -0.26631462574005127, 0.6292092800140381, 9.765459060668945, 0.21847805380821228, -0.9897981882095337, 2.2603023052215576, -2.4573140144348145, 1.6089837551116943, -0.614990234375, -0.361328125, -0.537841796875, 0, 
375, 1042537458, 0.25190314650535583, 0.685333251953125, -0.26626214385032654, 0.62925785779953, 9.727109909057617, 0.0948665514588356, -0.6802232265472412, 2.2197296619415283, -1.750054121017456, 1.7047041654586792, -0.615478515625, -0.3623046875, -0.536865234375, 0, 
376, 1042545791, 0.25180554389953613, 0.685396134853363, -0.26621249318122864, 0.6292493939399719, 9.744507789611816, 0.08742751181125641, -0.7311772108078003, 2.0597176551818848, -2.6842823028564453, 1.2292016744613647, -0.613525390625, -0.36328125, -0.540283203125, 0, 
377, 1042554124, 0.25175341963768005, 0.6854369640350342, -0.26618003845214844, 0.6292396187782288, 9.576883316040039, 0.22706784307956696, -0.8994992971420288, 1.4064007997512817, -2.3901028633117676, 1.1231842041015625, -0.614501953125, -0.36181640625, -0.537841796875, 0, 
378, 1042562457, 0.2517251968383789, 0.6854386925697327, -0.26621103286743164, 0.6292359232902527, 9.382807731628418, 0.2596820592880249, -0.5492637157440186, 0.5143082141876221, -2.1352922916412354, 1.6285017728805542, -0.61376953125, -0.3583984375, -0.539794921875, 0, 
379, 1042570790, 0.25170689821243286, 0.685469925403595, -0.2663116157054901, 0.6291665434837341, 9.652015686035156, 0.1492217779159546, -0.6380704641342163, -0.31793662905693054, -3.205505847930908, 1.9137673377990723, -0.614501953125, -0.36279296875, -0.538818359375, 0, 
380, 1042579123, 0.25173717737197876, 0.6854920983314514, -0.26642152667045593, 0.6290838122367859, 9.859319686889648, 0.07821657508611679, -0.8459627032279968, -0.9387745261192322, -3.115036964416504, 1.5174386501312256, -0.616455078125, -0.3603515625, -0.536865234375, 0, 
381, 1042587456, 0.25181007385253906, 0.685535192489624, -0.2665247321128845, 0.6289638876914978, 9.612792015075684, 0.1480996459722519, -0.5558050274848938, -1.3414558172225952, -3.463569164276123, 0.9292330741882324, -0.614990234375, -0.361328125, -0.539306640625, 0, 
382, 1042595789, 0.25194716453552246, 0.6855885982513428, -0.26670488715171814, 0.6287744045257568, 9.46821117401123, 0.1815365105867386, -0.5377457737922668, -2.836456060409546, -4.2445478439331055, 0.7741389870643616, -0.616943359375, -0.36181640625, -0.536865234375, 0, 
383, 1042604122, 0.2521163523197174, 0.6856837868690491, -0.2669389843940735, 0.6285032629966736, 9.409671783447266, 0.1517213135957718, -0.47806960344314575, -3.7578258514404297, -5.436352252960205, 0.615330696105957, -0.616455078125, -0.36474609375, -0.537353515625, 0, 
384, 1042612455, 0.2522962987422943, 0.6858322620391846, -0.2672146260738373, 0.6281518936157227, 9.581669807434082, 0.10021452605724335, -0.5725802779197693, -4.331329345703125, -6.767550468444824, 0.3915392756462097, -0.612548828125, -0.36181640625, -0.537841796875, 0, 
385, 1042620788, 0.2525462806224823, 0.6860172152519226, -0.26749226450920105, 0.627731204032898, 9.58311653137207, 0.09265388548374176, -0.5975577235221863, -5.1323628425598145, -7.479959011077881, -0.5179582834243774, -0.615478515625, -0.36181640625, -0.538330078125, 0, 
386, 1042629121, 0.2527990937232971, 0.6863003969192505, -0.26775920391082764, 0.627206027507782, 9.764857292175293, -0.02556484006345272, -0.800541877746582, -5.114484786987305, -9.271547317504883, -1.4179145097732544, -0.613037109375, -0.365234375, -0.532470703125, 0, 
387, 1042637454, 0.25311410427093506, 0.6865713000297546, -0.26796573400497437, 0.6266937851905823, 9.88070011138916, 0.14423149824142456, -0.9453428983688354, -5.168274879455566, -8.598252296447754, -2.3863120079040527, -0.616455078125, -0.3603515625, -0.535400390625, 0, 
388, 1042645787, 0.2534375786781311, 0.6868686079978943, -0.26820775866508484, 0.6261336207389832, 9.712923049926758, 0.22422660887241364, -0.8650192618370056, -5.6450581550598145, -9.375412940979004, -2.4351325035095215, -0.616455078125, -0.365234375, -0.533447265625, 0, 
389, 1042654120, 0.2537654638290405, 0.6870994567871094, -0.2684418857097626, 0.6256469488143921, 9.888959884643555, 0.28731876611709595, -1.3213396072387695, -5.574131011962891, -8.06217098236084, -1.999152660369873, -0.616943359375, -0.3623046875, -0.530517578125, 0, 
390, 1042662453, 0.25405818223953247, 0.6872531175613403, -0.26862019300460815, 0.6252828240394592, 9.836589813232422, 0.16548848152160645, -1.0516743659973145, -4.584321022033691, -6.1801652908325195, -1.5598174333572388, -0.618896484375, -0.3603515625, -0.527587890625, 0, 
391, 1042670786, 0.2542494237422943, 0.6874561309814453, -0.2687323987483978, 0.6249334812164307, 9.856707572937012, 0.14902430772781372, -1.02885901927948, -2.826082468032837, -6.600058555603027, -1.3921722173690796, -0.613525390625, -0.361328125, -0.534423828125, 0, 
392, 1042679119, 0.2544187605381012, 0.6875972747802734, -0.268777996301651, 0.6246897578239441, 9.827356338500977, 0.19988727569580078, -1.1566681861877441, -1.8749492168426514, -4.926244735717773, -1.2869232892990112, -0.615478515625, -0.3642578125, -0.527587890625, 0, 
393, 1042687452, 0.2545609474182129, 0.6877546906471252, -0.2688113749027252, 0.6244441270828247, 9.455728530883789, 0.1820555180311203, -0.5526334047317505, -1.4595119953155518, -5.134053707122803, -1.1861823797225952, -0.613525390625, -0.3623046875, -0.531982421875, 0, 
394, 1042695785, 0.2546338737010956, 0.687933623790741, -0.268874853849411, 0.6241899728775024, 9.47304630279541, 0.3207786977291107, -0.9331575036048889, -1.0249663591384888, -5.767543792724609, -0.4646037817001343, -0.616455078125, -0.3623046875, -0.528564453125, 0, 
395, 1042704118, 0.2546623945236206, 0.6880503296852112, -0.26891735196113586, 0.6240314245223999, 9.730042457580566, 0.18842382729053497, -1.073504090309143, -0.2827427387237549, -4.414626121520996, 0.3310127556324005, -0.616943359375, -0.36279296875, -0.529052734375, 0, 
396, 1042712451, 0.2546437978744507, 0.6881716847419739, -0.26891377568244934, 0.6239067912101746, 9.937728881835938, 0.12214542925357819, -1.020933985710144, 0.6942994594573975, -4.152567386627197, 0.35237500071525574, -0.616943359375, -0.3642578125, -0.529541015625, 0, 
397, 1042720784, 0.25463202595710754, 0.6883158087730408, -0.2688595652580261, 0.6237759590148926, 9.920344352722168, 0.12677843868732452, -1.0334023237228394, 1.12449049949646, -4.195189476013184, -0.24145260453224182, -0.613525390625, -0.36279296875, -0.531494140625, 0, 
398, 1042729117, 0.2546614110469818, 0.6884778738021851, -0.26880893111228943, 0.6236068606376648, 9.671686172485352, 0.1646934151649475, -0.7328736782073975, 0.6216062903404236, -4.58024787902832, -0.8110107183456421, -0.615966796875, -0.3623046875, -0.529541015625, 0, 
399, 1042737450, 0.2547163665294647, 0.688692569732666, -0.2687963843345642, 0.6233525276184082, 9.534454345703125, 0.1822667121887207, -0.5459884405136108, -0.07180950045585632, -5.870718002319336, -1.115102767944336, -0.616943359375, -0.3623046875, -0.531494140625, 0, 
400, 1042745783, 0.2547718286514282, 0.6889671087265015, -0.26882049441337585, 0.6230159997940063, 9.471488952636719, 0.183638796210289, -0.5913105607032776, -0.4914987087249756, -7.295741081237793, -1.3286744356155396, -0.615478515625, -0.3681640625, -0.529541015625, 0, 
401, 1042754116, 0.25484368205070496, 0.6892846822738647, -0.2688804268836975, 0.6226094961166382, 9.525043487548828, 0.17490477859973907, -0.6304317712783813, -1.0562927722930908, -8.384986877441406, -1.481693983078003, -0.615478515625, -0.3642578125, -0.528076171875, 0, 
402, 1042762449, 0.25494471192359924, 0.6896375417709351, -0.26898103952407837, 0.622133731842041, 9.500761032104492, 0.24682210385799408, -0.6663244366645813, -1.8180855512619019, -9.385683059692383, -1.772005558013916, -0.616455078125, -0.36279296875, -0.528076171875, 0, 
403, 1042770782, 0.2551034092903137, 0.6899811625480652, -0.26914510130882263, 0.621616542339325, 9.619050979614258, 0.33189821243286133, -1.0975544452667236, -3.090165853500366, -9.703069686889648, -1.7255414724349976, -0.616455078125, -0.36376953125, -0.526123046875, 0, 
404, 1042779115, 0.25534072518348694, 0.6902213096618652, -0.26936033368110657, 0.6211589574813843, 9.386282920837402, 0.3055179715156555, -0.7754878401756287, -4.418059349060059, -8.146979331970215, -1.3683511018753052, -0.616943359375, -0.3662109375, -0.523193359375, 0, 
405, 1042787448, 0.25556352734565735, 0.6905168294906616, -0.2696782052516937, 0.6206008791923523, 9.13825511932373, 0.3578699231147766, -0.37194451689720154, -5.333024978637695, -9.983648300170898, -0.7779940366744995, -0.616943359375, -0.36572265625, -0.525146484375, 0, 
406, 1042795781, 0.2556787133216858, 0.6908460855484009, -0.27002647519111633, 0.6200354099273682, 9.38621711730957, 0.2489261031150818, -0.7236855626106262, -4.482299327850342, -10.85232925415039, 0.22619932889938354, -0.615966796875, -0.36279296875, -0.523193359375, 0, 
407, 1042804114, 0.25565531849861145, 0.691174328327179, -0.2702946960926056, 0.6195619702339172, 9.731764793395996, 0.16412857174873352, -1.1488757133483887, -2.1383919715881348, -10.19824504852295, 1.028386116027832, -0.616943359375, -0.3671875, -0.523681640625, 0, 
408, 1042812447, 0.25556251406669617, 0.6915116310119629, -0.27048459649086, 0.6191409826278687, 9.833399772644043, 0.15934237837791443, -0.9059217572212219, -0.5922651886940002, -9.762724876403809, 0.9741862416267395, -0.620849609375, -0.365234375, -0.520751953125, 0, 
409, 1042820780, 0.25541427731513977, 0.691914439201355, -0.27063441276550293, 0.6186864376068115, 9.856500625610352, 0.1413458287715912, -0.9010747671127319, 0.3893108069896698, -10.702537536621094, 0.7525206804275513, -0.618408203125, -0.36474609375, -0.519775390625, 0, 
410, 1042829113, 0.25523075461387634, 0.6923232078552246, -0.2707465589046478, 0.6182556748390198, 9.661131858825684, 0.21975202858448029, -1.0629419088363647, 1.1487985849380493, -10.52907943725586, 0.7052368521690369, -0.6181640625, -0.36572265625, -0.516845703125, 0, 
411, 1042837446, 0.25498253107070923, 0.6927433609962463, -0.2708525061607361, 0.6178408265113831, 9.48750114440918, 0.3275952637195587, -0.6865640878677368, 1.9227070808410645, -10.692522048950195, 1.262884259223938, -0.61572265625, -0.36328125, -0.515869140625, 0, 
412, 1042845779, 0.25466373562812805, 0.693180501461029, -0.2709771692752838, 0.6174272298812866, 9.840043067932129, 0.274233877658844, -1.0455846786499023, 2.4928030967712402, -11.153936386108398, 1.9291105270385742, -0.6201171875, -0.36328125, -0.518310546875, 0, 
413, 1042854112, 0.2543339729309082, 0.693562388420105, -0.27104273438453674, 0.6171054840087891, 10.07982349395752, 0.13423775136470795, -1.5614911317825317, 3.2561845779418945, -9.642570495605469, 2.03943133354187, -0.61767578125, -0.36279296875, -0.512939453125, 0, 
414, 1042862445, 0.25402671098709106, 0.6939023733139038, -0.27104803919792175, 0.6168475151062012, 9.879880905151367, 0.2477673441171646, -1.3038915395736694, 3.6377344131469727, -8.385115623474121, 1.6004801988601685, -0.61767578125, -0.3642578125, -0.510986328125, 0, 
415, 1042870778, 0.2537268102169037, 0.6942179799079895, -0.2710581421852112, 0.6166113018989563, 9.84074592590332, 0.34926825761795044, -1.28623628616333, 3.5265681743621826, -7.958305358886719, 1.7999635934829712, -0.61865234375, -0.36474609375, -0.511474609375, 0, 
416, 1042879111, 0.2534155547618866, 0.6944499015808105, -0.27107781171798706, 0.6164695620536804, 9.875601768493652, 0.26442405581474304, -1.4176931381225586, 3.6094563007354736, -6.423423767089844, 2.580071210861206, -0.6171875, -0.36328125, -0.510009765625, 0, 
417, 1042887444, 0.2531017065048218, 0.6945860385894775, -0.2710718810558319, 0.6164476871490479, 9.83574104309082, 0.24915441870689392, -1.3857284784317017, 3.9698476791381836, -4.38319730758667, 3.1842336654663086, -0.62109375, -0.365234375, -0.509521484375, 0, 
418, 1042895777, 0.2527463138103485, 0.6946774125099182, -0.27104493975639343, 0.6165024042129517, 9.895666122436523, 0.24723556637763977, -1.5113475322723389, 4.669424057006836, -3.359243154525757, 3.716036558151245, -0.6220703125, -0.36474609375, -0.509521484375, 0, 
419, 1042904110, 0.2524145245552063, 0.6946765184402466, -0.2709914445877075, 0.616662859916687, 9.854781150817871, 0.25561824440956116, -1.4722440242767334, 4.7465996742248535, -1.3809529542922974, 4.025737762451172, -0.61767578125, -0.36328125, -0.509033203125, 0, 
420, 1042912443, 0.25209879875183105, 0.6946370005607605, -0.27092888951301575, 0.6168640851974487, 9.775240898132324, 0.21748477220535278, -1.1755998134613037, 4.683742523193359, -0.5760514140129089, 4.037520408630371, -0.61767578125, -0.35888671875, -0.510498046875, 0, 
421, 1042920776, 0.25176483392715454, 0.6946516036987305, -0.27089542150497437, 0.6169986128807068, 9.769710540771484, 0.207599475979805, -1.1238173246383667, 4.553083896636963, -1.8381412029266357, 4.088339328765869, -0.619140625, -0.36474609375, -0.508056640625, 0, 
422, 1042929109, 0.25144490599632263, 0.6946090459823608, -0.27083665132522583, 0.6172027587890625, 9.680992126464844, 0.17659954726696014, -1.2009620666503906, 4.692451477050781, -0.5515385270118713, 4.129296779632568, -0.61962890625, -0.36279296875, -0.506591796875, 0, 
423, 1042937442, 0.25113174319267273, 0.694591760635376, -0.2707948088645935, 0.6173679828643799, 9.64731502532959, 0.24825578927993774, -1.1527611017227173, 4.432056903839111, -1.1655374765396118, 4.058549880981445, -0.62158203125, -0.3642578125, -0.509521484375, 0, 
424, 1042945775, 0.2508592903614044, 0.6945443749427795, -0.2707946300506592, 0.6175321340560913, 9.654435157775879, 0.19659657776355743, -1.1495383977890015, 3.574697256088257, -0.9202555418014526, 4.1659255027771, -0.619140625, -0.36376953125, -0.509521484375, 0, 
425, 1042954108, 0.2506498396396637, 0.6944628357887268, -0.27078449726104736, 0.6177133321762085, 9.695162773132324, 0.19267410039901733, -1.245151400566101, 3.0075979232788086, -0.1896093785762787, 3.7748215198516846, -0.619140625, -0.359375, -0.510498046875, 0, 
426, 1042962441, 0.2504749894142151, 0.6943721175193787, -0.27077606320381165, 0.6178900003433228, 9.662703514099121, 0.2322283238172531, -1.2004114389419556, 2.6105005741119385, -0.038613460958004, 3.4633522033691406, -0.619140625, -0.36083984375, -0.509521484375, 0, 
427, 1042970774, 0.2503267228603363, 0.694275975227356, -0.27079084515571594, 0.6180514097213745, 9.638025283813477, 0.1957702338695526, -1.0823006629943848, 2.0866892337799072, -0.11194701492786407, 3.48020601272583, -0.6220703125, -0.3623046875, -0.511962890625, 0, 
428, 1042979107, 0.2501778304576874, 0.6942209601402283, -0.2708323001861572, 0.6181554198265076, 9.705900192260742, 0.17378021776676178, -1.1807671785354614, 1.7913058996200562, -1.1115682125091553, 3.3354086875915527, -0.6201171875, -0.35986328125, -0.510498046875, 0, 
429, 1042987440, 0.2500852942466736, 0.6940908432006836, -0.27086150646209717, 0.6183261871337891, 9.616010665893555, 0.19916337728500366, -1.1151013374328613, 1.3537633419036865, 0.4240180552005768, 3.3028018474578857, -0.6201171875, -0.359375, -0.515380859375, 0, 
430, 1042995773, 0.25000786781311035, 0.6939782500267029, -0.2709076404571533, 0.6184636354446411, 9.657511711120605, 0.1703367680311203, -1.1060250997543335, 0.9947032928466797, -0.052624449133872986, 3.103548765182495, -0.6240234375, -0.3603515625, -0.510986328125, 0, 
431, 1043004106, 0.24994824826717377, 0.6938732266426086, -0.2709636390209198, 0.6185808777809143, 9.695895195007324, 0.17324405908584595, -1.1987934112548828, 0.696374237537384, -0.26955142617225647, 3.000605344772339, -0.6171875, -0.359375, -0.513427734375, 0, 
432, 1043012439, 0.249897301197052, 0.6937522888183594, -0.2710091471672058, 0.6187171936035156, 9.698160171508789, 0.170626699924469, -1.1707634925842285, 0.7149189114570618, 0.10860434919595718, 2.899223804473877, -0.6220703125, -0.361328125, -0.511962890625, 0, 
433, 1043020772, 0.24985751509666443, 0.693616509437561, -0.27106213569641113, 0.6188623905181885, 9.714999198913574, 0.18546463549137115, -1.2748574018478394, 0.5331090688705444, 0.3432563543319702, 3.011491298675537, -0.61962890625, -0.35498046875, -0.511474609375, 0, 
434, 1043029105, 0.2498406320810318, 0.6934415698051453, -0.27111634612083435, 0.6190415024757385, 9.654258728027344, 0.18099984526634216, -1.1201951503753662, 0.29002997279167175, 1.0731852054595947, 3.0417673587799072, -0.62060546875, -0.35546875, -0.512939453125, 0, 
435, 1043037438, 0.24984657764434814, 0.6932651400566101, -0.271187961101532, 0.6192051768302917, 9.565143585205078, 0.1557856649160385, -0.8268378376960754, -0.13243840634822845, 0.9728030562400818, 3.0147957801818848, -0.62060546875, -0.359375, -0.514404296875, 0, 
436, 1043045771, 0.24985498189926147, 0.6931073665618896, -0.2713084816932678, 0.6193256378173828, 9.525001525878906, 0.15824605524539948, -0.8549795746803284, -0.6762799024581909, 0.2331663817167282, 3.19102144241333, -0.62353515625, -0.3564453125, -0.514892578125, 0, 
437, 1043054104, 0.2498573362827301, 0.6929541230201721, -0.27142590284347534, 0.6194446682929993, 9.643411636352539, 0.17220233380794525, -0.9582423567771912, -0.5745145082473755, 0.18045228719711304, 3.245861530303955, -0.61962890625, -0.35791015625, -0.511962890625, 0, 
438, 1043062437, 0.2498311847448349, 0.6927917003631592, -0.2715224325656891, 0.6195946335792542, 9.894550323486328, 0.09480495750904083, -1.2130471467971802, -0.049371443688869476, 0.5082120895385742, 3.3750855922698975, -0.62255859375, -0.3583984375, -0.515380859375, 0, 
439, 1043070770, 0.2498144507408142, 0.6926145553588867, -0.27158018946647644, 0.6197740435600281, 9.97343921661377, 0.09273309260606766, -1.3347129821777344, 0.25829392671585083, 1.0913200378417969, 3.138230323791504, -0.6220703125, -0.3544921875, -0.514892578125, 0, 
440, 1043079103, 0.24981310963630676, 0.6924229264259338, -0.2716260850429535, 0.619968593120575, 9.774741172790527, 0.13833299279212952, -1.0986639261245728, 0.21364831924438477, 1.4491766691207886, 2.944535732269287, -0.618408203125, -0.35595703125, -0.516357421875, 0, 
441, 1043087436, 0.2498340606689453, 0.692238986492157, -0.2716760039329529, 0.6201436519622803, 9.662605285644531, 0.1737852543592453, -1.0780556201934814, -0.07360250502824783, 1.277177095413208, 2.749739408493042, -0.6181640625, -0.35595703125, -0.514892578125, 0, 
442, 1043095769, 0.2498857080936432, 0.6920329928398132, -0.2717397212982178, 0.6203248500823975, 9.674137115478516, 0.17575298249721527, -1.1868170499801636, -0.5426504015922546, 1.5794761180877686, 2.6708216667175293, -0.62158203125, -0.357421875, -0.515380859375, 0, 
