PacketCounter,SampleTimeFine,Quat_W,Quat_X,Quat_Y,Quat_Z,Acc_X,Acc_Y,Acc_Z,Gyr_X,Gyr_Y,Gyr_Z,Mag_X,Mag_Y,Mag_Z,Status,
0, 1031129581, 0.31055334210395813, 0.6630008816719055, -0.31070029735565186, 0.6061768531799316, 0, 0, 0, 0, 0, 0, -0.619873046875, -0.373779296875, -0.57958984375, 0, 
1, 1031137914, 0.31057363748550415, 0.6630171537399292, -0.31064242124557495, 0.6061782240867615, 9.673437118530273, 0.3938547670841217, -0.6541964411735535, 0.5464797019958496, -1.678052544593811, 0.40229716897010803, -0.622314453125, -0.371337890625, -0.57763671875, 0, 
2, 1031146247, 0.3105977773666382, 0.6630220413208008, -0.3105985224246979, 0.6061829924583435, 9.713231086730957, 0.4012181758880615, -0.6803022623062134, 0.7122294902801514, -1.5829468965530396, 0.5080583691596985, -0.620849609375, -0.374267578125, -0.57861328125, 0, 
3, 1031154580, 0.3105843961238861, 0.6630404591560364, -0.3105121850967407, 0.6062140464782715, 9.71805477142334, 0.38532325625419617, -0.6696785688400269, 0.9666813611984253, -1.458564281463623, 0.5581598281860352, -0.620849609375, -0.374267578125, -0.58154296875, 0, 
4, 1031162913, 0.31058254837989807, 0.6630434393882751, -0.3104458749294281, 0.6062456369400024, 9.719212532043457, 0.35781991481781006, -0.7029346823692322, 1.2427258491516113, -1.337357521057129, 0.6448639631271362, -0.617431640625, -0.372314453125, -0.57763671875, 0, 
5, 1031171246, 0.31059885025024414, 0.6630405187606812, -0.3103642761707306, 0.6062822937965393, 9.736456871032715, 0.37021684646606445, -0.7228305339813232, 1.1848889589309692, -1.101091980934143, 0.4258110821247101, -0.619384765625, -0.373291015625, -0.58154296875, 0, 
6, 1031179579, 0.31062477827072144, 0.6630277037620544, -0.31027674674987793, 0.6063278913497925, 9.707688331604004, 0.40397825837135315, -0.6785902380943298, 1.1574816703796387, -0.8670802712440491, 0.3453311026096344, -0.622802734375, -0.372802734375, -0.57763671875, 0, 
7, 1031187912, 0.310634583234787, 0.6630170941352844, -0.31019502878189087, 0.6063761115074158, 9.668241500854492, 0.3877239227294922, -0.5945826172828674, 1.322309136390686, -0.9577802419662476, 0.5547786951065063, -0.621337890625, -0.373779296875, -0.57958984375, 0, 
8, 1031196245, 0.3106386065483093, 0.6630410552024841, -0.31011343002319336, 0.6063896417617798, 9.647433280944824, 0.3640825152397156, -0.6833486557006836, 1.3283542394638062, -1.5858924388885498, 0.28962016105651855, -0.620849609375, -0.375732421875, -0.57958984375, 0, 
9, 1031204578, 0.31067273020744324, 0.6630463600158691, -0.31004923582077026, 0.6063991785049438, 9.591182708740234, 0.37927234172821045, -0.5787580013275146, 0.8076680898666382, -1.4158140420913696, 0.2818334400653839, -0.617919921875, -0.376220703125, -0.57763671875, 0, 
10, 1031212911, 0.3106638491153717, 0.6630762219429016, -0.31000107526779175, 0.6063956618309021, 9.591140747070312, 0.45974400639533997, -0.5255585312843323, 1.1189833879470825, -1.9874213933944702, 0.6042397618293762, -0.619384765625, -0.374755859375, -0.580078125, 0, 
11, 1031221244, 0.3106650710105896, 0.6630904674530029, -0.31000402569770813, 0.606377899646759, 9.62600040435791, 0.41810011863708496, -0.5958787202835083, 1.0545892715454102, -2.1464602947235107, 0.9703696966171265, -0.617919921875, -0.376220703125, -0.57763671875, 0, 
12, 1031229577, 0.310641884803772, 0.6631190776824951, -0.3099873661994934, 0.6063669919967651, 9.665395736694336, 0.4070996046066284, -0.7028548717498779, 0.9497246742248535, -2.2405669689178467, 0.9837403893470764, -0.622802734375, -0.373779296875, -0.57470703125, 0, 
13, 1031237910, 0.3106546401977539, 0.6631281971931458, -0.3100045919418335, 0.6063416600227356, 9.695383071899414, 0.412671834230423, -0.7437664270401001, 0.6183532476425171, -2.1890311241149902, 1.0056405067443848, -0.620849609375, -0.373291015625, -0.58056640625, 0, 
14, 1031246243, 0.310657262802124, 0.6631287932395935, -0.3100109398365021, 0.6063364148139954, 9.702218055725098, 0.37656956911087036, -0.7294734716415405, 0.42898720502853394, -1.9441331624984741, 1.1220570802688599, -0.620361328125, -0.374755859375, -0.580078125, 0, 
15, 1031254576, 0.3106819987297058, 0.6631242036819458, -0.3100118041038513, 0.606328547000885, 9.692025184631348, 0.37320250272750854, -0.7379890084266663, 0.2584732472896576, -1.8099148273468018, 0.9201657772064209, -0.620849609375, -0.374755859375, -0.57958984375, 0, 
16, 1031262909, 0.3107076585292816, 0.6631175875663757, -0.3100073039531708, 0.6063248515129089, 9.666219711303711, 0.4049849212169647, -0.6848804950714111, 0.2832934260368347, -1.72467041015625, 0.8692446351051331, -0.622314453125, -0.373291015625, -0.57763671875, 0, 
17, 1031271242, 0.3107370436191559, 0.6631112098693848, -0.31000757217407227, 0.6063164472579956, 9.691826820373535, 0.4155060946941376, -0.6562842130661011, 0.2662343680858612, -1.7763344049453735, 0.876544713973999, -0.621337890625, -0.372314453125, -0.57861328125, 0, 
18, 1031279575, 0.3107268214225769, 0.6631082892417908, -0.30997997522354126, 0.6063389182090759, 9.7105131149292, 0.391164094209671, -0.7135132551193237, 0.9297454357147217, -1.5714460611343384, 1.05392324924469, -0.619384765625, -0.374267578125, -0.5791015625, 0, 
19, 1031287908, 0.3107168972492218, 0.6630842089653015, -0.30993154644966125, 0.6063953638076782, 9.69304370880127, 0.40676698088645935, -0.6806623935699463, 1.237936019897461, -0.9949977397918701, 1.1118115186691284, -0.619873046875, -0.372314453125, -0.5791015625, 0, 
20, 1031296241, 0.3106723129749298, 0.6630809903144836, -0.3098674714565277, 0.6064544320106506, 9.639382362365723, 0.39376527070999146, -0.6571831107139587, 1.7032954692840576, -1.2251930236816406, 1.1655247211456299, -0.622314453125, -0.371826171875, -0.5791015625, 0, 
21, 1031304574, 0.31062009930610657, 0.6630609631538391, -0.3097766041755676, 0.6065494418144226, 9.686484336853027, 0.42137041687965393, -0.6843569278717041, 2.0006000995635986, -0.6824272274971008, 1.2362711429595947, -0.620849609375, -0.376708984375, -0.580078125, 0, 
22, 1031312907, 0.3105701506137848, 0.663040041923523, -0.30969175696372986, 0.6066411733627319, 9.669099807739258, 0.3963417708873749, -0.6538031101226807, 1.9887150526046753, -0.7148293852806091, 1.2346062660217285, -0.620361328125, -0.372802734375, -0.57861328125, 0, 
23, 1031321240, 0.3105054497718811, 0.6630344986915588, -0.3096218705177307, 0.606715977191925, 9.66984748840332, 0.3965522348880768, -0.6400189995765686, 1.9942989349365234, -1.1253999471664429, 1.3808122873306274, -0.619384765625, -0.376708984375, -0.57861328125, 0, 
24, 1031329573, 0.31044095754623413, 0.6630393266677856, -0.3095589280128479, 0.6067759394645691, 9.725460052490234, 0.36303895711898804, -0.666587769985199, 1.912435531616211, -1.3743189573287964, 1.3088873624801636, -0.619384765625, -0.373291015625, -0.57861328125, 0, 
25, 1031337906, 0.3103845417499542, 0.6630429029464722, -0.3094862103462219, 0.6068378686904907, 9.717646598815918, 0.32823219895362854, -0.6819121837615967, 2.083564281463623, -1.2665343284606934, 1.1803807020187378, -0.618896484375, -0.374755859375, -0.58056640625, 0, 
26, 1031346239, 0.3103310465812683, 0.6630621552467346, -0.3093952536582947, 0.6068904995918274, 9.724823951721191, 0.3522931933403015, -0.6918566823005676, 2.0776729583740234, -1.3955787420272827, 0.8712425827980042, -0.620361328125, -0.372802734375, -0.5810546875, 0, 
27, 1031354572, 0.3103027939796448, 0.6630809903144836, -0.309317946434021, 0.6069239377975464, 9.753974914550781, 0.35269221663475037, -0.6615484356880188, 1.8315715789794922, -1.5136860609054565, 0.7139455676078796, -0.618408203125, -0.377197265625, -0.57666015625, 0, 
28, 1031362905, 0.3102703094482422, 0.6631048321723938, -0.30922871828079224, 0.606959879398346, 9.693170547485352, 0.36947470903396606, -0.6816985011100769, 1.8208390474319458, -1.5037732124328613, 0.6216574907302856, -0.617919921875, -0.376220703125, -0.58251953125, 0, 
29, 1031371238, 0.31023699045181274, 0.663152277469635, -0.3091456890106201, 0.6069673895835876, 9.707523345947266, 0.38997411727905273, -0.6403165459632874, 1.6202794313430786, -1.9990246295928955, 0.49627578258514404, -0.620361328125, -0.376220703125, -0.57861328125, 0, 
30, 1031379571, 0.3102208971977234, 0.6631983518600464, -0.30908113718032837, 0.6069580912590027, 9.731500625610352, 0.37497156858444214, -0.6660197973251343, 1.3675951957702637, -2.1375207901000977, 0.4197404384613037, -0.618408203125, -0.375732421875, -0.5771484375, 0, 
31, 1031387904, 0.31022006273269653, 0.6632471680641174, -0.30902591347694397, 0.6069333553314209, 9.711175918579102, 0.4043063223361969, -0.7544258236885071, 0.9911171197891235, -2.282292604446411, 0.3322678804397583, -0.620849609375, -0.375244140625, -0.57958984375, 0, 
32, 1031396237, 0.31024354696273804, 0.6632739901542664, -0.30897724628448486, 0.6069167256355286, 9.74370288848877, 0.408968061208725, -0.7464176416397095, 0.7596926093101501, -1.9434927701950073, 0.28698188066482544, -0.618408203125, -0.375732421875, -0.57861328125, 0, 
33, 1031404570, 0.310260146856308, 0.6632740497589111, -0.3089015483856201, 0.606946587562561, 9.678190231323242, 0.40552327036857605, -0.6579828858375549, 0.9996723532676697, -1.2170730829238892, 0.44251149892807007, -0.618896484375, -0.376708984375, -0.5791015625, 0, 
34, 1031412903, 0.3102564215660095, 0.6632816791534424, -0.30880916118621826, 0.6069872379302979, 9.771849632263184, 0.3777567744255066, -0.6608967185020447, 1.5349586009979248, -1.1904085874557495, 0.441384494304657, -0.620849609375, -0.378173828125, -0.5791015625, 0, 
35, 1031421236, 0.31023338437080383, 0.6632928252220154, -0.3086780309677124, 0.6070537567138672, 9.573648452758789, 0.42151594161987305, -0.7285557389259338, 2.122011423110962, -0.9052454233169556, 0.36789724230766296, -0.620361328125, -0.373291015625, -0.578125, 0, 
36, 1031429569, 0.31020957231521606, 0.6633124947547913, -0.30855152010917664, 0.6071087121963501, 9.653448104858398, 0.4162636995315552, -0.6683049201965332, 2.1139426231384277, -1.0990172624588013, 0.3069353997707367, -0.619873046875, -0.377685546875, -0.5791015625, 0, 
37, 1031437902, 0.31017574667930603, 0.6633173823356628, -0.3084159791469574, 0.607189416885376, 9.72426986694336, 0.4286995828151703, -0.6437604427337646, 2.136687994003296, -0.7557095885276794, 0.5165622234344482, -0.619873046875, -0.376220703125, -0.5791015625, 0, 
38, 1031446235, 0.31013837456703186, 0.6633496284484863, -0.30829736590385437, 0.607233464717865, 9.621824264526367, 0.364732950925827, -0.5518985986709595, 2.179182291030884, -1.395092248916626, 0.39238449931144714, -0.621337890625, -0.377685546875, -0.578125, 0, 
39, 1031454568, 0.3100712299346924, 0.6633903384208679, -0.30819112062454224, 0.6072772741317749, 9.589189529418945, 0.4273841381072998, -0.6083064079284668, 2.4078917503356934, -1.6471874713897705, 0.734846830368042, -0.620361328125, -0.376220703125, -0.578125, 0, 
40, 1031462901, 0.31002429127693176, 0.6634178161621094, -0.30812594294548035, 0.6073042750358582, 9.629291534423828, 0.4386610686779022, -0.5863249897956848, 1.7279363870620728, -1.7796130180358887, 0.9090748429298401, -0.617919921875, -0.373291015625, -0.57958984375, 0, 
41, 1031471234, 0.30996644496917725, 0.6634590029716492, -0.30807650089263916, 0.6073139309883118, 9.588027954101562, 0.4275836646556854, -0.5873129963874817, 1.6688185930252075, -2.168616533279419, 1.0336880683898926, -0.619873046875, -0.374267578125, -0.57958984375, 0, 
42, 1031479567, 0.3099026679992676, 0.6635043621063232, -0.30804443359375, 0.6073131561279297, 9.543268203735352, 0.3796415328979492, -0.5633103847503662, 1.563902735710144, -2.3947134017944336, 1.1564059257507324, -0.620849609375, -0.377685546875, -0.5771484375, 0, 
43, 1031487900, 0.30985215306282043, 0.6636069416999817, -0.30807632207870483, 0.607210636138916, 9.503983497619629, 0.40929463505744934, -0.6563063263893127, 1.2408560514450073, -3.99885630607605, 0.9372249245643616, -0.620361328125, -0.375244140625, -0.57958984375, 0, 
44, 1031496233, 0.30980443954467773, 0.66370689868927, -0.3081001341342926, 0.6071137189865112, 9.68525218963623, 0.4140666127204895, -0.6331379413604736, 0.7749074101448059, -3.8969624042510986, 0.8920413255691528, -0.620849609375, -0.376220703125, -0.578125, 0, 
45, 1031504566, 0.3097720742225647, 0.6638273596763611, -0.3081589639186859, 0.6069685220718384, 9.726861000061035, 0.4041554033756256, -0.6896103024482727, -0.011359913274645805, -4.607117652893066, 0.8287742137908936, -0.620849609375, -0.378173828125, -0.578125, 0, 
46, 1031512899, 0.30978313088417053, 0.6639212965965271, -0.30823850631713867, 0.6068198084831238, 9.700949668884277, 0.39233529567718506, -0.69890958070755, -0.47077688574790955, -4.30830192565918, 0.7133821249008179, -0.623291015625, -0.380126953125, -0.57666015625, 0, 
47, 1031521232, 0.3098112940788269, 0.6640174984931946, -0.30833563208580017, 0.6066506505012512, 9.753539085388184, 0.40114113688468933, -0.6750664710998535, -0.7444905638694763, -4.513830661773682, 0.6499356031417847, -0.621337890625, -0.377197265625, -0.57666015625, 0, 
48, 1031529565, 0.30981680750846863, 0.6641137003898621, -0.30841609835624695, 0.6065017580986023, 9.719974517822266, 0.42695382237434387, -0.7361193895339966, -0.4198301434516907, -4.356558799743652, 0.7571568489074707, -0.620361328125, -0.376708984375, -0.57666015625, 0, 
49, 1031537898, 0.3098449110984802, 0.6641745567321777, -0.30850011110305786, 0.6063780784606934, 9.759915351867676, 0.44123220443725586, -0.7883411049842834, -0.735704779624939, -3.7563910484313965, 0.8848179578781128, -0.617431640625, -0.376220703125, -0.57763671875, 0, 
50, 1031546231, 0.3098819851875305, 0.6642218232154846, -0.30858421325683594, 0.606264591217041, 9.751810073852539, 0.40721848607063293, -0.7664132118225098, -0.7939003705978394, -3.5075490474700928, 0.8850229978561401, -0.621337890625, -0.377197265625, -0.57763671875, 0, 
51, 1031554564, 0.3099338710308075, 0.664246678352356, -0.3086652457714081, 0.6061695218086243, 9.714515686035156, 0.4183335602283478, -0.7287192344665527, -0.7819384932518005, -3.073362350463867, 0.9214464426040649, -0.619384765625, -0.379150390625, -0.57763671875, 0, 
52, 1031562897, 0.3099806606769562, 0.6642638444900513, -0.30874112248420715, 0.6060881614685059, 9.746116638183594, 0.408601850271225, -0.7329044342041016, -0.8083211779594421, -2.8865578174591064, 0.994754433631897, -0.620361328125, -0.376708984375, -0.5791015625, 0, 
53, 1031571230, 0.310122549533844, 0.6642383337020874, -0.3088324964046478, 0.6059969663619995, 9.861523628234863, 0.3676488995552063, -0.7277400493621826, -2.0882644653320312, -2.2877228260040283, 0.5107991099357605, -0.620849609375, -0.375732421875, -0.578125, 0, 
54, 1031579563, 0.3103925883769989, 0.6641881465911865, -0.30893194675445557, 0.6058630347251892, 9.881462097167969, 0.28461548686027527, -0.7441566586494446, -3.553603172302246, -1.9571707248687744, -0.5890376567840576, -0.620361328125, -0.376220703125, -0.57666015625, 0, 
55, 1031587896, 0.31069594621658325, 0.6641910076141357, -0.30900657176971436, 0.6056661605834961, 9.857933044433594, 0.24884431064128876, -0.8411498069763184, -3.6880273818969727, -2.7315409183502197, -1.5650426149368286, -0.619384765625, -0.378662109375, -0.5771484375, 0, 
56, 1031596229, 0.3110272288322449, 0.664226770401001, -0.30899906158447266, 0.6054606437683105, 9.902351379394531, 0.26785460114479065, -0.7482771873474121, -3.159349203109741, -2.610154390335083, -2.745295286178589, -0.620849609375, -0.379150390625, -0.578125, 0, 
57, 1031604562, 0.3113827705383301, 0.6643123626708984, -0.3089512884616852, 0.6052085757255554, 9.762224197387695, 0.2598119080066681, -0.48683691024780273, -3.1430845260620117, -3.1838624477386475, -3.6960697174072266, -0.617919921875, -0.378173828125, -0.57421875, 0, 
58, 1031612895, 0.31174761056900024, 0.6644753813743591, -0.3088527023792267, 0.6048920154571533, 9.902327537536621, 0.12641803920269012, -0.3361664414405823, -2.635230541229248, -4.150210380554199, -4.874606609344482, -0.621337890625, -0.380126953125, -0.57763671875, 0, 
59, 1031621228, 0.31206899881362915, 0.6647704243659973, -0.308663934469223, 0.6044984459877014, 9.734564781188965, 0.3198385536670685, -0.5470400452613831, -1.5157865285873413, -5.767467975616455, -6.185133934020996, -0.618896484375, -0.382568359375, -0.57568359375, 0, 
60, 1031629561, 0.31239303946495056, 0.6651127934455872, -0.308458536863327, 0.6040590405464172, 9.803276062011719, 0.4580259919166565, -0.7375261187553406, -1.127397894859314, -6.481926441192627, -6.799313068389893, -0.617431640625, -0.379150390625, -0.57666015625, 0, 
61, 1031637894, 0.3127713203430176, 0.6653832197189331, -0.3082401752471924, 0.6036767363548279, 9.73188591003418, 0.5213702917098999, -0.5661019086837769, -1.433923363685608, -5.071477890014648, -6.8067145347595215, -0.61669921875, -0.385009765625, -0.572265625, 0, 
62, 1031646227, 0.31311044096946716, 0.6657161712646484, -0.3080422580242157, 0.6032346487045288, 9.720795631408691, 0.4465988874435425, -0.4368753433227539, -1.3778283596038818, -6.395863056182861, -6.827566146850586, -0.618896484375, -0.382080078125, -0.576171875, 0, 
63, 1031654560, 0.3135564625263214, 0.6660283207893372, -0.3078174889087677, 0.6027728915214539, 9.812198638916016, 0.3587304651737213, -0.38944870233535767, -3.048901319503784, -5.873383045196533, -7.87631368637085, -0.617919921875, -0.384033203125, -0.57470703125, 0, 
64, 1031662893, 0.3141152858734131, 0.6663696765899658, -0.3076363205909729, 0.6021969318389893, 9.895414352416992, 0.30733898282051086, -0.5483072400093079, -4.057973861694336, -6.833993434906006, -9.10843563079834, -0.617919921875, -0.383544921875, -0.57568359375, 0, 
65, 1031671226, 0.3147721588611603, 0.6667517423629761, -0.3073854446411133, 0.6015588641166687, 9.901135444641113, 0.28079527616500854, -0.8220514059066772, -4.496029376983643, -7.0291748046875, -10.975790977478027, -0.6171875, -0.386962890625, -0.572265625, 0, 
66, 1031679559, 0.3155231475830078, 0.6672362685203552, -0.3070638179779053, 0.6007920503616333, 10.127488136291504, 0.0865703821182251, -0.638650119304657, -4.844869613647461, -8.347668647766113, -13.41818618774414, -0.61767578125, -0.386474609375, -0.57275390625, 0, 
67, 1031687892, 0.3165852725505829, 0.6678877472877502, -0.3065793514251709, 0.5997558236122131, 10.544264793395996, -0.37819904088974, -0.5346108675003052, -7.034377098083496, -10.195687294006348, -19.31049156188965, -0.615234375, -0.391845703125, -0.56787109375, 0, 
68, 1031696225, 0.31779611110687256, 0.6688355207443237, -0.30579712986946106, 0.5984570980072021, 10.775483131408691, -0.2636113166809082, -0.9381052255630493, -5.495167255401611, -13.109620094299316, -25.709989547729492, -0.61767578125, -0.394775390625, -0.5693359375, 0, 
69, 1031704558, 0.31917840242385864, 0.6698249578475952, -0.3047604560852051, 0.5971423387527466, 11.299041748046875, 0.48199257254600525, -1.4474537372589111, -4.860984802246094, -11.774452209472656, -29.685630798339844, -0.615234375, -0.400146484375, -0.565185546875, 0, 
70, 1031712891, 0.3209015429019928, 0.6706113815307617, -0.3035075068473816, 0.5959731340408325, 11.378342628479004, 0.2783447206020355, -1.2508094310760498, -6.508827209472656, -6.381370544433594, -33.007957458496094, -0.61376953125, -0.400634765625, -0.565185546875, 0, 
71, 1031721224, 0.32337430119514465, 0.6712073087692261, -0.30217739939689636, 0.5946399569511414, 11.25732421875, 0.07390322536230087, -0.8264486193656921, -14.312116622924805, -2.867838144302368, -39.77083206176758, -0.611328125, -0.407470703125, -0.5673828125, 0, 
72, 1031729557, 0.3258463740348816, 0.6718814969062805, -0.3005722165107727, 0.5933412313461304, 11.827110290527344, 0.6218780279159546, -1.4211139678955078, -11.566165924072266, -1.9652682542800903, -42.49684143066406, -0.60986328125, -0.417236328125, -0.56787109375, 0, 
73, 1031737890, 0.32925090193748474, 0.67218017578125, -0.2989407777786255, 0.5919460654258728, 11.326278686523438, 0.26397964358329773, -0.9436841011047363, -22.04751968383789, 4.174976825714111, -49.20794677734375, -0.60595703125, -0.420166015625, -0.5693359375, 0, 
74, 1031746223, 0.33277958631515503, 0.6724932193756104, -0.2970602214336395, 0.5905624032020569, 12.089320182800293, 0.5153078436851501, -0.9345549941062927, -21.056354522705078, 5.807736396789551, -52.547889709472656, -0.603515625, -0.428466796875, -0.5712890625, 0, 
75, 1031754556, 0.3369550108909607, 0.672511637210846, -0.2949420213699341, 0.5892339944839478, 12.012961387634277, 0.27631479501724243, -1.0269808769226074, -26.230239868164062, 12.43468189239502, -58.52312469482422, -0.60302734375, -0.432373046875, -0.57373046875, 0, 
76, 1031762889, 0.34148240089416504, 0.6725413203239441, -0.2924165725708008, 0.5878509283065796, 12.289880752563477, 0.17295704782009125, -1.303163766860962, -26.355567932128906, 15.158624649047852, -65.4582290649414, -0.59619140625, -0.43994140625, -0.57470703125, 0, 
77, 1031771222, 0.3462120592594147, 0.6727243661880493, -0.2892257273197174, 0.5864517688751221, 12.999711990356445, 0.04986653849482536, -1.6655857563018799, -22.190208435058594, 17.702838897705078, -73.92366790771484, -0.589111328125, -0.45068359375, -0.57763671875, 0, 
78, 1031779555, 0.3512141704559326, 0.6728867292404175, -0.28514403104782104, 0.5852888822555542, 13.775809288024902, 0.09850859642028809, -2.07100248336792, -16.685089111328125, 25.38703727722168, -83.17229461669922, -0.58251953125, -0.46142578125, -0.5830078125, 0, 
79, 1031787888, 0.356479287147522, 0.6730008721351624, -0.2799196243286133, 0.5844958424568176, 14.244139671325684, -0.05488359555602074, -2.5566611289978027, -8.704294204711914, 35.741397857666016, -93.87345886230469, -0.57666015625, -0.47314453125, -0.587890625, 0, 
80, 1031796221, 0.36186227202415466, 0.6732244491577148, -0.27332139015197754, 0.5840532779693604, 14.962972640991211, -0.07608543336391449, -2.293407917022705, 3.132401466369629, 45.29899597167969, -106.25228118896484, -0.56689453125, -0.48974609375, -0.5927734375, 0, 
81, 1031804554, 0.3675583600997925, 0.6735097765922546, -0.26579055190086365, 0.5836427211761475, 15.53478717803955, 0.05606350675225258, -1.5242962837219238, 8.15220832824707, 50.91600036621094, -117.46102905273438, -0.56103515625, -0.50439453125, -0.599609375, 0, 
82, 1031812887, 0.3734450936317444, 0.6743446588516235, -0.25795161724090576, 0.5824577808380127, 15.199575424194336, 0.6982680559158325, -0.8235443234443665, 8.806674003601074, 41.589447021484375, -127.78224182128906, -0.548828125, -0.521240234375, -0.607421875, 0, 
83, 1031821220, 0.37921440601348877, 0.6758261919021606, -0.24989277124404907, 0.5805231332778931, 16.578899383544922, 1.8551344871520996, -1.3305708169937134, 12.318197250366211, 30.16847038269043, -135.0162811279297, -0.541259765625, -0.544677734375, -0.60986328125, 0, 
84, 1031829553, 0.38471823930740356, 0.6787407398223877, -0.24127817153930664, 0.5771359801292419, 17.912593841552734, 8.356182098388672, 0.9054916501045227, 21.703691482543945, 7.215651035308838, -150.56944274902344, -0.528564453125, -0.563232421875, -0.61083984375, 0, 
85, 1031837886, 0.3907034993171692, 0.6831817626953125, -0.23247958719730377, 0.5714584589004517, 17.550878524780273, 12.385560035705566, -1.5882389545440674, 19.14565086364746, -23.7069149017334, -173.28616333007812, -0.515869140625, -0.5859375, -0.60693359375, 0, 
86, 1031846219, 0.39681121706962585, 0.6874946355819702, -0.22329260408878326, 0.5657122731208801, 19.940935134887695, 15.060844421386719, -0.9812238216400146, 20.14168930053711, -20.867555618286133, -177.8626708984375, -0.5009765625, -0.614501953125, -0.6025390625, 0, 
87, 1031854552, 0.4036736488342285, 0.6896429061889648, -0.21411527693271637, 0.5617765784263611, 16.41532325744629, 17.292613983154297, -0.4274362325668335, 6.677131175994873, 15.35532283782959, -167.10006713867188, -0.48681640625, -0.633544921875, -0.601806640625, 0, 
88, 1031862885, 0.4092911183834076, 0.693131148815155, -0.20656748116016388, 0.55621737241745, 19.810842514038086, 14.828906059265137, -5.206544876098633, 8.555800437927246, -23.10557746887207, -155.00161743164062, -0.473876953125, -0.6591796875, -0.596923828125, 0, 
89, 1031871218, 0.41654765605926514, 0.6940444707870483, -0.1989109218120575, 0.5524696707725525, 18.519445419311523, 16.716169357299805, 0.172918438911438, -15.587698936462402, 19.122676849365234, -151.03515625, -0.460205078125, -0.676513671875, -0.600830078125, 0, 
90, 1031879551, 0.4241220951080322, 0.696100115776062, -0.19251035153865814, 0.5463542342185974, 16.834632873535156, 17.093050003051758, -3.7943832874298096, -28.093505859375, -18.476985931396484, -158.17835998535156, -0.44580078125, -0.696044921875, -0.594482421875, 0, 
91, 1031887884, 0.43288055062294006, 0.6974518299102783, -0.1860712766647339, 0.5399544835090637, 20.36639404296875, 15.267206192016602, -4.528347492218018, -44.00041961669922, -12.551295280456543, -167.19992065429688, -0.42919921875, -0.71533203125, -0.596923828125, 0, 
92, 1031896217, 0.4427049160003662, 0.697184145450592, -0.1789940595626831, 0.5347017049789429, 20.393619537353516, 13.787236213684082, -3.237642288208008, -56.186981201171875, 17.000858306884766, -170.3037109375, -0.4111328125, -0.735595703125, -0.603271484375, 0, 
93, 1031904550, 0.4526907801628113, 0.6960678696632385, -0.17249245941638947, 0.5299103260040283, 17.606325149536133, 12.964631080627441, -2.394188642501831, -66.00420379638672, 24.56144142150879, -161.0223388671875, -0.388671875, -0.75390625, -0.608154296875, 0, 
94, 1031912883, 0.4626765549182892, 0.6948743462562561, -0.1669429987668991, 0.524603009223938, 16.441423416137695, 11.547728538513184, -2.3029091358184814, -74.64220428466797, 14.253517150878906, -154.9878387451172, -0.373046875, -0.7724609375, -0.61767578125, 0, 
95, 1031921216, 0.47283050417900085, 0.6936664581298828, -0.16144612431526184, 0.5188364386558533, 17.189273834228516, 9.62273120880127, -2.5305728912353516, -77.7819595336914, 10.025073051452637, -158.53114318847656, -0.35546875, -0.783447265625, -0.625, 0, 
96, 1031929549, 0.48275256156921387, 0.6923515200614929, -0.15521977841854095, 0.5133265256881714, 17.169660568237305, 8.064675331115723, -2.392085313796997, -70.48363494873047, 17.46088981628418, -161.98394775390625, -0.337646484375, -0.7998046875, -0.6337890625, 0, 
97, 1031937882, 0.49266159534454346, 0.6907525658607483, -0.1484580934047699, 0.508039116859436, 15.114995956420898, 6.455288410186768, -1.7006886005401611, -67.9991226196289, 25.115835189819336, -164.84768676757812, -0.315185546875, -0.816162109375, -0.6435546875, 0, 
98, 1031946215, 0.502280592918396, 0.6892508864402771, -0.1416572779417038, 0.5025721192359924, 14.074766159057617, 5.642552375793457, -1.5415598154067993, -64.66984558105469, 22.3974552154541, -164.66827392578125, -0.296142578125, -0.8310546875, -0.654541015625, 0, 
99, 1031954548, 0.5114333033561707, 0.6879401206970215, -0.13482670485973358, 0.4969850480556488, 13.675233840942383, 4.753757953643799, -1.599315881729126, -58.9700927734375, 19.244489669799805, -162.87257385253906, -0.276611328125, -0.844970703125, -0.658447265625, 0, 
100, 1031962881, 0.5201088786125183, 0.6867805123329163, -0.12783662974834442, 0.49140119552612305, 12.714949607849121, 3.663843870162964, -1.515745997428894, -52.288116455078125, 18.472396850585938, -161.43350219726562, -0.2568359375, -0.85791015625, -0.666259765625, 0, 
101, 1031971214, 0.5283679962158203, 0.6857014894485474, -0.12069153040647507, 0.485872745513916, 11.671563148498535, 2.6763949394226074, -1.3909705877304077, -46.641822814941406, 18.835407257080078, -159.77593994140625, -0.2333984375, -0.872314453125, -0.673828125, 0, 
102, 1031979547, 0.5360835194587708, 0.6848037242889404, -0.113637775182724, 0.4803568720817566, 10.817498207092285, 2.192307949066162, -1.4245504140853882, -40.7789421081543, 16.169227600097656, -155.5460662841797, -0.2158203125, -0.88330078125, -0.6787109375, 0, 
103, 1031987880, 0.5432736277580261, 0.6840157508850098, -0.10692866891622543, 0.4749112129211426, 9.608695983886719, 0.9400047659873962, -1.1149561405181885, -37.20328903198242, 12.751262664794922, -148.4365234375, -0.1953125, -0.897216796875, -0.68359375, 0, 
104, 1031996213, 0.5499795079231262, 0.6832185387611389, -0.10053779184818268, 0.4697076082229614, 9.704263687133789, 0.18662120401859283, -1.17776358127594, -34.42462158203125, 11.990604400634766, -140.50344848632812, -0.1787109375, -0.90625, -0.69189453125, 0, 
105, 1032004546, 0.55563884973526, 0.6828266382217407, -0.09427269548177719, 0.46489131450653076, 9.208860397338867, -0.2922658920288086, -1.0195353031158447, -21.818450927734375, 10.624359130859375, -130.15475463867188, -0.1572265625, -0.916259765625, -0.696044921875, 0, 
106, 1032012879, 0.5609667897224426, 0.6823910474777222, -0.08824051171541214, 0.46029385924339294, 8.02983570098877, -1.0413106679916382, -0.8232166171073914, -20.22981834411621, 10.738521575927734, -124.15740203857422, -0.142822265625, -0.9248046875, -0.700439453125, 0, 
107, 1032021212, 0.5656043291091919, 0.6821629405021667, -0.08244460821151733, 0.4560115933418274, 7.748083114624023, -1.1490092277526855, -0.9092774391174316, -13.279282569885254, 9.73391056060791, -115.3612289428711, -0.126708984375, -0.931640625, -0.700439453125, 0, 
108, 1032029545, 0.569279134273529, 0.6824390888214111, -0.07705703377723694, 0.451949805021286, 7.347629070281982, -0.8860119581222534, -1.0369834899902344, -2.6211938858032227, 4.361248970031738, -104.38036346435547, -0.111572265625, -0.943115234375, -0.702392578125, 0, 
109, 1032037878, 0.5721086859703064, 0.6830926537513733, -0.07211902737617493, 0.4481886625289917, 5.931673526763916, -2.08229660987854, -0.9290326237678528, 5.773543834686279, 0.43631622195243835, -92.93206024169922, -0.100830078125, -0.94775390625, -0.701904296875, 0, 
110, 1032046211, 0.5745267868041992, 0.6837680339813232, -0.06745591759681702, 0.44477880001068115, 6.003598213195801, -2.1906538009643555, -1.1487754583358765, 8.482644081115723, 1.0157134532928467, -85.09274291992188, -0.08642578125, -0.957275390625, -0.700927734375, 0, 
111, 1032054544, 0.5761194229125977, 0.6849167943000793, -0.06310498714447021, 0.44157829880714417, 5.0231475830078125, -2.546873092651367, -0.8881146311759949, 18.250932693481445, -3.1278605461120605, -75.88261413574219, -0.07568359375, -0.962158203125, -0.70263671875, 0, 
112, 1032062877, 0.5765615701675415, 0.6868159770965576, -0.0592329204082489, 0.43857765197753906, 3.7724320888519287, -3.3493552207946777, -0.6718807220458984, 32.31429672241211, -10.609247207641602, -63.46613311767578, -0.068359375, -0.9677734375, -0.6982421875, 0, 
113, 1032071210, 0.5767003297805786, 0.6888137459754944, -0.05600580945611, 0.4356761574745178, 3.418572187423706, -3.400907516479492, -0.9875775575637817, 32.13364028930664, -15.613638877868652, -54.83343505859375, -0.06298828125, -0.9716796875, -0.690673828125, 0, 
114, 1032079543, 0.5761680006980896, 0.691161572933197, -0.053457170724868774, 0.4329741299152374, 2.7761147022247314, -3.4910318851470947, -1.0791209936141968, 37.374755859375, -21.733585357666016, -43.07794952392578, -0.0556640625, -0.977783203125, -0.687744140625, 0, 
115, 1032087876, 0.5749845504760742, 0.6937552094459534, -0.05159028246998787, 0.4306192398071289, 2.6703619956970215, -3.719594717025757, -1.169539451599121, 41.687259674072266, -25.76055335998535, -30.155866622924805, -0.052001953125, -0.982177734375, -0.679443359375, 0, 
116, 1032096209, 0.5731608867645264, 0.696465253829956, -0.05030025914311409, 0.4288247525691986, 2.494468927383423, -4.164768218994141, -1.1621285676956177, 45.717018127441406, -26.136154174804688, -16.50750732421875, -0.050537109375, -0.987060546875, -0.675048828125, 0, 
117, 1032104542, 0.5705894231796265, 0.6993703246116638, -0.049589239060878754, 0.42760729789733887, 2.3994431495666504, -4.234738349914551, -1.285129189491272, 51.38010025024414, -26.823623657226562, -2.1515119075775146, -0.05126953125, -0.988037109375, -0.665771484375, 0, 
118, 1032112875, 0.5670453310012817, 0.7026170492172241, -0.04955419898033142, 0.4270029067993164, 0.6861051917076111, -5.110397815704346, -1.0268938541412354, 59.879249572753906, -28.92108726501465, 14.657268524169922, -0.0517578125, -0.990966796875, -0.653564453125, 0, 
119, 1032121208, 0.5635741353034973, 0.7056589722633362, -0.05050274357199669, 0.4264705181121826, 1.0040321350097656, -4.918020248413086, -1.260119080543518, 51.82966995239258, -34.621437072753906, 24.416725158691406, -0.056396484375, -0.993408203125, -0.644775390625, 0, 
120, 1032129541, 0.5596789121627808, 0.708716094493866, -0.052332907915115356, 0.42631012201309204, 1.291904091835022, -5.163119316101074, -1.3259257078170776, 51.171878814697266, -38.249778747558594, 38.349308013916016, -0.062255859375, -0.989013671875, -0.638427734375, 0, 
121, 1032137874, 0.5553361177444458, 0.71170973777771, -0.05501216650009155, 0.42666468024253845, 1.5000786781311035, -5.3712687492370605, -1.107301115989685, 50.41698455810547, -39.694175720214844, 53.23244094848633, -0.068603515625, -0.990966796875, -0.62744140625, 0, 
122, 1032146207, 0.550541341304779, 0.7146198749542236, -0.05852416157722473, 0.4275462329387665, 1.7070109844207764, -5.687564373016357, -0.971206784248352, 49.735416412353516, -40.77014923095703, 68.14630889892578, -0.080078125, -0.98828125, -0.6201171875, 0, 
123, 1032154540, 0.5452831387519836, 0.7174398899078369, -0.0629195049405098, 0.42893534898757935, 1.8112268447875977, -5.867870807647705, -0.7225363850593567, 48.8031005859375, -42.28832244873047, 83.43836975097656, -0.0908203125, -0.9814453125, -0.6142578125, 0, 
124, 1032162873, 0.5395474433898926, 0.7201259732246399, -0.06822840124368668, 0.43087124824523926, 2.292203187942505, -6.040431022644043, -0.6857659816741943, 47.61458206176758, -43.39175033569336, 99.51316833496094, -0.105224609375, -0.975341796875, -0.59912109375, 0, 
125, 1032171206, 0.5332889556884766, 0.7226287722587585, -0.07441838085651398, 0.4334403872489929, 2.9322566986083984, -6.317558288574219, -0.6232097744941711, 46.78568649291992, -43.037715911865234, 116.17094421386719, -0.124267578125, -0.9736328125, -0.595458984375, 0, 
126, 1032179539, 0.5264835357666016, 0.7248897552490234, -0.08135902881622314, 0.4367252290248871, 3.405503511428833, -6.41267204284668, -0.46456143260002136, 46.725189208984375, -40.574363708496094, 132.42344665527344, -0.135498046875, -0.95947265625, -0.588623046875, 0, 
127, 1032187872, 0.5191274881362915, 0.7269517779350281, -0.08905252814292908, 0.4405854344367981, 3.5019803047180176, -6.246418476104736, -0.3560243546962738, 46.87228775024414, -39.683658599853516, 147.5777130126953, -0.15771484375, -0.951416015625, -0.576904296875, 0, 
128, 1032196205, 0.5112625956535339, 0.7288452386856079, -0.09739336371421814, 0.44486817717552185, 3.9228837490081787, -6.044297695159912, -0.2205478399991989, 47.376346588134766, -39.709564208984375, 160.40249633789062, -0.177734375, -0.939453125, -0.568359375, 0, 
129, 1032204538, 0.5028911232948303, 0.7305828928947449, -0.1061139851808548, 0.4495411813259125, 4.500043869018555, -5.917773723602295, 0.032134342938661575, 49.53521728515625, -38.16517639160156, 170.2039337158203, -0.2021484375, -0.92626953125, -0.55859375, 0, 
130, 1032212871, 0.4939623475074768, 0.732142448425293, -0.11502313613891602, 0.4546831250190735, 4.946430206298828, -5.6465840339660645, 0.23630034923553467, 53.4429817199707, -34.49810028076172, 179.10372924804688, -0.22607421875, -0.911376953125, -0.55126953125, 0, 
131, 1032221204, 0.48444288969039917, 0.7335569262504578, -0.12407063692808151, 0.46023234724998474, 4.9280781745910645, -5.174501419067383, 0.29486778378486633, 58.16257858276367, -31.338558197021484, 187.11770629882812, -0.247314453125, -0.89599609375, -0.542236328125, 0, 
132, 1032229537, 0.4743548631668091, 0.7348986864089966, -0.13325904309749603, 0.4659954607486725, 5.117986679077148, -4.667111396789551, 0.12175358086824417, 62.907920837402344, -30.654869079589844, 193.75729370117188, -0.273193359375, -0.878173828125, -0.532470703125, 0, 
133, 1032237870, 0.46376803517341614, 0.7361045479774475, -0.14247947931289673, 0.47198188304901123, 5.430333137512207, -4.113987445831299, -0.09340587258338928, 67.2484359741211, -28.628385543823242, 198.90338134765625, -0.296142578125, -0.85693359375, -0.524658203125, 0, 
134, 1032246203, 0.4527653753757477, 0.7371439933776855, -0.15166540443897247, 0.4781399965286255, 5.346926212310791, -3.621307611465454, 0.03214437887072563, 70.97602844238281, -26.42710304260254, 202.75343322753906, -0.317626953125, -0.839599609375, -0.51708984375, 0, 
135, 1032254536, 0.4413854479789734, 0.738089382648468, -0.1608467996120453, 0.4842822253704071, 5.414559841156006, -3.1600379943847656, 0.06359963864088058, 74.19156646728516, -26.704116821289062, 205.1963348388672, -0.342529296875, -0.8173828125, -0.50537109375, 0, 
136, 1032262869, 0.4296521544456482, 0.7389003038406372, -0.16992349922657013, 0.49045857787132263, 5.74586820602417, -2.746501922607422, 0.0507572665810585, 77.75496673583984, -25.632734298706055, 207.0817413330078, -0.36572265625, -0.797607421875, -0.49365234375, 0, 
137, 1032271202, 0.41761162877082825, 0.7395215630531311, -0.17879125475883484, 0.49672946333885193, 5.955824851989746, -2.3097050189971924, -0.048664193600416183, 81.3678970336914, -22.853866577148438, 207.9334259033203, -0.3857421875, -0.7734375, -0.483642578125, 0, 
138, 1032279535, 0.4053427577018738, 0.7399523854255676, -0.18739193677902222, 0.5030407905578613, 5.70087194442749, -1.8177992105484009, -0.07202459126710892, 84.53923034667969, -20.19266700744629, 207.57798767089844, -0.40869140625, -0.749267578125, -0.476318359375, 0, 
139, 1032287868, 0.3929096758365631, 0.7402278780937195, -0.19583959877490997, 0.5092441439628601, 5.398151874542236, -1.2281503677368164, -0.18268530070781708, 86.10556030273438, -19.766860961914062, 206.8472137451172, -0.42822265625, -0.7265625, -0.466552734375, 0, 
140, 1032296201, 0.3804340660572052, 0.740297794342041, -0.2041950523853302, 0.5152975916862488, 5.264951705932617, -0.5880918502807617, -0.37330833077430725, 85.68913269042969, -19.489206314086914, 206.05728149414062, -0.44677734375, -0.7001953125, -0.454345703125, 0, 
141, 1032304534, 0.3680039346218109, 0.7400549054145813, -0.2125534862279892, 0.5212590098381042, 5.18747091293335, -0.08055751770734787, -0.4821721017360687, 83.29000854492188, -18.0792293548584, 206.04901123046875, -0.46630859375, -0.675048828125, -0.4482421875, 0, 
142, 1032312867, 0.35574662685394287, 0.7394258975982666, -0.2209373265504837, 0.5271419286727905, 4.866110324859619, 0.30487367510795593, -0.5084447264671326, 79.18626403808594, -15.752448081970215, 205.91310119628906, -0.4873046875, -0.6513671875, -0.44140625, 0, 
143, 1032321200, 0.3432518541812897, 0.7386749982833862, -0.2288016378879547, 0.5330900549888611, 4.566542148590088, 0.6730207204818726, -0.48549556732177734, 73.86397552490234, -15.632346153259277, 205.23553466796875, -0.501953125, -0.62353515625, -0.4345703125, 0, 
144, 1032329533, 0.33152642846107483, 0.737388551235199, -0.23734326660633087, 0.5385297536849976, 4.667559623718262, 1.0832527875900269, -0.623259961605072, 68.0590591430664, -14.400615692138672, 203.56553649902344, -0.516357421875, -0.595947265625, -0.43017578125, 0, 
145, 1032337866, 0.3201848268508911, 0.7358225584030151, -0.2459637075662613, 0.5436421036720276, 4.054088115692139, 1.7119214534759521, -0.610439658164978, 60.39004135131836, -14.931772232055664, 201.00184631347656, -0.531494140625, -0.572021484375, -0.42724609375, 0, 
146, 1032346199, 0.3093225359916687, 0.7341636419296265, -0.254913330078125, 0.5480334758758545, 4.172356605529785, 2.439728021621704, -0.5022143721580505, 51.07878494262695, -21.185924530029297, 197.8285675048828, -0.550537109375, -0.54296875, -0.42041015625, 0, 
147, 1032354532, 0.2989864647388458, 0.732293426990509, -0.26401492953300476, 0.5519490838050842, 5.315308094024658, 2.745429039001465, -0.6481406688690186, 42.039024353027344, -23.185144424438477, 193.99539184570312, -0.565673828125, -0.514892578125, -0.416748046875, 0, 
148, 1032362865, 0.2892400622367859, 0.7300147414207458, -0.27295151352882385, 0.5558004975318909, 5.857365131378174, 2.89705753326416, -0.6474649906158447, 35.45785140991211, -17.92388153076172, 189.1956024169922, -0.5732421875, -0.489013671875, -0.411865234375, 0, 
149, 1032371198, 0.2798759639263153, 0.7274739742279053, -0.28173020482063293, 0.5595328211784363, 5.417811393737793, 3.1112759113311768, -0.46666914224624634, 31.318145751953125, -15.041647911071777, 185.08358764648438, -0.58251953125, -0.460205078125, -0.409423828125, 0, 
150, 1032379531, 0.2705397307872772, 0.7249883413314819, -0.2904876470565796, 0.5628632307052612, 5.199536323547363, 3.2814643383026123, -0.314358651638031, 29.875694274902344, -19.3096923828125, 183.00997924804688, -0.59716796875, -0.433349609375, -0.408935546875, 0, 
151, 1032387864, 0.26127132773399353, 0.7226186394691467, -0.29905810952186584, 0.5657932758331299, 5.749361991882324, 3.2083706855773926, -0.3480278551578522, 29.460792541503906, -23.221223831176758, 178.55723571777344, -0.606689453125, -0.406982421875, -0.404052734375, 0, 
152, 1032396197, 0.25219520926475525, 0.7204877138137817, -0.3069322109222412, 0.5684064626693726, 6.648157119750977, 3.326766014099121, -0.1660369336605072, 32.54056930541992, -24.945323944091797, 168.13043212890625, -0.614013671875, -0.380859375, -0.401611328125, 0, 
153, 1032404530, 0.24343347549438477, 0.7187837362289429, -0.3138592839241028, 0.5705966353416443, 6.488646984100342, 3.937608242034912, 0.2845826745033264, 36.50776290893555, -27.853199005126953, 152.9136199951172, -0.622314453125, -0.357421875, -0.395751953125, 0, 
154, 1032412863, 0.23462019860744476, 0.7178811430931091, -0.3199852705001831, 0.5720205903053284, 6.671750068664551, 4.681727409362793, 0.5258467197418213, 42.695098876953125, -39.26304244995117, 139.48223876953125, -0.62841796875, -0.33154296875, -0.393310546875, 0, 
155, 1032421196, 0.22551743686199188, 0.7176669239997864, -0.3254881799221039, 0.5728451013565063, 8.436623573303223, 5.3198981285095215, 0.29394564032554626, 50.02090835571289, -49.85580825805664, 130.54489135742188, -0.634765625, -0.31396484375, -0.389404296875, 0, 
156, 1032429529, 0.21625806391239166, 0.7175853848457336, -0.33024823665618896, 0.5737925171852112, 10.419960975646973, 6.13698673248291, -0.4127914607524872, 58.39422607421875, -48.09089660644531, 124.3342514038086, -0.63671875, -0.298583984375, -0.379638671875, 0, 
157, 1032437862, 0.20696905255317688, 0.7170912027359009, -0.33434730768203735, 0.575459897518158, 11.847517013549805, 7.445278644561768, -0.9609583020210266, 65.93108367919922, -35.89844512939453, 121.9686050415039, -0.64599609375, -0.2783203125, -0.374267578125, 0, 
158, 1032446195, 0.19769103825092316, 0.715779721736908, -0.33822885155677795, 0.5780805945396423, 11.954707145690918, 8.843851089477539, -1.5776712894439697, 69.61775207519531, -19.359100341796875, 126.29975128173828, -0.6484375, -0.257080078125, -0.369384765625, 0, 
159, 1032454528, 0.18815511465072632, 0.7138965129852295, -0.3424167037010193, 0.5811180472373962, 11.501649856567383, 9.992650032043457, -1.8926002979278564, 70.08887481689453, -12.747481346130371, 135.0743865966797, -0.65283203125, -0.241455078125, -0.370361328125, 0, 
160, 1032462861, 0.17841337621212006, 0.7117691040039062, -0.3473423719406128, 0.5838702917098999, 12.139701843261719, 10.395248413085938, -1.8553252220153809, 64.25524139404297, -16.472124099731445, 144.4588165283203, -0.656494140625, -0.218017578125, -0.367919921875, 0, 
161, 1032471194, 0.1684950590133667, 0.7093868851661682, -0.35298603773117065, 0.5863264203071594, 13.961580276489258, 11.511809349060059, -2.493665933609009, 58.16428756713867, -19.935258865356445, 153.3288116455078, -0.660888671875, -0.197998046875, -0.364501953125, 0, 
162, 1032479527, 0.1595510095357895, 0.7062618136405945, -0.3591739237308502, 0.588837742805481, 15.172356605529785, 11.574202537536621, -2.8419911861419678, 42.83148193359375, -9.931620597839355, 154.58262634277344, -0.662841796875, -0.170654296875, -0.361572265625, 0, 
163, 1032487860, 0.15103831887245178, 0.7027902007102966, -0.36501777172088623, 0.5916361212730408, 16.641769409179688, 12.635937690734863, -2.8401455879211426, 42.077327728271484, -1.4607468843460083, 150.04307556152344, -0.666015625, -0.148681640625, -0.364013671875, 0, 
164, 1032496193, 0.14446282386779785, 0.6991002559661865, -0.3703708052635193, 0.5943171381950378, 17.301517486572266, 13.653523445129395, -2.7546703815460205, 26.313199996948242, 9.932357788085938, 130.43589782714844, -0.66552734375, -0.131103515625, -0.369873046875, 0, 
165, 1032504526, 0.13878116011619568, 0.6955615282058716, -0.37469637393951416, 0.5971052646636963, 16.712915420532227, 13.852559089660645, -2.311906099319458, 26.958208084106445, 16.310728073120117, 112.67145538330078, -0.667236328125, -0.109130859375, -0.370849609375, 0, 
166, 1032512859, 0.13480371236801147, 0.6923516988754272, -0.3780779242515564, 0.5996101498603821, 17.422388076782227, 14.286954879760742, -2.5458595752716064, 17.582918167114258, 21.49224281311035, 87.43551635742188, -0.666259765625, -0.09765625, -0.375244140625, 0, 
167, 1032521192, 0.13196071982383728, 0.6893819570541382, -0.3802972733974457, 0.6022550463676453, 17.46413230895996, 14.191211700439453, -2.707267999649048, 17.534053802490234, 28.886980056762695, 66.03036499023438, -0.66748046875, -0.087646484375, -0.38330078125, 0, 
168, 1032529525, 0.1302901804447174, 0.6867575645446777, -0.381492018699646, 0.6048560738563538, 17.274276733398438, 14.749921798706055, -2.8399453163146973, 15.306599617004395, 33.61275863647461, 44.71830368041992, -0.663330078125, -0.07861328125, -0.39306640625, 0, 
169, 1032537858, 0.12948168814182281, 0.6845004558563232, -0.38202017545700073, 0.607249915599823, 16.54165267944336, 15.009313583374023, -3.0967562198638916, 12.280587196350098, 34.305973052978516, 28.98709487915039, -0.664306640625, -0.0771484375, -0.39697265625, 0, 
170, 1032546191, 0.12971138954162598, 0.6826236248016357, -0.38212937116622925, 0.6092416048049927, 16.84851837158203, 15.89677906036377, -3.8436055183410645, 4.5696611404418945, 33.55734634399414, 13.6256103515625, -0.663818359375, -0.0703125, -0.40234375, 0, 
171, 1032554524, 0.13089928030967712, 0.6811562776565552, -0.38177138566970825, 0.6108518838882446, 16.384883880615234, 16.514934539794922, -4.173857688903809, -1.7784618139266968, 32.40167236328125, -1.5552335977554321, -0.662353515625, -0.072998046875, -0.40966796875, 0, 
172, 1032562857, 0.13269366323947906, 0.6803776621818542, -0.38085681200027466, 0.6119025349617004, 15.57479476928711, 16.516881942749023, -3.9651055335998535, -4.489013195037842, 25.573427200317383, -16.55074119567871, -0.66015625, -0.0712890625, -0.41455078125, 0, 
173, 1032571190, 0.13499890267848969, 0.6803862452507019, -0.3797696828842163, 0.6120644807815552, 15.00862979888916, 16.253379821777344, -2.768550157546997, -11.022981643676758, 13.61241626739502, -28.113914489746094, -0.65966796875, -0.076904296875, -0.41796875, 0, 
174, 1032579523, 0.1373186558485031, 0.6812166571617126, -0.37874600291252136, 0.6112585067749023, 13.878173828125, 15.76507568359375, -1.3386335372924805, -15.233046531677246, -2.3913862705230713, -33.82477951049805, -0.658203125, -0.079833984375, -0.42041015625, 0, 
175, 1032587856, 0.13896484673023224, 0.6828280091285706, -0.3779262900352478, 0.6095935702323914, 14.006608009338379, 15.16541862487793, -0.568720817565918, -13.621399879455566, -20.906124114990234, -31.816370010375977, -0.658203125, -0.082275390625, -0.41845703125, 0, 
176, 1032596189, 0.1399666965007782, 0.6845966577529907, -0.37735703587532043, 0.6077305674552917, 14.709426879882812, 13.767152786254883, -0.08279554545879364, -10.41464614868164, -27.900251388549805, -25.38485336303711, -0.65771484375, -0.082275390625, -0.41845703125, 0, 
177, 1032604522, 0.14094188809394836, 0.6861951351165771, -0.37652814388275146, 0.6062148213386536, 15.346543312072754, 12.449254989624023, -0.5220075249671936, -6.500962734222412, -22.864604949951172, -25.900638580322266, -0.657470703125, -0.083984375, -0.412109375, 0, 
178, 1032612855, 0.14284372329711914, 0.687579870223999, -0.37468963861465454, 0.6053391695022583, 16.188602447509766, 11.824538230895996, -1.0580933094024658, -3.9451494216918945, -8.269888877868652, -40.95985412597656, -0.656494140625, -0.08837890625, -0.41015625, 0, 
179, 1032621188, 0.14637497067451477, 0.6890233159065247, -0.37144777178764343, 0.6048517823219299, 15.713164329528809, 11.650553703308105, -0.8624669313430786, -5.5331196784973145, 6.043600559234619, -67.1506576538086, -0.657958984375, -0.090576171875, -0.41357421875, 0, 
180, 1032629521, 0.15156738460063934, 0.6908645629882812, -0.3667963743209839, 0.6043111681938171, 15.513307571411133, 11.302714347839355, -1.4191222190856934, -9.042656898498535, 13.572893142700195, -96.64398193359375, -0.664306640625, -0.100341796875, -0.4140625, 0, 
181, 1032637854, 0.15817369520664215, 0.6930322051048279, -0.36085355281829834, 0.6037136912345886, 15.817023277282715, 10.7144193649292, -1.5063880681991577, -11.324014663696289, 20.120433807373047, -122.22626495361328, -0.664794921875, -0.116455078125, -0.4150390625, 0, 
182, 1032646187, 0.16539981961250305, 0.6953893303871155, -0.3541925549507141, 0.6030111908912659, 16.28389549255371, 10.228716850280762, -1.1377217769622803, -11.402637481689453, 22.208580017089844, -135.5883026123047, -0.669921875, -0.13623046875, -0.416015625, 0, 
183, 1032654520, 0.1727149933576584, 0.6976438164710999, -0.3474157154560089, 0.6022980213165283, 17.15791893005371, 9.336743354797363, -1.0100864171981812, -11.55333137512207, 23.628664016723633, -136.73292541503906, -0.67236328125, -0.160400390625, -0.421875, 0, 
184, 1032662853, 0.18010810017585754, 0.6996408104896545, -0.3407745361328125, 0.6016098856925964, 18.081993103027344, 8.520312309265137, -1.367641568183899, -13.943175315856934, 26.07693099975586, -135.01455688476562, -0.67724609375, -0.186767578125, -0.42626953125, 0, 
185, 1032671186, 0.18799778819084167, 0.7016686201095581, -0.3338574767112732, 0.6007121205329895, 19.19618797302246, 7.523864269256592, -2.064998149871826, -17.31661033630371, 26.786357879638672, -142.1915283203125, -0.675537109375, -0.21044921875, -0.43310546875, 0, 
186, 1032679519, 0.19666621088981628, 0.7039613127708435, -0.3259756863117218, 0.5995820760726929, 20.560104370117188, 6.84469747543335, -2.8206565380096436, -17.26984405517578, 28.455495834350586, -160.00059509277344, -0.669677734375, -0.24267578125, -0.4375, 0, 
187, 1032687852, 0.20686626434326172, 0.706565797328949, -0.31704503297805786, 0.5978724956512451, 22.17994499206543, 4.871968746185303, -2.478118896484375, -25.177478790283203, 29.945762634277344, -185.4840545654297, -0.661865234375, -0.27783203125, -0.4404296875, 0, 
188, 1032696185, 0.2179124504327774, 0.7093007564544678, -0.30687904357910156, 0.5960115790367126, 23.46841049194336, 4.028496742248535, -3.0263848304748535, -23.55908203125, 34.63837432861328, -205.71011352539062, -0.6474609375, -0.31298828125, -0.4453125, 0, 
189, 1032704518, 0.22999995946884155, 0.711578369140625, -0.2962628901004791, 0.5941232442855835, 24.474721908569336, 2.9731953144073486, -3.186081886291504, -31.481260299682617, 43.827518463134766, -216.51112365722656, -0.634765625, -0.340087890625, -0.44873046875, 0, 
190, 1032712851, 0.24169810116291046, 0.7133891582489014, -0.28564688563346863, 0.5925047397613525, 24.68523597717285, 2.7304837703704834, -3.345881223678589, -28.080564498901367, 48.73130798339844, -210.84991455078125, -0.61865234375, -0.366943359375, -0.45556640625, 0, 
191, 1032721184, 0.25342676043510437, 0.7147164344787598, -0.2756252884864807, 0.5907488465309143, 24.614274978637695, 1.9437196254730225, -3.282050132751465, -35.341739654541016, 49.428348541259766, -203.5404815673828, -0.604248046875, -0.39111328125, -0.45751953125, 0, 
192, 1032729517, 0.2650880217552185, 0.7159205079078674, -0.26594746112823486, 0.5886054039001465, 25.52136993408203, 1.214972972869873, -4.175261974334717, -39.39694595336914, 45.20487594604492, -200.7812957763672, -0.598388671875, -0.41162109375, -0.4609375, 0, 
193, 1032737850, 0.27469778060913086, 0.7168296575546265, -0.2558797001838684, 0.5875542759895325, 33.121299743652344, 0.24260841310024261, -8.411412239074707, -13.09878158569336, 52.223358154296875, -182.6642608642578, -0.591064453125, -0.43701171875, -0.4619140625, 0, 
194, 1032746183, 0.28586262464523315, 0.7124029994010925, -0.24461229145526886, 0.592391312122345, 29.706363677978516, -5.884720802307129, -2.5414788722991943, -18.19903564453125, 163.43077087402344, -166.3261260986328, -0.590087890625, -0.460205078125, -0.4775390625, 0, 
195, 1032754516, 0.2988559603691101, 0.7103726267814636, -0.23277536034584045, 0.5931860208511353, 19.329618453979492, 0.40738269686698914, -2.9434540271759033, -35.632083892822266, 112.6511001586914, -210.47006225585938, -0.582763671875, -0.492919921875, -0.49658203125, 0, 
196, 1032762849, 0.3130587339401245, 0.7115566730499268, -0.22185896337032318, 0.5886069536209106, 21.85181999206543, -0.08173239231109619, -3.790458917617798, -58.967166900634766, 34.06399154663086, -244.00640869140625, -0.573974609375, -0.533447265625, -0.505126953125, 0, 
197, 1032771182, 0.32851672172546387, 0.7136231660842896, -0.2107526957988739, 0.5817216634750366, 27.551074981689453, -0.8375076055526733, -5.312304973602295, -72.93403625488281, 8.953707695007324, -268.3746643066406, -0.5556640625, -0.57666015625, -0.507568359375, 0, 
198, 1032779515, 0.34519413113594055, 0.7149887084960938, -0.19857576489448547, 0.5746284127235413, 30.06329917907715, -1.6781370639801025, -6.2660603523254395, -80.12342834472656, 20.93873405456543, -287.8231201171875, -0.53173828125, -0.6181640625, -0.516845703125, 0, 
199, 1032787848, 0.36265867948532104, 0.7156491875648499, -0.18598230183124542, 0.5672155022621155, 29.52069091796875, -1.7183144092559814, -6.049197673797607, -88.77715301513672, 27.447284698486328, -297.4697265625, -0.505615234375, -0.664794921875, -0.517822265625, 0, 
200, 1032796181, 0.3804934024810791, 0.7157576680183411, -0.17235887050628662, 0.5596481561660767, 31.150867462158203, -2.178791046142578, -7.81395959854126, -87.55084228515625, 36.36485290527344, -310.11993408203125, -0.471435546875, -0.706298828125, -0.527099609375, 0, 
201, 1032804514, 0.3983989655971527, 0.7139720916748047, -0.15858538448810577, 0.5535076856613159, 30.165447235107422, -1.90000581741333, -5.749889850616455, -93.603515625, 65.89527893066406, -299.9393615722656, -0.433837890625, -0.7490234375, -0.541015625, 0, 
202, 1032812847, 0.4153579771518707, 0.7112435698509216, -0.14585921168327332, 0.5480270385742188, 28.485218048095703, -2.6801912784576416, -6.842255592346191, -96.02713012695312, 71.79462432861328, -277.02056884765625, -0.404541015625, -0.779296875, -0.556640625, 0, 
203, 1032821180, 0.43186303973197937, 0.7082484364509583, -0.13377107679843903, 0.5422008037567139, 26.58384132385254, -2.788518190383911, -6.0752410888671875, -98.59717559814453, 65.82466888427734, -268.57684326171875, -0.364990234375, -0.807373046875, -0.569091796875, 0, 
204, 1032829513, 0.4483974277973175, 0.7050652503967285, -0.12221844494342804, 0.5356147885322571, 25.615140914916992, -2.9757609367370605, -6.139606952667236, -105.4027099609375, 56.743831634521484, -267.9652404785156, -0.33642578125, -0.831787109375, -0.583740234375, 0, 
205, 1032837846, 0.4649205207824707, 0.7014686465263367, -0.11069692671298981, 0.5287105441093445, 26.005720138549805, -3.533209800720215, -6.309647560119629, -108.59817504882812, 56.449371337890625, -268.6552429199219, -0.30224609375, -0.8603515625, -0.6015625, 0, 
206, 1032846179, 0.4811548590660095, 0.6970676183700562, -0.09893164038658142, 0.5223000049591064, 25.626211166381836, -3.901796340942383, -6.220860958099365, -108.44194793701172, 68.22339630126953, -264.7201843261719, -0.267822265625, -0.8798828125, -0.6162109375, 0, 
207, 1032854512, 0.4967069625854492, 0.6921007633209229, -0.08740593492984772, 0.5163690447807312, 23.944814682006836, -3.5134592056274414, -5.682675361633301, -106.70626068115234, 74.3335952758789, -253.41468811035156, -0.234619140625, -0.902099609375, -0.634521484375, 0, 
208, 1032862845, 0.5114628076553345, 0.686867892742157, -0.07647144794464111, 0.5106551647186279, 23.11206817626953, -3.145409107208252, -5.6607513427734375, -104.88844299316406, 73.32992553710938, -240.49044799804688, -0.197265625, -0.924072265625, -0.65478515625, 0, 
209, 1032871178, 0.5256553888320923, 0.6813427209854126, -0.06584130227565765, 0.5050954222679138, 22.389541625976562, -2.9094231128692627, -5.977535724639893, -103.59769439697266, 74.0765380859375, -232.1363067626953, -0.166259765625, -0.93603515625, -0.6728515625, 0, 
210, 1032879511, 0.5394655466079712, 0.6756173968315125, -0.0553029403090477, 0.4994571805000305, 21.46723747253418, -3.0090157985687256, -5.8789381980896, -102.16999053955078, 73.75009155273438, -229.13909912109375, -0.12939453125, -0.94970703125, -0.689697265625, 0, 
211, 1032887844, 0.5525878667831421, 0.6700804233551025, -0.04476776719093323, 0.49359163641929626, 20.554916381835938, -3.6744537353515625, -5.76525354385376, -94.58028411865234, 69.77249908447266, -226.10800170898438, -0.097412109375, -0.96337890625, -0.708740234375, 0, 
212, 1032896177, 0.5655004382133484, 0.6642833352088928, -0.03435595706105232, 0.4876008629798889, 19.521406173706055, -3.771087169647217, -5.382546901702881, -95.53467559814453, 69.34368133544922, -224.44252014160156, -0.062255859375, -0.97216796875, -0.72509765625, 0, 
213, 1032904510, 0.5776609182357788, 0.6587536931037903, -0.024341586977243423, 0.4814114272594452, 18.445049285888672, -3.767429828643799, -5.024528503417969, -89.3519515991211, 62.272029876708984, -217.36331176757812, -0.02734375, -0.981689453125, -0.740966796875, 0, 
214, 1032912843, 0.588698148727417, 0.6537988781929016, -0.014747881330549717, 0.47514447569847107, 18.225446701049805, -3.939924478530884, -4.777146816253662, -77.41070556640625, 54.062076568603516, -206.9990692138672, 0.004150390625, -0.989990234375, -0.755126953125, 0, 
215, 1032921176, 0.5986594557762146, 0.649222195148468, -0.0055106887593865395, 0.46913233399391174, 16.058549880981445, -4.9751787185668945, -4.455842018127441, -66.96403503417969, 50.770729064941406, -194.72476196289062, 0.0380859375, -0.993408203125, -0.7666015625, 0, 
216, 1032929509, 0.6078232526779175, 0.6449916362762451, 0.003251854330301285, 0.46316760778427124, 14.974607467651367, -4.7028489112854, -4.249149799346924, -60.0400276184082, 44.998878479003906, -185.02842712402344, 0.06640625, -1.00146484375, -0.779296875, 0, 
217, 1032937842, 0.6160876154899597, 0.6414253115653992, 0.011417608708143234, 0.4570309817790985, 13.840581893920898, -4.883054733276367, -4.11922550201416, -50.320377349853516, 34.296173095703125, -175.38848876953125, 0.093505859375, -1.00634765625, -0.788818359375, 0, 
218, 1032946175, 0.6231094598770142, 0.6387652158737183, 0.01904190331697464, 0.4509425759315491, 13.561371803283691, -4.986722946166992, -4.1133928298950195, -35.07668685913086, 24.632362365722656, -162.27474975585938, 0.115966796875, -1.008056640625, -0.794677734375, 0, 
219, 1032954508, 0.6292904019355774, 0.636451005935669, 0.02616904303431511, 0.44523799419403076, 10.816839218139648, -5.958258152008057, -3.5529773235321045, -27.928098678588867, 21.828929901123047, -149.30836486816406, 0.142822265625, -1.011962890625, -0.799072265625, 0, 
220, 1032962841, 0.6346909999847412, 0.634619951248169, 0.032640013843774796, 0.43972429633140564, 9.687947273254395, -5.404134273529053, -3.5745184421539307, -20.98496437072754, 15.133764266967773, -136.96485900878906, 0.16064453125, -1.0166015625, -0.802734375, 0, 
221, 1032971174, 0.6392601132392883, 0.6335336565971375, 0.03802803158760071, 0.4342043995857239, 8.464852333068848, -5.302472114562988, -3.4146130084991455, -13.793591499328613, 1.511183261871338, -122.22106170654297, 0.18212890625, -1.016357421875, -0.8056640625, 0, 
222, 1032979507, 0.6429934501647949, 0.6329869031906128, 0.04231177270412445, 0.42906254529953003, 8.171549797058105, -5.428319454193115, -3.4704430103302, -8.541136741638184, -7.701851844787598, -103.98921203613281, 0.19287109375, -1.02197265625, -0.806640625, 0, 
223, 1032987840, 0.6458075642585754, 0.6329543590545654, 0.04556947946548462, 0.4245266318321228, 7.793664455413818, -5.151633262634277, -3.395643711090088, -2.4209065437316895, -13.97658634185791, -84.00645446777344, 0.20849609375, -1.023193359375, -0.80712890625, 0, 
224, 1032996173, 0.647970974445343, 0.6331571340560913, 0.04792303591966629, 0.4206509590148926, 6.503582000732422, -5.166034698486328, -3.2274718284606934, -0.33919790387153625, -17.246788024902344, -66.2955093383789, 0.21630859375, -1.024169921875, -0.80615234375, 0, 
225, 1033004506, 0.6493980884552002, 0.6336573958396912, 0.04942464828491211, 0.417511522769928, 6.348650932312012, -4.9684600830078125, -3.0216197967529297, 3.289977550506592, -19.63690757751465, -47.90287399291992, 0.21923828125, -1.023681640625, -0.80712890625, 0, 
226, 1033012839, 0.6499643325805664, 0.6345624327659607, 0.05001283437013626, 0.4151792824268341, 5.786118984222412, -5.178762435913086, -2.9390697479248047, 8.633109092712402, -22.52581787109375, -27.47677230834961, 0.22509765625, -1.0263671875, -0.80419921875, 0, 
227, 1033021172, 0.6496331095695496, 0.6359169483184814, 0.04957256466150284, 0.41367533802986145, 4.57259464263916, -5.401857852935791, -2.9318180084228516, 14.016733169555664, -26.409690856933594, -5.715704917907715, 0.22607421875, -1.02734375, -0.80224609375, 0, 
228, 1033029505, 0.6484038233757019, 0.6380884647369385, 0.04766054451465607, 0.41248300671577454, 4.157173156738281, -5.307712554931641, -2.6047868728637695, 20.608795166015625, -40.897857666015625, 15.653121948242188, 0.224609375, -1.02587890625, -0.798828125, 0, 
229, 1033037838, 0.6464966535568237, 0.6407383680343628, 0.044343166053295135, 0.4117377698421478, 2.0862162113189697, -6.131479263305664, -2.6284730434417725, 22.531780242919922, -51.74379348754883, 36.07551574707031, 0.21630859375, -1.027099609375, -0.79736328125, 0, 
230, 1033046171, 0.6438878178596497, 0.6437543630599976, 0.039904460310935974, 0.41157546639442444, 3.2261972427368164, -6.221842288970947, -2.7100579738616943, 25.290550231933594, -58.25286102294922, 55.38961410522461, 0.201416015625, -1.023681640625, -0.7890625, 0, 
231, 1033054504, 0.6404338479042053, 0.647185206413269, 0.03441374748945236, 0.4120796024799347, 2.9245753288269043, -6.576694965362549, -2.4306557178497314, 30.099079132080078, -63.51399230957031, 75.55554962158203, 0.190185546875, -1.0263671875, -0.78564453125, 0, 
232, 1033062837, 0.6360341906547546, 0.6510135531425476, 0.027826892212033272, 0.4133591651916504, 2.925952911376953, -6.822330951690674, -2.401836395263672, 35.463932037353516, -68.11114501953125, 97.74610137939453, 0.176025390625, -1.020751953125, -0.777099609375, 0, 
233, 1033071170, 0.6306343674659729, 0.655209481716156, 0.020108278840780258, 0.4154447317123413, 2.9319331645965576, -6.951842784881592, -2.2605109214782715, 40.86605453491211, -72.46412658691406, 120.689208984375, 0.15478515625, -1.0205078125, -0.772216796875, 0, 
234, 1033079503, 0.6242911219596863, 0.6598113179206848, 0.011280711740255356, 0.4180673062801361, 3.1765596866607666, -6.998492240905762, -1.9432169198989868, 46.430030822753906, -79.33737182617188, 140.90858459472656, 0.12890625, -1.016357421875, -0.760986328125, 0, 
235, 1033087836, 0.6168821454048157, 0.6648846864700317, 0.0014980966225266457, 0.42116573452949524, 4.200035095214844, -7.171196460723877, -1.7382315397262573, 54.556053161621094, -85.73287963867188, 159.78927612304688, 0.106201171875, -1.013427734375, -0.75390625, 0, 
236, 1033096169, 0.6082932949066162, 0.6702376008033752, -0.008919889107346535, 0.4250638484954834, 4.884601593017578, -7.115617752075195, -1.6342685222625732, 64.04658508300781, -85.43929290771484, 179.29469299316406, 0.07666015625, -1.01025390625, -0.7392578125, 0, 
237, 1033104502, 0.598540723323822, 0.6758863925933838, -0.02006385289132595, 0.4295603632926941, 4.970335960388184, -6.654399871826172, -1.5033925771713257, 73.05254364013672, -87.83213806152344, 197.68409729003906, 0.0478515625, -1.001953125, -0.728271484375, 0, 
238, 1033112835, 0.5878544449806213, 0.6817206144332886, -0.032065462321043015, 0.43434321880340576, 5.193229675292969, -5.750647068023682, -1.7969377040863037, 78.29593658447266, -93.62141418457031, 213.5535430908203, 0.010986328125, -0.9912109375, -0.710205078125, 0, 
239, 1033121168, 0.5763443112373352, 0.6875753998756409, -0.0449267253279686, 0.43937113881111145, 6.425628185272217, -4.787619590759277, -1.7979322671890259, 81.13595581054688, -98.72439575195312, 228.4256591796875, -0.0205078125, -0.983154296875, -0.69921875, 0, 
240, 1033129501, 0.5639350414276123, 0.6932321786880493, -0.05835774913430214, 0.4449707567691803, 8.174102783203125, -4.077173233032227, -1.481341004371643, 85.00462341308594, -97.23041534423828, 243.9845733642578, -0.060302734375, -0.970947265625, -0.681396484375, 0, 
241, 1033137834, 0.550530731678009, 0.6985613107681274, -0.07209432125091553, 0.45136311650276184, 9.215324401855469, -3.3700780868530273, -1.2014440298080444, 90.68990325927734, -90.80056762695312, 259.3106994628906, -0.097412109375, -0.955810546875, -0.664306640625, 0, 
242, 1033146167, 0.5362200140953064, 0.7035725712776184, -0.08607728779315948, 0.458304226398468, 9.469903945922852, -2.2953526973724365, -1.1556613445281982, 96.03148651123047, -86.35574340820312, 271.8630065917969, -0.13671875, -0.938720703125, -0.6455078125, 0, 
243, 1033154500, 0.5211966037750244, 0.7083136439323425, -0.10042104870080948, 0.46535953879356384, 9.685857772827148, -0.9120774865150452, -1.354837417602539, 98.77510070800781, -87.01679229736328, 280.91552734375, -0.171630859375, -0.921630859375, -0.630126953125, 0, 
244, 1033162833, 0.505726158618927, 0.7126343846321106, -0.1150682345032692, 0.4723881483078003, 10.24030590057373, 0.5519648194313049, -1.7472745180130005, 98.16173553466797, -87.41413879394531, 287.2179870605469, -0.212158203125, -0.898193359375, -0.611083984375, 0, 
245, 1033171166, 0.4900539815425873, 0.7163779735565186, -0.1299680769443512, 0.47932884097099304, 10.824145317077637, 2.077807903289795, -1.9132288694381714, 94.3214111328125, -86.57007598876953, 291.2039489746094, -0.25, -0.8740234375, -0.58837890625, 0, 
246, 1033179499, 0.47440606355667114, 0.7194384336471558, -0.14500705897808075, 0.4861258268356323, 11.366755485534668, 3.3588876724243164, -1.902583360671997, 88.32820892333984, -84.41144561767578, 292.7707214355469, -0.289306640625, -0.84521484375, -0.572265625, 0, 
247, 1033187832, 0.45883870124816895, 0.7217440605163574, -0.15996497869491577, 0.4929116666316986, 11.889425277709961, 4.087799072265625, -1.7656669616699219, 83.09900665283203, -78.75033569335938, 292.7578430175781, -0.322021484375, -0.81787109375, -0.559814453125, 0, 
248, 1033196165, 0.44327986240386963, 0.7233507037162781, -0.1746247112751007, 0.49977099895477295, 11.803119659423828, 4.383726596832275, -1.1846760511398315, 80.81201171875, -71.41603088378906, 291.84588623046875, -0.357177734375, -0.787841796875, -0.543701171875, 0, 
249, 1033204498, 0.4276549518108368, 0.7244786620140076, -0.18889865279197693, 0.506514847278595, 11.2781343460083, 4.70352029800415, -0.8544873595237732, 80.90312194824219, -67.05036926269531, 288.8042907714844, -0.38916015625, -0.756591796875, -0.52490234375, 0, 
250, 1033212831, 0.4120933711528778, 0.725305438041687, -0.20270144939422607, 0.5128561854362488, 10.194764137268066, 5.396633625030518, -0.7792651653289795, 80.75899505615234, -66.05914306640625, 282.1837463378906, -0.41748046875, -0.7216796875, -0.5146484375, 0, 
251, 1033221164, 0.39669284224510193, 0.7259711623191833, -0.21612855792045593, 0.5185433626174927, 9.643451690673828, 6.179579257965088, -0.7613247632980347, 79.04264068603516, -68.8375473022461, 273.94171142578125, -0.44287109375, -0.690673828125, -0.496337890625, 0, 
252, 1033229497, 0.38152486085891724, 0.7263844609260559, -0.22908499836921692, 0.5237579345703125, 9.32563304901123, 6.4297003746032715, -0.527378499507904, 77.31880187988281, -68.5274658203125, 265.8551025390625, -0.47119140625, -0.65771484375, -0.484130859375, 0, 
253, 1033237830, 0.3665850758552551, 0.7264906764030457, -0.24130934476852417, 0.5287670493125916, 9.142143249511719, 6.075684070587158, -0.12513554096221924, 78.03363800048828, -63.783447265625, 256.6929016113281, -0.49072265625, -0.62255859375, -0.473388671875, 0, 
254, 1033246163, 0.3519340753555298, 0.7262840867042542, -0.25255781412124634, 0.5337289571762085, 8.060009002685547, 5.847714424133301, 0.26755040884017944, 80.53050994873047, -56.127723693847656, 245.73597717285156, -0.5166015625, -0.589111328125, -0.4619140625, 0, 
255, 1033254496, 0.33709990978240967, 0.7263302803039551, -0.2624979615211487, 0.5384243726730347, 6.403896808624268, 5.894313812255859, 0.8343881368637085, 82.94490051269531, -57.07966995239258, 233.599609375, -0.53076171875, -0.558837890625, -0.4482421875, 0, 
256, 1033262829, 0.32276907563209534, 0.7265390157699585, -0.2722058892250061, 0.5420917272567749, 6.175919055938721, 5.745657444000244, 1.2241992950439453, 85.99374389648438, -63.527801513671875, 220.44187927246094, -0.548828125, -0.5263671875, -0.4384765625, 0, 
257, 1033271162, 0.3087080419063568, 0.7267671227455139, -0.28101325035095215, 0.5454708337783813, 6.100611209869385, 5.575652599334717, 1.618673324584961, 89.00489807128906, -61.52175521850586, 208.00152587890625, -0.5634765625, -0.49755859375, -0.42236328125, 0, 
258, 1033279495, 0.29516181349754333, 0.7269307971000671, -0.28909310698509216, 0.548520028591156, 4.966745376586914, 6.011380672454834, 2.10762095451355, 87.77953338623047, -59.27983474731445, 195.7950897216797, -0.5791015625, -0.468994140625, -0.408447265625, 0, 
259, 1033287828, 0.2822366952896118, 0.727268397808075, -0.2968999743461609, 0.5507010817527771, 4.409621238708496, 6.845003604888916, 2.4454405307769775, 80.87361145019531, -65.67730712890625, 184.09442138671875, -0.58837890625, -0.444580078125, -0.397705078125, 0, 
260, 1033296161, 0.27003610134124756, 0.7275241017341614, -0.3043963313102722, 0.5523858666419983, 6.108041286468506, 7.327727317810059, 2.165499210357666, 73.64556121826172, -65.87109375, 173.9801788330078, -0.6025390625, -0.414794921875, -0.385009765625, 0, 
261, 1033304494, 0.2588079869747162, 0.7271468043327332, -0.31125080585479736, 0.5544339418411255, 6.797211647033691, 7.287869930267334, 2.657451629638672, 67.94831085205078, -50.964656829833984, 164.1064453125, -0.60986328125, -0.391845703125, -0.374755859375, 0, 
262, 1033312827, 0.24843254685401917, 0.726370096206665, -0.3174733519554138, 0.5566655993461609, 5.782371520996094, 7.3304057121276855, 3.283074378967285, 63.619598388671875, -40.195247650146484, 153.70985412597656, -0.61767578125, -0.365478515625, -0.368896484375, 0, 
263, 1033321160, 0.23863177001476288, 0.7254219651222229, -0.32335415482521057, 0.5588005185127258, 5.647154331207275, 7.274133682250977, 3.090461492538452, 59.47486877441406, -36.16376876831055, 146.26304626464844, -0.62744140625, -0.347900390625, -0.357666015625, 0, 
264, 1033329493, 0.229481041431427, 0.7239257097244263, -0.3290547728538513, 0.5612406134605408, 5.712987422943115, 7.484423637390137, 2.126084327697754, 53.94418716430664, -25.433332443237305, 142.95941162109375, -0.634765625, -0.324951171875, -0.35498046875, 0, 
265, 1033337826, 0.2208675742149353, 0.7218798398971558, -0.33450207114219666, 0.5641043186187744, 4.9570183753967285, 7.623901844024658, 1.7930309772491455, 50.722354888916016, -13.742499351501465, 140.0738983154297, -0.635986328125, -0.301025390625, -0.355224609375, 0, 
266, 1033346159, 0.21321192383766174, 0.7194911241531372, -0.3400329053401947, 0.5667883157730103, 4.191189289093018, 7.408361911773682, 1.7448400259017944, 38.70805740356445, -8.715611457824707, 134.54554748535156, -0.640869140625, -0.284423828125, -0.352294921875, 0, 
267, 1033354492, 0.20600199699401855, 0.7168734669685364, -0.3455052673816681, 0.5694558024406433, 3.7561585903167725, 7.170892238616943, 1.1701604127883911, 33.998409271240234, -4.8399271965026855, 131.47955322265625, -0.646240234375, -0.260009765625, -0.351318359375, 0, 
268, 1033362825, 0.19927829504013062, 0.714003324508667, -0.35087451338768005, 0.5721648931503296, 3.8826889991760254, 6.462284088134766, 1.1189613342285156, 29.502002716064453, 0.15127995610237122, 128.00827026367188, -0.651611328125, -0.243408203125, -0.352783203125, 0, 
269, 1033371158, 0.19311949610710144, 0.7112096548080444, -0.35590219497680664, 0.574645459651947, 3.675811767578125, 6.126275539398193, 1.010885238647461, 25.744384765625, 0.9632102847099304, 119.19159698486328, -0.65185546875, -0.222412109375, -0.351806640625, 0, 
270, 1033379491, 0.1876169741153717, 0.7087695002555847, -0.36020350456237793, 0.5767991542816162, 3.6897494792938232, 5.734968185424805, 0.7445015907287598, 24.40994644165039, 0.11741683632135391, 104.32572937011719, -0.65966796875, -0.207275390625, -0.353271484375, 0, 
271, 1033387824, 0.18290847539901733, 0.7067664265632629, -0.3635953366756439, 0.5786381363868713, 3.613774299621582, 5.652533531188965, 0.4297211766242981, 23.44687271118164, -0.14194227755069733, 86.16865539550781, -0.657958984375, -0.190185546875, -0.356689453125, 0, 
272, 1033396157, 0.17889198660850525, 0.7054116725921631, -0.3662949800491333, 0.5798431038856506, 2.9541022777557373, 6.072183609008789, 0.3450106978416443, 20.696117401123047, -6.255216598510742, 69.11431121826172, -0.659912109375, -0.181396484375, -0.357666015625, 0, 
273, 1033404490, 0.17504122853279114, 0.7048271298408508, -0.3687731623649597, 0.5801582932472229, 3.4369637966156006, 6.733606815338135, 0.26740074157714844, 18.263017654418945, -19.657886505126953, 59.565670013427734, -0.661376953125, -0.171142578125, -0.353759765625, 0, 
274, 1033412823, 0.1706772893667221, 0.7046917080879211, -0.3710729777812958, 0.580156683921814, 5.530341625213623, 6.767992973327637, -0.49956226348876953, 24.138290405273438, -28.478116989135742, 58.90146255493164, -0.662841796875, -0.157958984375, -0.349365234375, 0, 
275, 1033421156, 0.16642409563064575, 0.7043755650520325, -0.3732079267501831, 0.580406904220581, 6.230774402618408, 6.589140892028809, -0.5515924692153931, 25.237707138061523, -23.64811897277832, 57.93010711669922, -0.665771484375, -0.149169921875, -0.346923828125, 0, 
276, 1033429489, 0.1621881127357483, 0.7041707038879395, -0.37505215406417847, 0.5806659460067749, 6.892062664031982, 7.025676727294922, -0.5734608173370361, 27.69452476501465, -23.690174102783203, 54.42933654785156, -0.666259765625, -0.14208984375, -0.344482421875, 0, 
277, 1033437822, 0.15783153474330902, 0.7042322158813477, -0.3764500021934509, 0.5808868408203125, 7.697062015533447, 6.795238494873047, -0.732194185256958, 32.82420349121094, -25.821563720703125, 49.615447998046875, -0.668701171875, -0.134521484375, -0.343505859375, 0, 
278, 1033446155, 0.15401217341423035, 0.7044754028320312, -0.3775118291378021, 0.5809280872344971, 7.799419403076172, 6.475050449371338, -0.6625393629074097, 29.77112579345703, -25.49555015563965, 40.73484802246094, -0.669189453125, -0.12841796875, -0.340576171875, 0, 
279, 1033454488, 0.15009509027004242, 0.705186665058136, -0.37819087505340576, 0.5806487202644348, 8.975539207458496, 6.91300106048584, -0.8775272369384766, 33.102012634277344, -32.04426193237305, 34.70815658569336, -0.672119140625, -0.123779296875, -0.339111328125, 0, 
280, 1033462821, 0.14649014174938202, 0.7057923078536987, -0.37896695733070374, 0.5803275108337402, 10.64211368560791, 7.401801109313965, -1.3603860139846802, 28.864906311035156, -30.1766300201416, 33.60923767089844, -0.673095703125, -0.11962890625, -0.333251953125, 0, 
281, 1033471154, 0.14214849472045898, 0.7061271667480469, -0.3798825740814209, 0.5804010629653931, 11.56319808959961, 7.795993804931641, -1.0679912567138672, 36.41452407836914, -28.3139591217041, 43.06787109375, -0.675048828125, -0.11474609375, -0.331298828125, 0, 
282, 1033479487, 0.1373981237411499, 0.7059437036514282, -0.3812747299671173, 0.5808553695678711, 12.179387092590332, 7.518564224243164, -0.952396035194397, 37.55396270751953, -23.537500381469727, 54.390602111816406, -0.676025390625, -0.10693359375, -0.327392578125, 0, 
283, 1033487820, 0.13277508318424225, 0.7051504850387573, -0.38306352496147156, 0.5817162990570068, 13.217021942138672, 7.002982139587402, -1.3830642700195312, 34.13327407836914, -14.80941104888916, 61.214271545410156, -0.678466796875, -0.10107421875, -0.32373046875, 0, 
284, 1033496153, 0.1278756558895111, 0.7038578987121582, -0.3846629858016968, 0.583321750164032, 14.715423583984375, 7.183409690856934, -1.9842565059661865, 41.33498764038086, -4.697048187255859, 65.55443572998047, -0.679443359375, -0.0908203125, -0.323974609375, 0, 
285, 1033504486, 0.12354135513305664, 0.7020865678787231, -0.3860004246234894, 0.5855028033256531, 14.541316032409668, 7.178560256958008, -2.493229866027832, 40.17387008666992, 8.154767036437988, 62.06174850463867, -0.6767578125, -0.07958984375, -0.328857421875, 0, 
286, 1033512819, 0.1195673793554306, 0.7002200484275818, -0.3869224786758423, 0.5879493355751038, 14.952690124511719, 7.434082984924316, -2.930983066558838, 41.28260040283203, 14.112712860107422, 56.07516098022461, -0.68212890625, -0.07275390625, -0.336669921875, 0, 
287, 1033521152, 0.11623448878526688, 0.698541522026062, -0.3874439299106598, 0.5902664661407471, 14.744902610778809, 7.369623184204102, -2.7921299934387207, 37.97464370727539, 15.40365982055664, 45.8592414855957, -0.68359375, -0.06640625, -0.335205078125, 0, 
288, 1033529485, 0.11335138231515884, 0.6974676251411438, -0.3875333070755005, 0.5920358300209045, 16.12265968322754, 8.11206340789795, -2.8205037117004395, 35.20417404174805, 8.334632873535156, 33.92202377319336, -0.679443359375, -0.0595703125, -0.340087890625, 0, 
289, 1033537818, 0.11099990457296371, 0.6969571113586426, -0.3871959149837494, 0.5933021306991577, 15.89780330657959, 8.231246948242188, -3.2080488204956055, 31.781700134277344, 2.4111478328704834, 21.75990867614746, -0.681396484375, -0.0576171875, -0.342529296875, 0, 
290, 1033546151, 0.10931400209665298, 0.6969208717346191, -0.38638758659362793, 0.5941840410232544, 17.30462646484375, 8.969915390014648, -3.58048677444458, 27.91646385192871, -0.8701032996177673, 8.658360481262207, -0.677490234375, -0.056640625, -0.345458984375, 0, 
291, 1033554484, 0.10846582055091858, 0.6971874237060547, -0.3850833475589752, 0.5948728322982788, 17.348997116088867, 9.420862197875977, -4.0599775314331055, 23.377485275268555, -0.010898863896727562, -4.784114837646484, -0.677490234375, -0.060546875, -0.343505859375, 0, 
292, 1033562817, 0.10857367515563965, 0.6976128220558167, -0.3833187222480774, 0.5954938530921936, 17.825769424438477, 10.162792205810547, -4.368812084197998, 17.847213745117188, 3.8013081550598145, -18.01543617248535, -0.677001953125, -0.06396484375, -0.345458984375, 0, 
293, 1033571150, 0.1097363531589508, 0.6982159614562988, -0.38113588094711304, 0.595974862575531, 16.72867774963379, 10.524247169494629, -4.270652770996094, 10.69064998626709, 7.177091121673584, -31.7492733001709, -0.678955078125, -0.06787109375, -0.348388671875, 0, 
294, 1033579483, 0.11173049360513687, 0.6991402506828308, -0.3785666227340698, 0.5961583256721497, 16.731599807739258, 11.298812866210938, -3.832078456878662, 4.788973808288574, 6.64011812210083, -44.468833923339844, -0.677490234375, -0.07421875, -0.346435546875, 0, 
295, 1033587816, 0.11375577002763748, 0.700229823589325, -0.37609484791755676, 0.5960607528686523, 16.235485076904297, 12.667407989501953, -2.3167622089385986, 2.4935758113861084, 2.5845062732696533, -45.00855255126953, -0.676025390625, -0.08056640625, -0.353271484375, 0, 
296, 1033596149, 0.11509869247674942, 0.7010533213615417, -0.3745208978652954, 0.5958259701728821, 14.934990882873535, 13.30080795288086, -1.593431830406189, 0.5684827566146851, -1.478493094444275, -29.679271697998047, -0.671630859375, -0.08642578125, -0.351806640625, 0, 
297, 1033604482, 0.11564560979604721, 0.7012350559234619, -0.374083548784256, 0.5957810878753662, 13.984742164611816, 12.868671417236328, -1.5655797719955444, -1.0947139263153076, -0.2997249662876129, -8.51441478729248, -0.670654296875, -0.08740234375, -0.355712890625, 0, 
298, 1033612815, 0.11662908643484116, 0.7007399201393127, -0.3746674656867981, 0.5958049297332764, 13.312864303588867, 12.52912712097168, -1.185379147529602, -14.409919738769531, 6.542595386505127, 1.2690320014953613, -0.670166015625, -0.08544921875, -0.357177734375, 0, 
299, 1033621148, 0.1179707869887352, 0.7006950378417969, -0.3750784695148468, 0.5953349471092224, 13.312485694885254, 12.3673734664917, -0.7308228015899658, -18.250751495361328, 0.20435042679309845, -6.357057571411133, -0.667724609375, -0.0810546875, -0.354736328125, 0, 
300, 1033629481, 0.12106135487556458, 0.701379120349884, -0.37469613552093506, 0.5941487550735474, 14.664952278137207, 12.96557331085205, -1.1389371156692505, -31.13581085205078, -2.3435404300689697, -33.32741928100586, -0.666748046875, -0.08251953125, -0.353759765625, 0, 
301, 1033637814, 0.1257353127002716, 0.7027976512908936, -0.3730204105377197, 0.5925537943840027, 14.994747161865234, 12.780195236206055, -0.7171986103057861, -36.70553207397461, -1.9926302433013916, -63.111473083496094, -0.668701171875, -0.08544921875, -0.356201171875, 0, 
302, 1033646147, 0.13232557475566864, 0.7045899629592896, -0.37020283937454224, 0.5907543897628784, 16.72886085510254, 11.973608016967773, -0.5917477607727051, -46.34126281738281, 4.806992053985596, -92.126708984375, -0.670166015625, -0.091796875, -0.358154296875, 0, 
303, 1033654480, 0.1406969279050827, 0.7061247229576111, -0.36630356311798096, 0.5894167423248291, 17.930723190307617, 10.616896629333496, -0.13840007781982422, -52.913360595703125, 22.39313316345215, -114.8247299194336, -0.67138671875, -0.106689453125, -0.358154296875, 0, 
304, 1033662813, 0.15052753686904907, 0.7073307633399963, -0.3611201345920563, 0.588740348815918, 19.303892135620117, 9.049820899963379, -0.3015673756599426, -53.996253967285156, 41.329586029052734, -136.28871154785156, -0.67578125, -0.118896484375, -0.363037109375, 0, 
305, 1033671146, 0.1619078665971756, 0.708227813243866, -0.35434746742248535, 0.5887573957443237, 20.642332077026367, 7.9959306716918945, -0.9979990124702454, -53.3818359375, 61.54262924194336, -161.2198486328125, -0.6845703125, -0.14306640625, -0.370361328125, 0, 
306, 1033679479, 0.17464768886566162, 0.7090018391609192, -0.34580495953559875, 0.5892638564109802, 21.33013916015625, 7.407061576843262, -1.2845402956008911, -50.20026779174805, 77.89128875732422, -187.88235473632812, -0.68701171875, -0.174560546875, -0.384033203125, 0, 
307, 1033687812, 0.18851739168167114, 0.7100856900215149, -0.335767924785614, 0.5894891619682312, 22.02486801147461, 7.226243495941162, -1.5611568689346313, -49.681087493896484, 81.5839614868164, -213.65296936035156, -0.68603515625, -0.21240234375, -0.400146484375, 0, 
308, 1033696145, 0.20257265865802765, 0.7116640210151672, -0.32483118772506714, 0.5890510082244873, 23.254257202148438, 7.59497594833374, -2.291020154953003, -46.00040054321289, 74.30601501464844, -228.05679321289062, -0.68115234375, -0.255859375, -0.413818359375, 0, 
309, 1033704478, 0.21650278568267822, 0.7134622931480408, -0.3136652708053589, 0.5879713296890259, 25.147302627563477, 6.378007411956787, -2.705059289932251, -45.15464401245117, 66.30133056640625, -231.94393920898438, -0.672119140625, -0.299560546875, -0.424560546875, 0, 
310, 1033712811, 0.23015813529491425, 0.7151752710342407, -0.302184134721756, 0.5867148041725159, 26.696035385131836, 5.238943576812744, -3.929610252380371, -40.943389892578125, 65.03282928466797, -233.0842742919922, -0.652099609375, -0.33740234375, -0.435791015625, 0, 
311, 1033721144, 0.24412912130355835, 0.7167388200759888, -0.2900888919830322, 0.5852631330490112, 28.89006805419922, 2.5311810970306396, -4.211059093475342, -40.35969161987305, 67.55211639404297, -241.5569610595703, -0.631591796875, -0.374267578125, -0.443359375, 0, 
312, 1033729477, 0.25906139612197876, 0.7178474068641663, -0.27711552381515503, 0.5837700366973877, 29.562088012695312, 2.185314655303955, -4.874085426330566, -44.477848052978516, 77.61286926269531, -256.38916015625, -0.611572265625, -0.406005859375, -0.45263671875, 0, 
313, 1033737810, 0.27449947595596313, 0.7185457348823547, -0.2632376551628113, 0.5822765827178955, 29.759357452392578, 1.6380616426467896, -5.441253185272217, -43.65607833862305, 86.02662658691406, -267.70660400390625, -0.5966796875, -0.4404296875, -0.45849609375, 0, 
314, 1033746143, 0.29032474756240845, 0.7189004421234131, -0.24861584603786469, 0.58058762550354, 29.44330406188965, 1.402376651763916, -6.020648956298828, -43.54600143432617, 91.08554077148438, -277.76611328125, -0.577880859375, -0.4716796875, -0.47265625, 0, 
315, 1033754476, 0.30645573139190674, 0.7191457748413086, -0.23347832262516022, 0.5782734155654907, 29.060712814331055, 1.5572422742843628, -6.055968284606934, -45.01103973388672, 88.85394287109375, -287.3243408203125, -0.564453125, -0.509765625, -0.48291015625, 0, 
316, 1033762809, 0.3231244683265686, 0.7195004820823669, -0.21811321377754211, 0.5747473835945129, 29.713069915771484, 0.7414759993553162, -6.767560005187988, -51.966331481933594, 78.71105194091797, -299.4170227050781, -0.55322265625, -0.552734375, -0.490234375, 0, 
317, 1033771142, 0.3387364149093628, 0.7188180685043335, -0.20195737481117249, 0.5725115537643433, 34.67925262451172, 0.8379672765731812, -6.7244720458984375, -35.98271560668945, 99.99700164794922, -289.9390563964844, -0.5322265625, -0.596435546875, -0.500732421875, 0, 
318, 1033779475, 0.3558034896850586, 0.718130350112915, -0.1858319491147995, 0.568469226360321, 29.482826232910156, 1.2700529098510742, -7.081619739532471, -55.66450119018555, 86.1029281616211, -309.604736328125, -0.510498046875, -0.644775390625, -0.515380859375, 0, 
319, 1033787808, 0.37427693605422974, 0.717897891998291, -0.16951362788677216, 0.5619629621505737, 28.022939682006836, 2.1849963665008545, -6.651462078094482, -72.1028823852539, 62.72895050048828, -335.63641357421875, -0.476806640625, -0.688720703125, -0.529052734375, 0, 
320, 1033796141, 0.3933546841144562, 0.717695951461792, -0.1535191833972931, 0.553727924823761, 31.803733825683594, 1.9873944520950317, -8.047205924987793, -84.4593505859375, 45.185630798339844, -346.1742248535156, -0.443115234375, -0.73779296875, -0.5361328125, 0, 
321, 1033804474, 0.41217708587646484, 0.7162409424781799, -0.1376844048500061, 0.5460309982299805, 34.03642272949219, 0.33711737394332886, -8.860268592834473, -88.78671264648438, 58.61860275268555, -337.0101318359375, -0.403564453125, -0.77880859375, -0.5458984375, 0, 
322, 1033812807, 0.4306198060512543, 0.7131758332252502, -0.12191889435052872, 0.5395187139511108, 31.738679885864258, -0.2043026089668274, -7.847146511077881, -92.46029663085938, 81.28595733642578, -323.7964172363281, -0.363525390625, -0.818359375, -0.562255859375, 0, 
323, 1033821140, 0.4483913779258728, 0.709361732006073, -0.10667866468429565, 0.533262312412262, 29.10385513305664, -0.6490991711616516, -7.386142730712891, -93.77400970458984, 85.10041046142578, -310.821044921875, -0.322998046875, -0.850830078125, -0.575927734375, 0, 
324, 1033829473, 0.4657815098762512, 0.7052474617958069, -0.09186215698719025, 0.5265291929244995, 28.09525489807129, -1.0556707382202148, -6.981691360473633, -95.71782684326172, 79.49447631835938, -306.45684814453125, -0.28369140625, -0.882080078125, -0.59423828125, 0, 
325, 1033837806, 0.48293644189834595, 0.7008280754089355, -0.07707507908344269, 0.5192973613739014, 27.547473907470703, -1.7252116203308105, -6.916985511779785, -96.22918701171875, 76.36837005615234, -307.21905517578125, -0.2392578125, -0.906005859375, -0.61083984375, 0, 
326, 1033846139, 0.49950870871543884, 0.6960557103157043, -0.06218716502189636, 0.511984646320343, 26.856462478637695, -2.577890634536743, -6.7478156089782715, -92.3297348022461, 78.17414855957031, -304.25079345703125, -0.197021484375, -0.933837890625, -0.630615234375, 0, 
327, 1033854472, 0.5149072408676147, 0.6910513639450073, -0.04743179678916931, 0.5050415992736816, 25.38621711730957, -3.4501302242279053, -6.666851043701172, -83.2990493774414, 81.42042541503906, -291.9328308105469, -0.157958984375, -0.950927734375, -0.64404296875, 0, 
328, 1033862805, 0.5295984745025635, 0.685467004776001, -0.033096395432949066, 0.4985612630844116, 23.395092010498047, -3.764333486557007, -6.306997776031494, -83.30360412597656, 86.42230224609375, -279.4170227050781, -0.11474609375, -0.977294921875, -0.66162109375, 0, 
329, 1033871138, 0.5433533787727356, 0.6798882484436035, -0.019324755296111107, 0.49208083748817444, 21.86406707763672, -4.085610866546631, -6.0120744705200195, -78.29850769042969, 81.84005737304688, -267.6534118652344, -0.071044921875, -0.99072265625, -0.677001953125, 0, 
330, 1033879471, 0.5562922954559326, 0.674473762512207, -0.006026066839694977, 0.4853716790676117, 21.14409828186035, -4.319330215454102, -6.027831554412842, -72.70403289794922, 74.84789276123047, -259.4913024902344, -0.031494140625, -1.00439453125, -0.68994140625, 0, 
331, 1033887804, 0.5679850578308105, 0.6695663928985596, 0.006841803900897503, 0.4785657227039337, 19.764638900756836, -5.103764057159424, -5.758050918579102, -60.15035629272461, 67.16233825683594, -247.93870544433594, 0.01025390625, -1.01904296875, -0.7021484375, 0, 
332, 1033896137, 0.5791844129562378, 0.6644629240036011, 0.019364558160305023, 0.4718659520149231, 19.6959228515625, -5.579521179199219, -5.611545085906982, -59.41908264160156, 66.78384399414062, -240.71958923339844, 0.046142578125, -1.03125, -0.716064453125, 0, 
333, 1033904470, 0.5892823934555054, 0.6595122218132019, 0.03166850656270981, 0.4656018912792206, 18.388545989990234, -5.97960090637207, -5.570345401763916, -49.677364349365234, 68.3260726928711, -228.0558624267578, 0.085205078125, -1.03515625, -0.723876953125, 0, 
334, 1033912803, 0.5980031490325928, 0.6551687121391296, 0.04343130439519882, 0.459628164768219, 17.243879318237305, -5.934215068817139, -5.659741401672363, -35.85306167602539, 63.2829475402832, -211.7161407470703, 0.12158203125, -1.041015625, -0.7314453125, 0, 
335, 1033921136, 0.6059936881065369, 0.6509326100349426, 0.054567378014326096, 0.45395907759666443, 15.214251518249512, -6.446286678314209, -5.695484638214111, -32.53789138793945, 60.63553237915039, -198.88552856445312, 0.15478515625, -1.0498046875, -0.743896484375, 0, 
336, 1033929469, 0.6130395531654358, 0.6472141742706299, 0.06482209265232086, 0.4484335780143738, 14.079734802246094, -6.476877212524414, -5.255259037017822, -25.37299156188965, 52.048641204833984, -183.50881958007812, 0.18408203125, -1.0546875, -0.743896484375, 0, 
337, 1033937802, 0.6189844608306885, 0.6443285942077637, 0.07397769391536713, 0.4429720640182495, 12.387543678283691, -6.919314384460449, -5.287040710449219, -15.39314079284668, 39.20573425292969, -165.6682586669922, 0.212646484375, -1.06201171875, -0.750732421875, 0, 
338, 1033946135, 0.6244238615036011, 0.6417039036750793, 0.08211188018321991, 0.4376830458641052, 11.549575805664062, -7.021052360534668, -5.061178207397461, -15.085724830627441, 30.954492568969727, -151.7904052734375, 0.239990234375, -1.063232421875, -0.75244140625, 0, 
339, 1033954468, 0.6290503144264221, 0.6396200060844421, 0.08922868967056274, 0.4326871335506439, 10.659912109375, -6.939380645751953, -4.801759243011475, -9.728766441345215, 22.481700897216797, -134.81182861328125, 0.259521484375, -1.06201171875, -0.75390625, 0, 
340, 1033962801, 0.6328538656234741, 0.6380926370620728, 0.09526921063661575, 0.42808374762535095, 9.898218154907227, -6.4712395668029785, -4.698602676391602, -4.554714202880859, 14.309334754943848, -116.34762573242188, 0.279296875, -1.0654296875, -0.75732421875, 0, 
341, 1033971134, 0.6356744170188904, 0.6372572779655457, 0.10023042559623718, 0.4239967167377472, 9.472845077514648, -6.0222015380859375, -4.807431221008301, 3.05068039894104, 6.6695146560668945, -95.71870422363281, 0.29296875, -1.0654296875, -0.7568359375, 0, 
342, 1033979467, 0.6378395557403564, 0.6368181109428406, 0.10413330793380737, 0.42044952511787415, 8.913408279418945, -5.365489959716797, -4.754660129547119, 5.355324745178223, 0.7327759265899658, -77.3290023803711, 0.30810546875, -1.066650390625, -0.760498046875, 0, 
343, 1033987800, 0.6394877433776855, 0.636829137802124, 0.1068703681230545, 0.4172300100326538, 7.884998321533203, -4.368956565856934, -4.974430561065674, 6.611056327819824, -8.471539497375488, -60.644710540771484, 0.3173828125, -1.0673828125, -0.755615234375, 0, 
344, 1033996133, 0.6407005786895752, 0.6373688578605652, 0.10810726881027222, 0.4142157733440399, 7.497564792633057, -3.4427151679992676, -5.237200736999512, 6.174375057220459, -22.27318572998047, -42.39267349243164, 0.3212890625, -1.06982421875, -0.754638671875, 0, 
345, 1034004466, 0.6414073705673218, 0.6383407115936279, 0.10778535157442093, 0.411701500415802, 7.036862850189209, -3.125403642654419, -5.198781967163086, 4.780685901641846, -33.32112121582031, -20.84064292907715, 0.3232421875, -1.064208984375, -0.752197265625, 0, 
346, 1034012799, 0.6414799690246582, 0.6397899985313416, 0.10582660138607025, 0.409842848777771, 6.351489543914795, -3.422602653503418, -4.80209493637085, 4.333897590637207, -43.78056716918945, 3.650252103805542, 0.32421875, -1.062744140625, -0.754150390625, 0, 
347, 1034021132, 0.6408368349075317, 0.6417250633239746, 0.10246837139129639, 0.4086756110191345, 6.264345169067383, -3.7847814559936523, -4.397195816040039, 6.006939888000488, -51.72098922729492, 26.75893783569336, 0.3173828125, -1.06640625, -0.752685546875, 0, 
348, 1034029465, 0.6394376158714294, 0.6441432237625122, 0.09806806594133377, 0.4081423282623291, 4.911753177642822, -4.32716178894043, -3.84438419342041, 10.204322814941406, -56.97724914550781, 46.515052795410156, 0.3095703125, -1.0673828125, -0.7509765625, 0, 
349, 1034037798, 0.6372975707054138, 0.6471313238143921, 0.09265339374542236, 0.40802711248397827, 4.273645401000977, -5.105462551116943, -3.1073503494262695, 15.497905731201172, -64.37503051757812, 64.05745697021484, 0.294189453125, -1.064208984375, -0.74951171875, 0, 
350, 1034046131, 0.6341423988342285, 0.6508094668388367, 0.08628884702920914, 0.40848830342292786, 3.8486456871032715, -5.868103504180908, -2.312450647354126, 24.536582946777344, -70.16765594482422, 84.18254852294922, 0.281494140625, -1.06494140625, -0.74560546875, 0, 
351, 1034054464, 0.6297582983970642, 0.6553274989128113, 0.07883566617965698, 0.4095523953437805, 3.489254951477051, -6.33486795425415, -1.5647386312484741, 36.00905990600586, -77.5088119506836, 107.03800201416016, 0.260986328125, -1.064697265625, -0.7412109375, 0, 
352, 1034062797, 0.6240706443786621, 0.6607403755187988, 0.07029208540916443, 0.4111142158508301, 3.6360044479370117, -6.7186079025268555, -1.1032646894454956, 48.84577560424805, -86.11140441894531, 129.53318786621094, 0.24072265625, -1.05908203125, -0.730712890625, 0, 
353, 1034071130, 0.6171452403068542, 0.6668828725814819, 0.06088283658027649, 0.4131469130516052, 4.344781875610352, -6.581505298614502, -0.7424525022506714, 60.98463439941406, -92.1697998046875, 149.0989227294922, 0.21533203125, -1.06103515625, -0.720458984375, 0, 
354, 1034079463, 0.6091282963752747, 0.6734244227409363, 0.05091562122106552, 0.41577401757240295, 4.95086145401001, -6.139888286590576, -0.9765051007270813, 70.73332214355469, -92.82841491699219, 165.8428497314453, 0.185791015625, -1.058837890625, -0.70947265625, 0, 
355, 1034087796, 0.6001424789428711, 0.6801679730415344, 0.040221087634563446, 0.4190235733985901, 5.5794358253479, -5.446594715118408, -0.8682213425636292, 76.78650665283203, -93.61417388916016, 183.42845153808594, 0.1572265625, -1.054931640625, -0.6953125, 0, 
356, 1034096129, 0.5902884602546692, 0.6868670582771301, 0.028569743037223816, 0.42303091287612915, 6.398624420166016, -4.668734073638916, -1.1058945655822754, 78.62757110595703, -93.7056884765625, 203.6582794189453, 0.121337890625, -1.052490234375, -0.681396484375, 0, 
357, 1034104462, 0.5796119570732117, 0.6932957768440247, 0.015811817720532417, 0.42794716358184814, 7.27327299118042, -4.042452812194824, -1.0660817623138428, 77.3852767944336, -92.19074249267578, 226.11947631835938, 0.088134765625, -1.045166015625, -0.668212890625, 0, 
358, 1034112795, 0.5681673288345337, 0.6992435455322266, 0.0020952438935637474, 0.43386393785476685, 8.166587829589844, -3.7276217937469482, -1.0629706382751465, 75.04019927978516, -87.3119888305664, 247.70465087890625, 0.05078125, -1.035888671875, -0.65234375, 0, 
359, 1034121128, 0.5561366081237793, 0.7045948505401611, -0.012417471036314964, 0.44057023525238037, 8.178437232971191, -3.1093032360076904, -0.7143889665603638, 71.2210464477539, -82.35028076171875, 264.9570007324219, 0.010986328125, -1.022216796875, -0.641357421875, 0, 
360, 1034129461, 0.5436152219772339, 0.7094532251358032, -0.027614811435341835, 0.447654128074646, 8.711597442626953, -2.4961743354797363, -0.17896634340286255, 68.14385223388672, -81.04090881347656, 277.5918884277344, -0.0302734375, -1.009521484375, -0.626220703125, 0, 
361, 1034137794, 0.5304432511329651, 0.7138798236846924, -0.04323621094226837, 0.4551200568675995, 9.530074119567871, -2.315068483352661, 0.25600332021713257, 68.7806625366211, -78.0582046508789, 288.7026672363281, -0.07373046875, -0.990966796875, -0.61328125, 0, 
362, 1034146127, 0.5164476037025452, 0.7178627848625183, -0.05899213254451752, 0.4631121754646301, 9.73345947265625, -1.9825187921524048, 0.5704914331436157, 73.117431640625, -71.6020736694336, 299.3350524902344, -0.113525390625, -0.972900390625, -0.597900390625, 0, 
363, 1034154460, 0.5016525387763977, 0.721550703048706, -0.0747394934296608, 0.47129738330841064, 9.492874145507812, -1.3252580165863037, 0.5902819633483887, 79.10916900634766, -68.38894653320312, 305.8952941894531, -0.158447265625, -0.94775390625, -0.584716796875, 0, 
364, 1034162793, 0.486259788274765, 0.7249605059623718, -0.09034226834774017, 0.47939538955688477, 9.319242477416992, -0.3430446684360504, 0.32724013924598694, 83.98632049560547, -67.08396911621094, 308.0788269042969, -0.19580078125, -0.927001953125, -0.56982421875, 0, 
365, 1034171126, 0.470443457365036, 0.7280430793762207, -0.10583356767892838, 0.48727133870124817, 8.930862426757812, 0.9695472121238708, 0.09453880786895752, 86.46521759033203, -66.90776824951172, 308.6193542480469, -0.2373046875, -0.896728515625, -0.55517578125, 0, 
366, 1034179459, 0.45458000898361206, 0.7307413220405579, -0.12103315442800522, 0.4946950376033783, 8.812560081481934, 2.482743501663208, 0.09807740896940231, 85.76246643066406, -67.05599975585938, 303.71063232421875, -0.2763671875, -0.873779296875, -0.540283203125, 0, 
367, 1034187792, 0.43900415301322937, 0.7329625487327576, -0.1355501115322113, 0.5016627311706543, 8.56131362915039, 3.5877466201782227, 0.4313678443431854, 83.76021575927734, -63.629249572753906, 292.7707214355469, -0.310302734375, -0.838623046875, -0.524658203125, 0, 
368, 1034196125, 0.4238012731075287, 0.7346912026405334, -0.14940667152404785, 0.5082294344902039, 7.760630130767822, 4.276289463043213, 0.814378023147583, 80.85023498535156, -59.60835266113281, 282.0983581542969, -0.344482421875, -0.81298828125, -0.5107421875, 0, 
369, 1034204458, 0.40906402468681335, 0.7359192967414856, -0.1628822386264801, 0.5143511295318604, 7.026312351226807, 5.226290225982666, 0.969541609287262, 74.95903778076172, -57.410194396972656, 273.3653259277344, -0.372802734375, -0.781982421875, -0.498046875, 0, 
370, 1034212791, 0.39492547512054443, 0.7366118431091309, -0.1760990470647812, 0.5200232267379761, 6.521543979644775, 6.251443386077881, 1.1221270561218262, 66.72645568847656, -55.39111328125, 265.2454528808594, -0.404052734375, -0.754638671875, -0.488037109375, 0, 
371, 1034221124, 0.38134196400642395, 0.7367551922798157, -0.18914400041103363, 0.5253502130508423, 6.547588348388672, 6.562946319580078, 1.513938069343567, 58.501670837402344, -52.66999816894531, 258.9282531738281, -0.428955078125, -0.720703125, -0.476806640625, 0, 
372, 1034229457, 0.3682388365268707, 0.7361948490142822, -0.20183956623077393, 0.5307319164276123, 6.674269676208496, 6.227300643920898, 1.9520747661590576, 52.62282180786133, -43.96371841430664, 254.0946807861328, -0.456298828125, -0.689208984375, -0.466552734375, 0, 
373, 1034237790, 0.35547763109207153, 0.7349953651428223, -0.2140054553747177, 0.536299467086792, 6.374269008636475, 5.846132278442383, 2.3503098487854004, 50.29274368286133, -33.77300262451172, 248.89498901367188, -0.477294921875, -0.65576171875, -0.46142578125, 0, 
374, 1034246123, 0.34289664030075073, 0.7334081530570984, -0.22552573680877686, 0.5419138073921204, 5.628619194030762, 5.402293682098389, 2.8471412658691406, 51.487586975097656, -26.764638900756836, 242.4635009765625, -0.498291015625, -0.62158203125, -0.451171875, 0, 
375, 1034254456, 0.33018946647644043, 0.7317667007446289, -0.23618295788764954, 0.5474562048912048, 5.180994510650635, 4.750369071960449, 3.1003780364990234, 56.285282135009766, -24.005483627319336, 234.93960571289062, -0.519287109375, -0.594970703125, -0.4453125, 0, 
376, 1034262789, 0.31749746203422546, 0.7300797700881958, -0.24624250829219818, 0.5527583360671997, 4.480373859405518, 4.55722188949585, 2.9384336471557617, 62.07319641113281, -22.719526290893555, 227.45472717285156, -0.5361328125, -0.56201171875, -0.4423828125, 0, 
377, 1034271122, 0.3050622344017029, 0.728364884853363, -0.2563501298427582, 0.5574086904525757, 3.9010801315307617, 5.493494987487793, 2.5178914070129395, 64.3731460571289, -27.040607452392578, 221.68182373046875, -0.54833984375, -0.52880859375, -0.4287109375, 0, 
378, 1034279455, 0.29237937927246094, 0.7267834544181824, -0.26590150594711304, 0.5617782473564148, 4.394937992095947, 6.40378999710083, 1.7943291664123535, 63.11405563354492, -30.765972137451172, 217.91094970703125, -0.5654296875, -0.49755859375, -0.4267578125, 0, 
379, 1034287788, 0.28000184893608093, 0.7248342037200928, -0.2753105163574219, 0.5660533308982849, 4.825000286102295, 6.696261882781982, 1.369704246520996, 59.33301544189453, -27.175390243530273, 215.0494842529297, -0.5791015625, -0.467529296875, -0.42138671875, 0, 
380, 1034296121, 0.26812437176704407, 0.7224027514457703, -0.2844789922237396, 0.5703625082969666, 4.6646318435668945, 6.775619029998779, 1.1142479181289673, 54.49818801879883, -20.2676944732666, 210.76092529296875, -0.591552734375, -0.438720703125, -0.417236328125, 0, 
381, 1034304454, 0.256963849067688, 0.7195737361907959, -0.29350900650024414, 0.5744855403900146, 3.7971460819244385, 6.961420059204102, 0.6552642583847046, 46.26088333129883, -15.681814193725586, 204.5916748046875, -0.603759765625, -0.408447265625, -0.413818359375, 0, 
382, 1034312787, 0.24680060148239136, 0.7166374325752258, -0.30281224846839905, 0.577774167060852, 3.3019816875457764, 7.172199249267578, 0.6497769951820374, 30.491952896118164, -20.03399658203125, 196.93948364257812, -0.611572265625, -0.378173828125, -0.409423828125, 0, 
383, 1034321120, 0.23780959844589233, 0.7136232852935791, -0.31258416175842285, 0.5800667405128479, 2.7982962131500244, 8.209333419799805, -0.47997868061065674, 10.799617767333984, -25.9370059967041, 189.15306091308594, -0.6201171875, -0.34619140625, -0.409912109375, 0, 
384, 1034329453, 0.2296837717294693, 0.7104495763778687, -0.3224690556526184, 0.5818232893943787, 4.3095855712890625, 7.947869300842285, -0.6588262319564819, -1.4130384922027588, -26.576675415039062, 182.326171875, -0.6279296875, -0.3203125, -0.404052734375, 0, 
385, 1034337786, 0.22308120131492615, 0.7071127891540527, -0.33225560188293457, 0.5829497575759888, 4.346437931060791, 8.005053520202637, -0.31504666805267334, -18.821962356567383, -24.362003326416016, 167.8799591064453, -0.635498046875, -0.291015625, -0.405517578125, 0, 
386, 1034346119, 0.21789665520191193, 0.703883171081543, -0.34152087569236755, 0.5834646821022034, 4.769227981567383, 7.104228496551514, 0.3469831943511963, -30.89280891418457, -23.09006118774414, 149.10791015625, -0.641357421875, -0.26708984375, -0.401611328125, 0, 
387, 1034354452, 0.21378667652606964, 0.7009309530258179, -0.34992170333862305, 0.5835614800453186, 5.688292026519775, 5.778139591217041, 1.074498176574707, -35.49577331542969, -21.72418212890625, 129.536865234375, -0.6455078125, -0.244140625, -0.401611328125, 0, 
388, 1034362785, 0.21043738722801208, 0.6984015107154846, -0.35713472962379456, 0.5834419131278992, 5.62197208404541, 4.990450859069824, 1.2099820375442505, -33.08851623535156, -20.05248260498047, 109.3355484008789, -0.6484375, -0.2255859375, -0.398681640625, 0, 
389, 1034371118, 0.2072647362947464, 0.696742057800293, -0.3634582757949829, 0.5826560258865356, 4.401557922363281, 5.148095607757568, 1.5523955821990967, -28.406076431274414, -29.987335205078125, 93.15583801269531, -0.65185546875, -0.21240234375, -0.395751953125, 0, 
390, 1034379451, 0.2034221738576889, 0.6963606476783752, -0.3694142699241638, 0.5807173848152161, 5.199935436248779, 5.697967529296875, 1.6710827350616455, -21.160154342651367, -53.57465744018555, 85.34900665283203, -0.658203125, -0.19775390625, -0.391845703125, 0, 
391, 1034387784, 0.19858033955097198, 0.6966067552566528, -0.37510329484939575, 0.5784465074539185, 8.056194305419922, 5.540337085723877, 1.2011868953704834, -9.393260955810547, -66.0992660522461, 86.63837432861328, -0.6611328125, -0.182861328125, -0.383544921875, 0, 
392, 1034396117, 0.19305309653282166, 0.6965397000312805, -0.3801051080226898, 0.5771316885948181, 9.917485237121582, 5.064723014831543, 0.86194908618927, 6.7198591232299805, -56.1075553894043, 89.74869537353516, -0.66259765625, -0.170654296875, -0.375732421875, 0, 
393, 1034404450, 0.18717269599437714, 0.695882260799408, -0.3840930759906769, 0.5772214531898499, 10.999249458312988, 5.052066326141357, 0.6656817197799683, 23.91783332824707, -37.126121520996094, 89.6452407836914, -0.66259765625, -0.157958984375, -0.365966796875, 0, 
394, 1034412783, 0.18132361769676208, 0.6945133805274963, -0.3870486319065094, 0.5787609815597534, 11.121119499206543, 5.378100872039795, 0.16472983360290527, 37.643985748291016, -14.77708911895752, 87.01615905761719, -0.6669921875, -0.143798828125, -0.363037109375, 0, 
395, 1034421116, 0.17574089765548706, 0.6926097273826599, -0.3890911340713501, 0.5813888311386108, 10.354379653930664, 5.601857662200928, -0.33322370052337646, 46.825775146484375, 3.561251640319824, 81.7305908203125, -0.666015625, -0.130126953125, -0.367431640625, 0, 
396, 1034429449, 0.17026293277740479, 0.6905788779258728, -0.3905189037322998, 0.584469199180603, 9.241286277770996, 5.585927486419678, -0.47352954745292664, 52.8577880859375, 10.938822746276855, 76.81690979003906, -0.669677734375, -0.118896484375, -0.368896484375, 0, 
397, 1034437782, 0.1647264063358307, 0.6887561678886414, -0.3920031189918518, 0.5872067213058472, 8.343637466430664, 5.597587585449219, -0.5104818940162659, 51.60523986816406, 5.557921409606934, 75.90437316894531, -0.669677734375, -0.108154296875, -0.372314453125, 0, 
398, 1034446115, 0.1590336263179779, 0.6873894333839417, -0.39395007491111755, 0.5890716910362244, 8.574169158935547, 5.28127908706665, -0.2003655582666397, 45.6790885925293, -8.272368431091309, 77.11294555664062, -0.670654296875, -0.095458984375, -0.370361328125, 0, 
399, 1034454448, 0.15299782156944275, 0.686735987663269, -0.3961881399154663, 0.5899306535720825, 10.902825355529785, 4.928216457366943, 0.11193235218524933, 42.67086410522461, -26.061969757080078, 76.58325958251953, -0.67041015625, -0.085205078125, -0.373779296875, 0, 
400, 1034462781, 0.1476510614156723, 0.686048150062561, -0.3983926475048065, 0.5906084179878235, 13.558625221252441, 4.900086879730225, -0.4845389723777771, 35.377540588378906, -23.662250518798828, 70.48055267333984, -0.6708984375, -0.07568359375, -0.371826171875, 0, 
401, 1034471114, 0.14266876876354218, 0.6851250529289246, -0.40007197856903076, 0.5917683243751526, 14.762228965759277, 5.8840413093566895, -0.5858889818191528, 38.36955642700195, -14.14910888671875, 64.83821868896484, -0.67236328125, -0.0673828125, -0.365478515625, 0, 
402, 1034479447, 0.13846704363822937, 0.6839770078659058, -0.40133196115493774, 0.593239426612854, 15.728255271911621, 6.491814136505127, -1.0444416999816895, 35.69837188720703, -4.260778427124023, 56.376590728759766, -0.67333984375, -0.05810546875, -0.368896484375, 0, 
403, 1034487780, 0.13466553390026093, 0.6825910806655884, -0.4019921123981476, 0.5952606797218323, 17.21006965637207, 7.427094459533691, -1.7886186838150024, 39.4109992980957, 6.19625997543335, 49.845970153808594, -0.677734375, -0.0498046875, -0.371826171875, 0, 
404, 1034496113, 0.1316029131412506, 0.6811230182647705, -0.4019557535648346, 0.5976470708847046, 17.482118606567383, 8.208312034606934, -2.1777687072753906, 40.0425910949707, 15.679336547851562, 38.374359130859375, -0.67578125, -0.04345703125, -0.37451171875, 0, 
405, 1034504446, 0.1288272887468338, 0.6798915863037109, -0.4010855555534363, 0.6002326607704163, 16.871793746948242, 8.322172164916992, -2.8751184940338135, 45.737213134765625, 18.689146041870117, 27.27764892578125, -0.676025390625, -0.04345703125, -0.380859375, 0, 
406, 1034512779, 0.12661795318126678, 0.6792469024658203, -0.3995683491230011, 0.6024405360221863, 16.385913848876953, 8.593015670776367, -3.3541178703308105, 44.73909378051758, 14.59076976776123, 12.630431175231934, -0.677001953125, -0.040771484375, -0.3837890625, 0, 
407, 1034521112, 0.12471602857112885, 0.6793839335441589, -0.3975197374820709, 0.6040360331535339, 16.226024627685547, 9.333415985107422, -3.511643886566162, 44.268516540527344, 4.998472690582275, -0.21481414139270782, -0.672119140625, -0.04150390625, -0.38525390625, 0, 
408, 1034529445, 0.12310811877250671, 0.6802302598953247, -0.3952319324016571, 0.6049140095710754, 16.9139404296875, 10.017228126525879, -3.578246831893921, 40.79910659790039, -5.568171501159668, -10.026873588562012, -0.676025390625, -0.042724609375, -0.3896484375, 0, 
409, 1034537778, 0.12159053981304169, 0.6812068223953247, -0.3928240239620209, 0.6056899428367615, 17.22014045715332, 10.397461891174316, -3.48189640045166, 40.625450134277344, -6.9237060546875, -12.751313209533691, -0.673583984375, -0.046142578125, -0.39013671875, 0, 
410, 1034546111, 0.12035912275314331, 0.682083010673523, -0.3903733491897583, 0.6065338253974915, 17.107074737548828, 10.732270240783691, -2.8834166526794434, 38.493896484375, -3.8208940029144287, -14.910234451293945, -0.678466796875, -0.050048828125, -0.388671875, 0, 
411, 1034554444, 0.1194196492433548, 0.682927131652832, -0.38783010840415955, 0.6074004173278809, 16.53619384765625, 10.474474906921387, -1.9634475708007812, 36.6036376953125, -1.6333580017089844, -17.964452743530273, -0.673583984375, -0.056396484375, -0.388671875, 0, 
412, 1034562777, 0.11885417252779007, 0.6839677095413208, -0.38500577211380005, 0.6081368327140808, 16.211200714111328, 10.317939758300781, -1.0078703165054321, 35.06020736694336, -2.028407573699951, -25.02923583984375, -0.671142578125, -0.057861328125, -0.39306640625, 0, 
413, 1034571110, 0.11876806616783142, 0.6852865219116211, -0.38169145584106445, 0.6087579131126404, 15.916247367858887, 9.905618667602539, -0.6623827219009399, 34.5026741027832, -2.111398220062256, -35.25677490234375, -0.670654296875, -0.062255859375, -0.392578125, 0, 
414, 1034579443, 0.11956823617219925, 0.6864640116691589, -0.37779632210731506, 0.609703779220581, 16.45334243774414, 9.981874465942383, -0.8135104775428772, 32.479068756103516, 7.742231369018555, -46.930419921875, -0.668212890625, -0.068115234375, -0.39404296875, 0, 
415, 1034587776, 0.12127742171287537, 0.6872411966323853, -0.37326309084892273, 0.6112805604934692, 15.814057350158691, 10.595050811767578, -0.7324513792991638, 31.876895904541016, 22.815385818481445, -57.40146255493164, -0.665283203125, -0.076904296875, -0.39794921875, 0, 
416, 1034596109, 0.12434103339910507, 0.6877135038375854, -0.36837899684906006, 0.6130940318107605, 14.407821655273438, 11.764932632446289, -1.346496820449829, 22.72252082824707, 35.164222717285156, -70.19925689697266, -0.663330078125, -0.084716796875, -0.40380859375, 0, 
417, 1034604442, 0.12865416705608368, 0.6879957318305969, -0.3636492192745209, 0.614709198474884, 12.851700782775879, 14.085678100585938, -1.9118999242782593, 8.284111022949219, 40.94546127319336, -78.58777618408203, -0.663818359375, -0.091064453125, -0.41064453125, 0, 
418, 1034612775, 0.13344323635101318, 0.6886693239212036, -0.35950610041618347, 0.6153707504272461, 10.796576499938965, 15.396900177001953, -1.6083588600158691, -5.262568473815918, 29.968055725097656, -80.76885986328125, -0.663818359375, -0.101318359375, -0.41064453125, 0, 
419, 1034621108, 0.13838519155979156, 0.6903932094573975, -0.3559701144695282, 0.6144023537635803, 10.69040298461914, 14.894769668579102, -0.9069603085517883, -17.970720291137695, 5.274620532989502, -84.42449188232422, -0.663818359375, -0.114013671875, -0.416015625, 0, 
420, 1034629441, 0.14398640394210815, 0.6930750608444214, -0.35275089740753174, 0.6119475364685059, 13.166577339172363, 13.562092781066895, -0.6585940718650818, -32.367271423339844, -14.29495906829834, -94.57707977294922, -0.664794921875, -0.118896484375, -0.41552734375, 0, 
421, 1034637774, 0.1509166806936264, 0.695927619934082, -0.3491167724132538, 0.6091176867485046, 16.32984733581543, 11.866418838500977, -1.2637755870819092, -43.01331329345703, -12.05027961730957, -111.20748901367188, -0.671875, -0.130859375, -0.416015625, 0, 
422, 1034646107, 0.15960898995399475, 0.6984967589378357, -0.3441052734851837, 0.6068085432052612, 18.742416381835938, 10.517399787902832, -1.6370601654052734, -46.44001007080078, 6.6366424560546875, -136.78831481933594, -0.67431640625, -0.146484375, -0.4140625, 0, 
423, 1034654440, 0.1704871952533722, 0.7007695436477661, -0.33724290132522583, 0.605079710483551, 21.223770141601562, 9.587047576904297, -2.031550168991089, -49.882232666015625, 29.079742431640625, -170.04681396484375, -0.67724609375, -0.171630859375, -0.41845703125, 0, 
424, 1034662773, 0.18322280049324036, 0.7028496861457825, -0.3284967839717865, 0.6037545800209045, 21.359445571899414, 8.698431015014648, -2.106494188308716, -50.70146179199219, 47.61595916748047, -201.90379333496094, -0.681884765625, -0.205078125, -0.426025390625, 0, 
425, 1034671106, 0.19682975113391876, 0.7051573991775513, -0.31815797090530396, 0.6023160219192505, 22.313846588134766, 7.698248386383057, -2.0591893196105957, -45.8223991394043, 52.56459045410156, -225.75836181640625, -0.680419921875, -0.242431640625, -0.4384765625, 0, 
426, 1034679439, 0.21113380789756775, 0.7076097726821899, -0.3070691227912903, 0.6003477573394775, 23.19477653503418, 6.518350124359131, -2.128448247909546, -48.312808990478516, 51.32650375366211, -240.96588134765625, -0.6748046875, -0.289794921875, -0.447265625, 0, 
427, 1034687772, 0.22495239973068237, 0.7103723883628845, -0.2958083152770996, 0.5977148413658142, 23.17560577392578, 5.243062496185303, -1.6092997789382935, -44.061798095703125, 40.728240966796875, -241.77528381347656, -0.6630859375, -0.332763671875, -0.45458984375, 0, 
428, 1034696105, 0.23854027688503265, 0.7134239077568054, -0.2850078344345093, 0.5940483212471008, 25.230985641479492, 4.702504634857178, -2.4316959381103516, -48.91522979736328, 25.911331176757812, -239.8491668701172, -0.6396484375, -0.375, -0.4619140625, 0, 
429, 1034704438, 0.25211507081985474, 0.716343879699707, -0.27408406138420105, 0.5900554060935974, 28.325851440429688, 4.339621067047119, -4.273080825805664, -49.47639465332031, 24.1198673248291, -241.4095458984375, -0.622802734375, -0.40966796875, -0.46484375, 0, 
430, 1034712771, 0.26594337821006775, 0.718696653842926, -0.26217249035835266, 0.5865260362625122, 31.005096435546875, 3.254768133163452, -5.140657901763916, -44.191986083984375, 37.68637466430664, -249.55120849609375, -0.603515625, -0.444091796875, -0.462890625, 0, 
431, 1034721104, 0.2820073366165161, 0.7195219397544861, -0.24908190965652466, 0.5837091207504272, 30.94402503967285, 2.8129513263702393, -5.800877094268799, -59.78084945678711, 69.40443420410156, -271.0339050292969, -0.58642578125, -0.47607421875, -0.47021484375, 0, 
432, 1034729437, 0.29925766587257385, 0.7196550965309143, -0.23464412987232208, 0.5809316635131836, 30.412765502929688, 1.876376986503601, -5.807770729064941, -63.2730712890625, 84.65957641601562, -291.46282958984375, -0.56787109375, -0.50927734375, -0.47314453125, 0, 
433, 1034737770, 0.3130902051925659, 0.718389630317688, -0.21908989548683167, 0.5812817811965942, 41.56329345703125, 1.4959596395492554, -9.684797286987305, -16.17499542236328, 120.33422088623047, -257.72625732421875, -0.55224609375, -0.546630859375, -0.48876953125, 0, 
434, 1034746103, 0.32875892519950867, 0.7115316390991211, -0.20360204577445984, 0.5866724848747253, 24.35677719116211, -5.265346527099609, 1.1840529441833496, -43.75390625, 220.10943603515625, -233.2924346923828, -0.533935546875, -0.574951171875, -0.518798828125, 0, 
435, 1034754436, 0.34424254298210144, 0.7103930711746216, -0.18973703682422638, 0.5838122367858887, 21.117877960205078, 2.102893590927124, -4.462563514709473, -52.26880645751953, 85.34741973876953, -269.1444091796875, -0.518310546875, -0.612548828125, -0.535400390625, 0, 
436, 1034762769, 0.36130794882774353, 0.7123187780380249, -0.17659582197666168, 0.5752135515213013, 21.991870880126953, 1.8616576194763184, -4.573160648345947, -74.0131607055664, 5.401219367980957, -310.0288391113281, -0.498046875, -0.654296875, -0.541259765625, 0, 
437, 1034771102, 0.37946459650993347, 0.7151769995689392, -0.163324773311615, 0.5637832283973694, 29.664213180541992, 0.8612516522407532, -5.5330657958984375, -85.90953826904297, -26.435571670532227, -336.1960754394531, -0.466796875, -0.702880859375, -0.5400390625, 0, 
438, 1034779435, 0.39856043457984924, 0.7164986729621887, -0.1486642211675644, 0.5528799295425415, 34.2452507019043, -0.3250106871128082, -6.899480819702148, -91.22195434570312, 0.03775975853204727, -351.0254821777344, -0.434326171875, -0.74755859375, -0.54541015625, 0, 
439, 1034787768, 0.41757383942604065, 0.7152594923973083, -0.13226352632045746, 0.5445550680160522, 32.96479797363281, -1.6706812381744385, -6.468430519104004, -85.92992401123047, 54.27320098876953, -348.1044921875, -0.395263671875, -0.7939453125, -0.55517578125, 0, 
440, 1034796101, 0.43512725830078125, 0.712084949016571, -0.11551208049058914, 0.5387524366378784, 29.56545639038086, -1.2508609294891357, -4.737043857574463, -75.48115539550781, 92.9530029296875, -322.68310546875, -0.352783203125, -0.83251953125, -0.570068359375, 0, 
441, 1034804434, 0.45095252990722656, 0.7083547115325928, -0.09930871427059174, 0.533864438533783, 27.135427474975586, -1.6080124378204346, -4.850557804107666, -64.47804260253906, 99.9846420288086, -298.087890625, -0.310791015625, -0.865234375, -0.584228515625, 0, 
442, 1034812767, 0.4660521447658539, 0.7049748301506042, -0.08398400992155075, 0.5279682874679565, 24.56559944152832, -1.1799496412277222, -5.011175155639648, -63.07329559326172, 81.1644515991211, -290.99151611328125, -0.267578125, -0.89404296875, -0.59521484375, 0, 
443, 1034821100, 0.4808942675590515, 0.7018637657165527, -0.06942407786846161, 0.520870566368103, 23.88777732849121, -1.961384654045105, -5.824357986450195, -65.78659057617188, 62.35184860229492, -289.6692810058594, -0.23193359375, -0.919921875, -0.60888671875, 0, 
