PacketCounter,SampleTimeFine,Quat_W,Quat_X,Quat_Y,Quat_Z,Acc_X,Acc_Y,Acc_Z,Gyr_X,Gyr_Y,Gyr_Z,Mag_X,Mag_Y,Mag_Z,Status,
0, 1021621628, 0.3035604953765869, 0.6648033857345581, -0.3183683454990387, 0.6037596464157104, 0, 0, 0, 0, 0, 0, -0.630859375, -0.357666015625, -0.562744140625, 0, 
1, 1021629961, 0.3035685122013092, 0.6648043990135193, -0.3183710277080536, 0.6037530899047852, 9.68991756439209, 0.2163964956998825, -0.8600484132766724, 0.40442314743995667, -1.9199533462524414, 1.0346870422363281, -0.63037109375, -0.359130859375, -0.560791015625, 0, 
2, 1021638294, 0.3035648763179779, 0.6648176908493042, -0.31835871934890747, 0.6037466526031494, 9.676680564880371, 0.22987645864486694, -0.8212174773216248, 0.5956333875656128, -2.003225088119507, 0.9802054762840271, -0.629638671875, -0.356689453125, -0.563720703125, 0, 
3, 1021646627, 0.30356743931770325, 0.6648223996162415, -0.3183554410934448, 0.6037419438362122, 9.678070068359375, 0.24212440848350525, -0.8451061844825745, 0.5271409153938293, -1.932222604751587, 1.018268346786499, -0.62890625, -0.359130859375, -0.561279296875, 0, 
4, 1021654960, 0.3035656213760376, 0.6648285388946533, -0.3183457851409912, 0.6037411689758301, 9.709744453430176, 0.2505767047405243, -0.9030340313911438, 0.5457112789154053, -1.8960039615631104, 1.0440361499786377, -0.6298828125, -0.359130859375, -0.563720703125, 0, 
5, 1021663293, 0.30357643961906433, 0.6648274064064026, -0.31834566593170166, 0.6037369966506958, 9.70153522491455, 0.21673548221588135, -0.869952917098999, 0.40347543358802795, -1.8562766313552856, 1.0065114498138428, -0.62890625, -0.359619140625, -0.563720703125, 0, 
6, 1021671626, 0.3035881519317627, 0.6648248434066772, -0.31834185123443604, 0.6037359833717346, 9.708032608032227, 0.22756125032901764, -0.8199842572212219, 0.4965575337409973, -1.7880913019180298, 1.0073052644729614, -0.632568359375, -0.357666015625, -0.564697265625, 0, 
7, 1021679959, 0.3035929501056671, 0.6648306846618652, -0.31832802295684814, 0.60373455286026, 9.679848670959473, 0.23558825254440308, -0.8242000937461853, 0.6140244007110596, -1.8580436706542969, 0.9113543629646301, -0.62939453125, -0.354736328125, -0.561279296875, 0, 
8, 1021688292, 0.3035963773727417, 0.6648450493812561, -0.3183230459690094, 0.6037195324897766, 9.676488876342773, 0.20838111639022827, -0.829307496547699, 0.5537797212600708, -2.0886998176574707, 0.9367125630378723, -0.6328125, -0.358154296875, -0.562255859375, 0, 
9, 1021696625, 0.3035930097103119, 0.6648549437522888, -0.31831640005111694, 0.603713870048523, 9.686643600463867, 0.22469466924667358, -0.8697476387023926, 0.6270877122879028, -1.9963351488113403, 1.0102766752243042, -0.6318359375, -0.359619140625, -0.563232421875, 0, 
10, 1021704958, 0.3035964071750641, 0.6648629307746887, -0.3183075189590454, 0.603708028793335, 9.693119049072266, 0.2874710261821747, -0.8637400269508362, 0.5622323751449585, -1.9349631071090698, 0.9693706631660461, -0.627685546875, -0.358154296875, -0.563720703125, 0, 
11, 1021713291, 0.3035966157913208, 0.6648615598678589, -0.3182978928089142, 0.6037144064903259, 9.692299842834473, 0.24340786039829254, -0.8604960441589355, 0.6263704299926758, -1.7638602256774902, 1.0533086061477661, -0.627685546875, -0.357177734375, -0.5654296875, 0, 
12, 1021721624, 0.30360761284828186, 0.6648576259613037, -0.31830334663391113, 0.6037105321884155, 9.670513153076172, 0.25228264927864075, -0.8394665122032166, 0.43359774351119995, -1.8444684743881226, 1.0896040201187134, -0.630859375, -0.359619140625, -0.560302734375, 0, 
13, 1021729957, 0.30362439155578613, 0.6648572087287903, -0.31830620765686035, 0.6037010550498962, 9.674159049987793, 0.21790778636932373, -0.8633905649185181, 0.3057827055454254, -1.8967723846435547, 0.9580748081207275, -0.62890625, -0.357666015625, -0.563232421875, 0, 
14, 1021738290, 0.3036418855190277, 0.6648518443107605, -0.31831011176109314, 0.6036959290504456, 9.697880744934082, 0.24294796586036682, -0.8584276437759399, 0.28395941853523254, -1.811528205871582, 1.0333037376403809, -0.6298828125, -0.358642578125, -0.562255859375, 0, 
15, 1021746623, 0.3036677837371826, 0.6648469567298889, -0.3183135688304901, 0.6036864519119263, 9.677861213684082, 0.24591679871082306, -0.8533075451850891, 0.19827978312969208, -1.8212872743606567, 0.9076403975486755, -0.62841796875, -0.359619140625, -0.559326171875, 0, 
16, 1021754956, 0.30370306968688965, 0.6648352146148682, -0.3183199167251587, 0.6036781668663025, 9.694026947021484, 0.23447521030902863, -0.8555663228034973, 0.08247783035039902, -1.718497395515442, 0.919909656047821, -0.62890625, -0.357666015625, -0.561767578125, 0, 
17, 1021763289, 0.3037395179271698, 0.6648247838020325, -0.3183196485042572, 0.6036714911460876, 9.68563461303711, 0.2217790186405182, -0.8140352368354797, 0.11987461149692535, -1.6899374723434448, 0.8226523995399475, -0.62890625, -0.358154296875, -0.561279296875, 0, 
18, 1021771622, 0.30375611782073975, 0.66483473777771, -0.3183216452598572, 0.603651225566864, 9.680941581726074, 0.24620357155799866, -0.8135906457901001, 0.24510259926319122, -2.071230888366699, 0.89537113904953, -0.630859375, -0.359619140625, -0.562255859375, 0, 
19, 1021779955, 0.30378228425979614, 0.6648428440093994, -0.31832000613212585, 0.6036300659179688, 9.68171215057373, 0.2491580992937088, -0.8091956377029419, 0.24013344943523407, -2.0154430866241455, 0.7536988258361816, -0.6298828125, -0.357666015625, -0.562255859375, 0, 
20, 1021788288, 0.30380576848983765, 0.6648507714271545, -0.3183254301548004, 0.6036068201065063, 9.680218696594238, 0.23043812811374664, -0.8366092443466187, 0.1292494386434555, -2.066415786743164, 0.8674261569976807, -0.62841796875, -0.359619140625, -0.563232421875, 0, 
21, 1021796621, 0.303827166557312, 0.664865255355835, -0.318337619304657, 0.6035736799240112, 9.638848304748535, 0.22464175522327423, -0.8132672905921936, 0.14415691792964935, -2.2556538581848145, 0.841632604598999, -0.630859375, -0.356689453125, -0.562744140625, 0, 
22, 1021804954, 0.30385249853134155, 0.6648725867271423, -0.31836479902267456, 0.6035381555557251, 9.674365997314453, 0.28395551443099976, -0.7691353559494019, 0.1704627424478531, -2.251683473587036, 0.9774904847145081, -0.626953125, -0.358642578125, -0.560791015625, 0, 
23, 1021813287, 0.3038535416126251, 0.6648880243301392, -0.31838247179985046, 0.6035113334655762, 9.715252876281738, 0.26918333768844604, -0.8482692241668701, 0.3161308467388153, -2.3185620307922363, 1.0822526216506958, -0.6318359375, -0.357177734375, -0.560791015625, 0, 
24, 1021821620, 0.3038501441478729, 0.6649043560028076, -0.31837934255599976, 0.603496789932251, 9.711305618286133, 0.24620316922664642, -0.8954748511314392, 0.5757055282592773, -2.138007402420044, 1.0063064098358154, -0.6298828125, -0.357666015625, -0.560791015625, 0, 
25, 1021829953, 0.3038332462310791, 0.6649186611175537, -0.3183803856372833, 0.6034889817237854, 9.727265357971191, 0.2695145606994629, -0.9412521719932556, 0.696323037147522, -2.1436424255371094, 1.164448618888855, -0.630859375, -0.359130859375, -0.563232421875, 0, 
26, 1021838286, 0.3038395345211029, 0.6649210453033447, -0.31839537620544434, 0.6034753322601318, 9.680320739746094, 0.2547229826450348, -0.8233374357223511, 0.40398770570755005, -2.047102451324463, 1.1469030380249023, -0.63232421875, -0.357177734375, -0.558349609375, 0, 
27, 1021846619, 0.30383774638175964, 0.6649080514907837, -0.31840279698371887, 0.6034866571426392, 9.67354965209961, 0.23505395650863647, -0.8613506555557251, 0.4754001796245575, -1.702565312385559, 1.2961827516555786, -0.629150390625, -0.356689453125, -0.563232421875, 0, 
28, 1021854952, 0.3038378953933716, 0.6649006009101868, -0.31841200590133667, 0.6034899353981018, 9.69690990447998, 0.26485300064086914, -0.8816076517105103, 0.6049312949180603, -1.8105546236038208, 1.2523053884506226, -0.630615234375, -0.357666015625, -0.563720703125, 0, 
29, 1021863285, 0.3038402497768402, 0.6648711562156677, -0.3184245824813843, 0.6035146117210388, 9.700395584106445, 0.2503366768360138, -0.8496868014335632, 0.38390615582466125, -1.4470890760421753, 1.4367791414260864, -0.6298828125, -0.360107421875, -0.562255859375, 0, 
30, 1021871618, 0.30385512113571167, 0.6648439764976501, -0.318451851606369, 0.6035225987434387, 9.720863342285156, 0.23244976997375488, -0.8672688007354736, 0.38224124908447266, -1.6130694150924683, 1.3893930912017822, -0.628173828125, -0.357177734375, -0.563232421875, 0, 
31, 1021879951, 0.3038729727268219, 0.6648184657096863, -0.31846046447753906, 0.6035372614860535, 9.718219757080078, 0.20645275712013245, -0.947142481803894, 0.24671630561351776, -1.4874569177627563, 1.2138586044311523, -0.629150390625, -0.360107421875, -0.565185546875, 0, 
32, 1021888284, 0.3038734793663025, 0.664803147315979, -0.31843990087509155, 0.6035646796226501, 9.65966510772705, 0.24826420843601227, -0.8059974312782288, 0.4533463418483734, -1.407438039779663, 1.154920220375061, -0.62890625, -0.359130859375, -0.560791015625, 0, 
33, 1021896617, 0.3038841784000397, 0.6647825241088867, -0.31845173239707947, 0.6035757064819336, 9.662860870361328, 0.2179073542356491, -0.8309051990509033, 0.29182296991348267, -1.6054617166519165, 1.2653430700302124, -0.630859375, -0.359130859375, -0.563720703125, 0, 
34, 1021904950, 0.3038868308067322, 0.6647708415985107, -0.3184480667114258, 0.6035893559455872, 9.661726951599121, 0.1950157731771469, -0.8215270638465881, 0.5437902212142944, -1.619319200515747, 1.190114140510559, -0.63134765625, -0.358642578125, -0.561767578125, 0, 
35, 1021913283, 0.30388909578323364, 0.6647621989250183, -0.31845054030418396, 0.6035963892936707, 9.692596435546875, 0.24861229956150055, -0.8173429369926453, 0.4777311384677887, -1.7397061586380005, 1.1809443235397339, -0.6328125, -0.356689453125, -0.560791015625, 0, 
36, 1021921616, 0.3038686513900757, 0.6647624969482422, -0.31844720244407654, 0.6036081314086914, 9.641295433044434, 0.21829557418823242, -0.8255952000617981, 0.8638657331466675, -1.8372963666915894, 1.3193124532699585, -0.62890625, -0.357666015625, -0.561279296875, 0, 
37, 1021929949, 0.3038548231124878, 0.664762020111084, -0.31844034790992737, 0.6036191582679749, 9.672379493713379, 0.23172461986541748, -0.8377559781074524, 0.753878116607666, -1.8019486665725708, 1.2094016075134277, -0.63232421875, -0.359130859375, -0.563232421875, 0, 
38, 1021938282, 0.30383947491645813, 0.6647657155990601, -0.3184523284435272, 0.60361647605896, 9.686424255371094, 0.28504276275634766, -0.8295347094535828, 0.5820834636688232, -2.0408012866973877, 1.3476160764694214, -0.63134765625, -0.359619140625, -0.559326171875, 0, 
39, 1021946615, 0.3038078248500824, 0.6647621989250183, -0.31845611333847046, 0.6036341786384583, 9.64893627166748, 0.20828507840633392, -0.8187228441238403, 0.8450393080711365, -1.839140772819519, 1.4950772523880005, -0.63134765625, -0.358154296875, -0.561767578125, 0, 
40, 1021954948, 0.30379635095596313, 0.6647526025772095, -0.31845182180404663, 0.6036530137062073, 9.66801643371582, 0.25925159454345703, -0.8561492562294006, 0.7323622107505798, -1.6475458145141602, 1.313830852508545, -0.62939453125, -0.357177734375, -0.562255859375, 0, 
41, 1021963281, 0.3037698268890381, 0.6647454500198364, -0.31846481561660767, 0.6036674380302429, 9.705620765686035, 0.2500357925891876, -0.9200666546821594, 0.6934286952018738, -1.85527765750885, 1.5398255586624146, -0.63427734375, -0.35498046875, -0.562255859375, 0, 
42, 1021971614, 0.3037455081939697, 0.6647372841835022, -0.31847065687179565, 0.6036854386329651, 9.730134963989258, 0.21640881896018982, -0.870088517665863, 0.6482962965965271, -1.7681890726089478, 1.5125463008880615, -0.62890625, -0.360107421875, -0.561279296875, 0, 
43, 1021979947, 0.30373209714889526, 0.6647337079048157, -0.31847891211509705, 0.6036916375160217, 9.712697982788086, 0.21920427680015564, -0.8753257989883423, 0.59248286485672, -1.8822238445281982, 1.3385999202728271, -0.6328125, -0.356201171875, -0.563232421875, 0, 
44, 1021988280, 0.3036932051181793, 0.6647515892982483, -0.3184534013271332, 0.6037053465843201, 9.685103416442871, 0.18375471234321594, -0.8695827126502991, 0.6627427935600281, -1.9647784233093262, 1.2571210861206055, -0.63134765625, -0.357177734375, -0.563232421875, 0, 
45, 1021996613, 0.3036870062351227, 0.664762020111084, -0.3184494376182556, 0.6036991477012634, 9.684418678283691, 0.20925377309322357, -0.8498610854148865, 0.6301100850105286, -2.0298638343811035, 1.0541538000106812, -0.629638671875, -0.357177734375, -0.563720703125, 0, 
46, 1022004946, 0.3036635220050812, 0.6647844910621643, -0.3184286057949066, 0.6036970019340515, 9.684172630310059, 0.2637650668621063, -0.8428875803947449, 0.5383343696594238, -2.097946882247925, 1.0746452808380127, -0.629638671875, -0.357177734375, -0.564697265625, 0, 
47, 1022013279, 0.3036557734012604, 0.6647936701774597, -0.3184334635734558, 0.6036881804466248, 9.699976921081543, 0.23394076526165009, -0.8769000172615051, 0.5551629662513733, -2.086958408355713, 1.1418312788009644, -0.62890625, -0.360107421875, -0.561279296875, 0, 
48, 1022021612, 0.3036702573299408, 0.6647905111312866, -0.3184399902820587, 0.6036809682846069, 9.679028511047363, 0.23040862381458282, -0.88780277967453, 0.5097233057022095, -1.8673163652420044, 1.040066123008728, -0.628662109375, -0.357177734375, -0.56689453125, 0, 
49, 1022029945, 0.3036690354347229, 0.6647897362709045, -0.31843146681785583, 0.6036869883537292, 9.689966201782227, 0.23969587683677673, -0.8660687804222107, 0.6308530569076538, -1.7836343050003052, 1.070931077003479, -0.62890625, -0.357666015625, -0.562255859375, 0, 
50, 1022038278, 0.3036711812019348, 0.6647899746894836, -0.31842663884162903, 0.6036881804466248, 9.688987731933594, 0.23372793197631836, -0.8470245003700256, 0.5087499618530273, -1.8314051628112793, 1.0827906131744385, -0.63330078125, -0.358642578125, -0.561279296875, 0, 
51, 1022046611, 0.30366218090057373, 0.6647840738296509, -0.31843331456184387, 0.6036956906318665, 9.689332962036133, 0.24472416937351227, -0.8377140164375305, 0.5599527955055237, -1.8246684074401855, 1.301664113998413, -0.62841796875, -0.359130859375, -0.560302734375, 0, 
52, 1022054944, 0.30366286635398865, 0.6647741198539734, -0.3184487521648407, 0.6036980748176575, 9.695599555969238, 0.23726384341716766, -0.8851243257522583, 0.5650755763053894, -1.8204165697097778, 1.310475468635559, -0.62841796875, -0.356689453125, -0.561767578125, 0, 
53, 1022063277, 0.3036630153656006, 0.6647658944129944, -0.3184507489204407, 0.6037059426307678, 9.680891036987305, 0.22693513333797455, -0.8416027426719666, 0.5072387456893921, -1.7442396879196167, 1.1963895559310913, -0.630859375, -0.358642578125, -0.561279296875, 0, 
54, 1022071610, 0.30366626381874084, 0.6647544503211975, -0.31845974922180176, 0.603712260723114, 9.705475807189941, 0.22747109830379486, -0.8190798163414001, 0.5349020957946777, -1.7355308532714844, 1.2588372230529785, -0.630615234375, -0.358642578125, -0.564208984375, 0, 
55, 1022079943, 0.30366745591163635, 0.6647429466247559, -0.318467378616333, 0.6037203073501587, 9.665290832519531, 0.24210932850837708, -0.8146789073944092, 0.43697884678840637, -1.7319704294204712, 1.252356767654419, -0.6318359375, -0.354736328125, -0.560791015625, 0, 
56, 1022088276, 0.3036612570285797, 0.6647322773933411, -0.3184736371040344, 0.6037319302558899, 9.65311336517334, 0.22400178015232086, -0.83316969871521, 0.5270385146141052, -1.7282053232192993, 1.3432104587554932, -0.63134765625, -0.359619140625, -0.562744140625, 0, 
57, 1022096609, 0.3036579489707947, 0.6647229790687561, -0.318489670753479, 0.6037354469299316, 9.68620777130127, 0.24651430547237396, -0.8435145020484924, 0.3998381793498993, -1.8465173244476318, 1.338907241821289, -0.6298828125, -0.356201171875, -0.561767578125, 0, 
58, 1022104942, 0.3036589026451111, 0.6647055149078369, -0.31850239634513855, 0.6037474274635315, 9.702066421508789, 0.24305808544158936, -0.8151100277900696, 0.5049333572387695, -1.660711646080017, 1.3619344234466553, -0.628662109375, -0.354736328125, -0.56591796875, 0, 
59, 1022113275, 0.30365490913391113, 0.6646940112113953, -0.31851673126220703, 0.6037545800209045, 9.688546180725098, 0.23337529599666595, -0.8952675461769104, 0.4269636571407318, -1.791062593460083, 1.3535585403442383, -0.6298828125, -0.357666015625, -0.562744140625, 0, 
60, 1022121608, 0.30369141697883606, 0.664661169052124, -0.3185611665248871, 0.6037489175796509, 9.67664623260498, 0.22292828559875488, -0.841141939163208, 0.34466513991355896, -1.6597638130187988, 1.3011775016784668, -0.62939453125, -0.356689453125, -0.561767578125, 0, 
61, 1022129941, 0.30367982387542725, 0.6646555662155151, -0.3185739815235138, 0.6037541627883911, 9.68435001373291, 0.2647874653339386, -0.8058799505233765, 0.5250149965286255, -1.884887456893921, 1.3700029850006104, -0.62939453125, -0.358154296875, -0.562744140625, 0, 
62, 1022138274, 0.3036906123161316, 0.6646304130554199, -0.3186051547527313, 0.6037599444389343, 9.666293144226074, 0.22573016583919525, -0.8827518224716187, 0.2703326344490051, -1.6848145723342896, 1.450636625289917, -0.63037109375, -0.359619140625, -0.562744140625, 0, 
63, 1022146607, 0.3036935031414032, 0.6646040678024292, -0.3186202943325043, 0.6037794947624207, 9.639084815979004, 0.2383771389722824, -0.790385901927948, 0.3483792245388031, -1.5287984609603882, 1.421641230583191, -0.6298828125, -0.355224609375, -0.560791015625, 0, 
64, 1022154940, 0.3036837577819824, 0.6645909547805786, -0.3186374306678772, 0.603789746761322, 9.663945198059082, 0.22844941914081573, -0.809266209602356, 0.4075224995613098, -1.780637502670288, 1.4825775623321533, -0.627197265625, -0.356689453125, -0.563232421875, 0, 
65, 1022163273, 0.30366870760917664, 0.6645787954330444, -0.3186561167240143, 0.6038007736206055, 9.67155647277832, 0.2146240472793579, -0.8723686933517456, 0.5051639676094055, -1.8169071674346924, 1.5040678977966309, -0.63232421875, -0.358154296875, -0.561767578125, 0, 
66, 1022171606, 0.3036823272705078, 0.6645601391792297, -0.31869742274284363, 0.6037927865982056, 9.705118179321289, 0.21171729266643524, -0.8786823153495789, 0.6179946064949036, -1.8864754438400269, 1.3909296989440918, -0.628173828125, -0.356201171875, -0.563232421875, 0, 
67, 1022179939, 0.303672194480896, 0.6645631790161133, -0.31870073080062866, 0.6037927865982056, 9.708724021911621, 0.21808303892612457, -0.8469228148460388, 0.6035994291305542, -1.9585541486740112, 1.2100419998168945, -0.62841796875, -0.356201171875, -0.560302734375, 0, 
68, 1022188272, 0.3036746084690094, 0.6645647287368774, -0.3187202513217926, 0.6037794947624207, 9.664674758911133, 0.2186536341905594, -0.8189724087715149, 0.6028310656547546, -2.068387985229492, 1.2063024044036865, -0.63232421875, -0.356689453125, -0.562255859375, 0, 
69, 1022196605, 0.30366551876068115, 0.6645848751068115, -0.3187282681465149, 0.6037576198577881, 9.693033218383789, 0.21012315154075623, -0.853111743927002, 0.5290108323097229, -2.3156423568725586, 1.0787436962127686, -0.631591796875, -0.357177734375, -0.564697265625, 0, 
70, 1022204938, 0.3036523759365082, 0.6646043658256531, -0.3187210261821747, 0.6037468910217285, 9.715489387512207, 0.23280441761016846, -0.8773623108863831, 0.5433803796768188, -2.1603431701660156, 1.067908763885498, -0.627685546875, -0.353271484375, -0.56396484375, 0, 
71, 1022213271, 0.30365604162216187, 0.6646154522895813, -0.31872567534446716, 0.6037304401397705, 9.702526092529297, 0.23301993310451508, -0.8560324311256409, 0.42732229828834534, -2.1214606761932373, 1.004257321357727, -0.629150390625, -0.357666015625, -0.563720703125, 0, 
72, 1022221604, 0.30367422103881836, 0.6646198034286499, -0.3187357783317566, 0.6037110090255737, 9.69555377960205, 0.23700293898582458, -0.8512280583381653, 0.3706892132759094, -2.0408012866973877, 0.9654005169868469, -0.630859375, -0.358642578125, -0.561279296875, 0, 
73, 1022229937, 0.30368784070014954, 0.6646299958229065, -0.31873446702957153, 0.6036936640739441, 9.665105819702148, 0.2252102643251419, -0.839503288269043, 0.3782966136932373, -2.05312180519104, 0.8678614497184753, -0.629638671875, -0.355224609375, -0.563232421875, 0, 
74, 1022238270, 0.3037090301513672, 0.6646276712417603, -0.3187462389469147, 0.6036792397499084, 9.711390495300293, 0.22895541787147522, -0.8348132371902466, 0.25299179553985596, -1.9342972040176392, 1.0103790760040283, -0.63134765625, -0.358642578125, -0.563720703125, 0, 
75, 1022246603, 0.3037247359752655, 0.6646284461021423, -0.3187481760978699, 0.6036695837974548, 9.683053970336914, 0.19525139033794403, -0.8629260659217834, 0.3273499011993408, -1.9093234539031982, 0.9537971615791321, -0.626708984375, -0.356201171875, -0.5634765625, 0, 
76, 1022254936, 0.30374056100845337, 0.664639949798584, -0.3187430500984192, 0.6036515831947327, 9.695388793945312, 0.20778340101242065, -0.836872398853302, 0.4168204367160797, -2.0385727882385254, 0.8309769630432129, -0.63037109375, -0.359130859375, -0.562255859375, 0, 
77, 1022263269, 0.3037477433681488, 0.6646593809127808, -0.31873175501823425, 0.6036326289176941, 9.707856178283691, 0.2345098853111267, -0.8253350853919983, 0.5512439012527466, -2.1311681270599365, 0.7816439867019653, -0.632080078125, -0.357666015625, -0.566162109375, 0, 
78, 1022271602, 0.3037533164024353, 0.6646872162818909, -0.3187275826931, 0.6036012768745422, 9.662675857543945, 0.25004521012306213, -0.8130450248718262, 0.6409961581230164, -2.341717481613159, 0.7879962921142578, -0.630615234375, -0.354736328125, -0.564697265625, 0, 
79, 1022279935, 0.30374160408973694, 0.6647220849990845, -0.31870922446250916, 0.6035784482955933, 9.710441589355469, 0.22396011650562286, -0.8358805775642395, 0.8292863965034485, -2.3476085662841797, 0.7911211848258972, -0.626953125, -0.358154296875, -0.562744140625, 0, 
80, 1022288268, 0.30371811985969543, 0.664756715297699, -0.31865960359573364, 0.6035783886909485, 9.684406280517578, 0.23710672557353973, -0.9201974272727966, 0.8136618137359619, -2.061728000640869, 0.7700919508934021, -0.628173828125, -0.358642578125, -0.564208984375, 0, 
81, 1022296601, 0.3037126958370209, 0.6647756695747375, -0.3186402916908264, 0.6035704016685486, 9.705740928649902, 0.22704006731510162, -0.9096778631210327, 0.7790826559066772, -2.049356698989868, 0.8630717396736145, -0.63134765625, -0.357177734375, -0.562255859375, 0, 
82, 1022304934, 0.3037317097187042, 0.6647710204124451, -0.3186442255973816, 0.6035638451576233, 9.700940132141113, 0.23130446672439575, -0.8585881590843201, 0.6234760284423828, -1.8148069381713867, 0.9748520851135254, -0.6298828125, -0.360107421875, -0.563232421875, 0, 
83, 1022313267, 0.3037349581718445, 0.6647723913192749, -0.3186379373073578, 0.6035639643669128, 9.689935684204102, 0.24101631343364716, -0.845410168170929, 0.5536261200904846, -1.8452879190444946, 1.0201380252838135, -0.627197265625, -0.359619140625, -0.564453125, 0, 
84, 1022321600, 0.30373847484588623, 0.6647728681564331, -0.3186165988445282, 0.6035732626914978, 9.669330596923828, 0.23866428434848785, -0.8317856192588806, 0.5447635650634766, -1.6859416961669922, 0.9639405608177185, -0.629638671875, -0.358154296875, -0.564208984375, 0, 
85, 1022329933, 0.3037532866001129, 0.6647713780403137, -0.3186090886592865, 0.6035712957382202, 9.656843185424805, 0.22832578420639038, -0.8302920460700989, 0.4378241002559662, -1.7855042219161987, 0.9152734279632568, -0.6298828125, -0.357666015625, -0.559814453125, 0, 
86, 1022338266, 0.3037678897380829, 0.664781928062439, -0.3186124861240387, 0.6035503149032593, 9.66641616821289, 0.22353260219097137, -0.8112854957580566, 0.38016653060913086, -2.095641613006592, 0.9082552194595337, -0.6298828125, -0.356689453125, -0.561767578125, 0, 
87, 1022346599, 0.30376848578453064, 0.664796769618988, -0.31860625743865967, 0.6035370230674744, 9.678433418273926, 0.23509837687015533, -0.8094146847724915, 0.5745785236358643, -2.091465950012207, 0.9272864460945129, -0.628662109375, -0.356201171875, -0.562744140625, 0, 
88, 1022354932, 0.30376961827278137, 0.6648148894309998, -0.3186104893684387, 0.6035143136978149, 9.670648574829102, 0.23540550470352173, -0.8605717420578003, 0.5465821623802185, -2.2368268966674805, 0.9842268824577332, -0.6279296875, -0.357666015625, -0.561279296875, 0, 
89, 1022363265, 0.3037651777267456, 0.6648293733596802, -0.3186054229736328, 0.6035031676292419, 9.69201374053955, 0.24430590867996216, -0.8532097339630127, 0.6202230453491211, -2.0948472023010254, 0.9915525317192078, -0.632080078125, -0.357666015625, -0.564208984375, 0, 
90, 1022371598, 0.3037693500518799, 0.6648352742195129, -0.3185979723930359, 0.6034987568855286, 9.687082290649414, 0.2227444350719452, -0.8323075175285339, 0.5767300724983215, -1.9087855815887451, 0.9884276390075684, -0.6298828125, -0.359130859375, -0.560791015625, 0, 
91, 1022379931, 0.3037604093551636, 0.6648438572883606, -0.3185889720916748, 0.6034984588623047, 9.688531875610352, 0.26023128628730774, -0.8233698010444641, 0.7153800129890442, -1.950639247894287, 1.0616077184677124, -0.630859375, -0.357177734375, -0.561279296875, 0, 
92, 1022388264, 0.30375584959983826, 0.664854884147644, -0.318566232919693, 0.6035007238388062, 9.693342208862305, 0.2287531942129135, -0.8626731634140015, 0.5890505313873291, -1.8691859245300293, 0.9487512707710266, -0.63134765625, -0.355712890625, -0.559326171875, 0, 
93, 1022396597, 0.30376172065734863, 0.664861798286438, -0.3185560703277588, 0.6034955382347107, 9.713537216186523, 0.2109236866235733, -0.8705779910087585, 0.5617201328277588, -1.9104504585266113, 0.9158369302749634, -0.63134765625, -0.357177734375, -0.561279296875, 0, 
94, 1022404930, 0.3037528693675995, 0.66487717628479, -0.31853681802749634, 0.6034931540489197, 9.704855918884277, 0.22893935441970825, -0.9074162840843201, 0.6195827722549438, -1.9814276695251465, 0.976209819316864, -0.63037109375, -0.361083984375, -0.561767578125, 0, 
95, 1022413263, 0.3037572205066681, 0.6648824214935303, -0.31852826476097107, 0.6034897565841675, 9.669057846069336, 0.2468906044960022, -0.8207689523696899, 0.56253981590271, -1.894185185432434, 0.9580490589141846, -0.63037109375, -0.356689453125, -0.561279296875, 0, 
96, 1022421596, 0.3037276864051819, 0.6649129390716553, -0.31848281621932983, 0.6034948825836182, 9.67273235321045, 0.22291266918182373, -0.8306149840354919, 0.5697886347770691, -2.0290956497192383, 0.9236236810684204, -0.63134765625, -0.359130859375, -0.561767578125, 0, 
97, 1022429929, 0.30373021960258484, 0.6649318337440491, -0.318469762802124, 0.6034796833992004, 9.688517570495605, 0.22223375737667084, -0.8695787191390991, 0.6230150461196899, -2.1051697731018066, 0.8223962187767029, -0.6298828125, -0.360107421875, -0.561279296875, 0, 
98, 1022438262, 0.30373695492744446, 0.6649491786956787, -0.31845733523368835, 0.6034638285636902, 9.7002534866333, 0.2657788395881653, -0.8497437238693237, 0.6120008826255798, -2.0748937129974365, 0.8225498795509338, -0.62646484375, -0.360595703125, -0.561767578125, 0, 
99, 1022446595, 0.30374106764793396, 0.6649681329727173, -0.3184400200843811, 0.6034499406814575, 9.686575889587402, 0.21964234113693237, -0.8279844522476196, 0.6505758762359619, -2.0685672760009766, 0.775880753993988, -0.62939453125, -0.358642578125, -0.562744140625, 0, 
100, 1022454928, 0.30373650789260864, 0.6649901866912842, -0.31841593980789185, 0.6034407615661621, 9.674695014953613, 0.24917294085025787, -0.85748291015625, 0.6417647004127502, -2.0593461990356445, 0.8360742330551147, -0.630859375, -0.358642578125, -0.559326171875, 0, 
101, 1022463261, 0.3037467896938324, 0.6650034785270691, -0.31839895248413086, 0.6034299731254578, 9.675317764282227, 0.24084825813770294, -0.843429446220398, 0.5793684124946594, -1.967698574066162, 0.7648922801017761, -0.62939453125, -0.358642578125, -0.559814453125, 0, 
102, 1022471594, 0.3037564754486084, 0.6650134325027466, -0.31839582324028015, 0.6034157276153564, 9.700309753417969, 0.23145294189453125, -0.844709575176239, 0.44993963837623596, -2.0259451866149902, 0.9253398180007935, -0.6298828125, -0.359619140625, -0.563232421875, 0, 
103, 1022479927, 0.3037698566913605, 0.665028989315033, -0.31839117407798767, 0.6033942699432373, 9.683578491210938, 0.2339262068271637, -0.8238410353660583, 0.4127478003501892, -2.122331380844116, 0.7985493540763855, -0.628173828125, -0.356201171875, -0.5654296875, 0, 
104, 1022488260, 0.30378612875938416, 0.6650461554527283, -0.31837812066078186, 0.6033741235733032, 9.685577392578125, 0.23101700842380524, -0.8458012342453003, 0.4317023456096649, -2.0708470344543457, 0.7264710068702698, -0.62939453125, -0.359619140625, -0.560791015625, 0, 
105, 1022496593, 0.30379095673561096, 0.6650675535202026, -0.31837281584739685, 0.6033508777618408, 9.667445182800293, 0.23042677342891693, -0.8372620940208435, 0.5127201676368713, -2.2224576473236084, 0.8310539126396179, -0.63037109375, -0.355712890625, -0.560302734375, 0, 
106, 1022504926, 0.30379557609558105, 0.6650882363319397, -0.3183617889881134, 0.6033315658569336, 9.70387077331543, 0.23181745409965515, -0.8716161251068115, 0.6918660998344421, -2.1482784748077393, 0.8173246383666992, -0.629638671875, -0.357177734375, -0.563720703125, 0, 
107, 1022513259, 0.3037947118282318, 0.6651022434234619, -0.3183538615703583, 0.6033207774162292, 9.702727317810059, 0.2427215278148651, -0.8801856637001038, 0.6101822853088379, -2.0602169036865234, 0.937378466129303, -0.62841796875, -0.359130859375, -0.562255859375, 0, 
108, 1022521592, 0.303791344165802, 0.6651103496551514, -0.31833380460739136, 0.6033240556716919, 9.688647270202637, 0.23205213248729706, -0.8883907794952393, 0.5793170928955078, -1.8419067859649658, 0.9764402508735657, -0.62890625, -0.361572265625, -0.560302734375, 0, 
109, 1022529925, 0.30379390716552734, 0.6651143431663513, -0.31832748651504517, 0.6033216714859009, 9.702986717224121, 0.23366566002368927, -0.873785138130188, 0.5605675578117371, -1.8927254676818848, 1.0035912990570068, -0.63134765625, -0.359619140625, -0.561767578125, 0, 
110, 1022538258, 0.30380383133888245, 0.665111243724823, -0.3183229863643646, 0.6033223867416382, 9.682820320129395, 0.25572043657302856, -0.8407584428787231, 0.5961713194847107, -1.770878553390503, 1.0183451175689697, -0.63037109375, -0.358642578125, -0.562744140625, 0, 
111, 1022546591, 0.303800493478775, 0.6651160717010498, -0.3183196187019348, 0.6033204793930054, 9.682722091674805, 0.22674277424812317, -0.8551419973373413, 0.5949674844741821, -1.9330934286117554, 1.0767455101013184, -0.63134765625, -0.360595703125, -0.563720703125, 0, 
112, 1022554924, 0.30378949642181396, 0.6651303768157959, -0.31830310821533203, 0.6033192276954651, 9.681903839111328, 0.24379375576972961, -0.8383932113647461, 0.6757035255432129, -1.9813764095306396, 1.0232374668121338, -0.633056640625, -0.359375, -0.566162109375, 0, 
113, 1022563257, 0.30378711223602295, 0.665142297744751, -0.3182910680770874, 0.6033135652542114, 9.668022155761719, 0.2712216079235077, -0.8496235013008118, 0.6714258790016174, -1.9859611988067627, 0.9421427249908447, -0.631591796875, -0.356689453125, -0.564208984375, 0, 
114, 1022571590, 0.30377912521362305, 0.6651493906974792, -0.31827905774116516, 0.6033161282539368, 9.660101890563965, 0.28326234221458435, -0.8666257262229919, 0.6296234726905823, -1.8915470838546753, 1.084916591644287, -0.6279296875, -0.359130859375, -0.561279296875, 0, 
115, 1022579923, 0.3037736713886261, 0.6651479005813599, -0.3182735741138458, 0.6033232808113098, 9.666277885437012, 0.26454269886016846, -0.8187362551689148, 0.6459653377532959, -1.7980296611785889, 1.1415239572525024, -0.626953125, -0.359130859375, -0.563232421875, 0, 
116, 1022588256, 0.3037615418434143, 0.6651421785354614, -0.31826338171958923, 0.6033412218093872, 9.668704986572266, 0.2678098678588867, -0.8559935092926025, 0.6126412153244019, -1.67185378074646, 1.2584530115127563, -0.62939453125, -0.361572265625, -0.561767578125, 0, 
117, 1022596589, 0.303753525018692, 0.6651196479797363, -0.31827038526535034, 0.6033664345741272, 9.690563201904297, 0.2655787169933319, -0.8605093359947205, 0.5555726885795593, -1.5233169794082642, 1.4448219537734985, -0.63134765625, -0.356201171875, -0.561767578125, 0, 
118, 1022604922, 0.3037259578704834, 0.6651071310043335, -0.3182597756385803, 0.6033997535705566, 9.684423446655273, 0.25827252864837646, -0.8567988276481628, 0.5783438086509705, -1.542860746383667, 1.4980485439300537, -0.627685546875, -0.358154296875, -0.563720703125, 0, 
119, 1022613255, 0.3037281334400177, 0.6650756597518921, -0.3182716369628906, 0.603426992893219, 9.698837280273438, 0.24856145679950714, -0.8650537133216858, 0.3946129083633423, -1.4051072597503662, 1.4530187845230103, -0.63134765625, -0.357177734375, -0.562744140625, 0, 
120, 1022621588, 0.30373501777648926, 0.6650460958480835, -0.3182939291000366, 0.6034443974494934, 9.690369606018066, 0.2467527836561203, -0.8415710926055908, 0.49271538853645325, -1.5223947763442993, 1.461445927619934, -0.630859375, -0.360107421875, -0.563232421875, 0, 
121, 1022629921, 0.3037295341491699, 0.6650245189666748, -0.31830447912216187, 0.6034653782844543, 9.697754859924316, 0.22739362716674805, -0.8870070576667786, 0.48938557505607605, -1.5721633434295654, 1.4335261583328247, -0.63427734375, -0.35791015625, -0.560302734375, 0, 
122, 1022638254, 0.30372580885887146, 0.6650097370147705, -0.318302184343338, 0.6034848690032959, 9.697257995605469, 0.21537326276302338, -0.8767428398132324, 0.5406140089035034, -1.5756467580795288, 1.299384593963623, -0.62890625, -0.358642578125, -0.562255859375, 0, 
123, 1022646587, 0.30371856689453125, 0.6649999022483826, -0.31831201910972595, 0.6034941673278809, 9.660787582397461, 0.23511037230491638, -0.836293637752533, 0.510440468788147, -1.7821743488311768, 1.341673731803894, -0.6259765625, -0.355712890625, -0.561767578125, 0, 
124, 1022654920, 0.30372393131256104, 0.6649913191795349, -0.31832316517829895, 0.6034950017929077, 9.679320335388184, 0.2300049364566803, -0.8271217346191406, 0.35867613554000854, -1.8115794658660889, 1.236296534538269, -0.62939453125, -0.359619140625, -0.561279296875, 0, 
125, 1022663253, 0.30372166633605957, 0.6649784445762634, -0.3183402717113495, 0.6035012602806091, 9.684773445129395, 0.2397649735212326, -0.8777415156364441, 0.37709271907806396, -1.793521523475647, 1.3681585788726807, -0.630859375, -0.358642578125, -0.562744140625, 0, 
126, 1022671586, 0.3037239909172058, 0.6649689078330994, -0.31835275888442993, 0.603503942489624, 9.658882141113281, 0.2379307746887207, -0.8303834795951843, 0.4417943060398102, -1.805457592010498, 1.2796871662139893, -0.63037109375, -0.359619140625, -0.563720703125, 0, 
127, 1022679919, 0.30371949076652527, 0.664966344833374, -0.31836560368537903, 0.6035022735595703, 9.67673397064209, 0.23200994729995728, -0.8450458645820618, 0.4422297477722168, -1.9416742324829102, 1.267750859260559, -0.630859375, -0.358154296875, -0.562255859375, 0, 
128, 1022688252, 0.30371972918510437, 0.6649603247642517, -0.3183719515800476, 0.6035056114196777, 9.671906471252441, 0.23876169323921204, -0.8552070260047913, 0.4344686269760132, -1.814602017402649, 1.2370394468307495, -0.62939453125, -0.357177734375, -0.560791015625, 0, 
129, 1022696585, 0.3037232756614685, 0.6649571061134338, -0.3183762729167938, 0.6035050749778748, 9.718395233154297, 0.23794867098331451, -0.897955596446991, 0.4415381848812103, -1.8558409214019775, 1.131534457206726, -0.630859375, -0.358154296875, -0.563720703125, 0, 
130, 1022704918, 0.3037295341491699, 0.6649464964866638, -0.3183724582195282, 0.6035157442092896, 9.698236465454102, 0.24419556558132172, -0.861261248588562, 0.4149762988090515, -1.641731858253479, 1.1489264965057373, -0.62744140625, -0.359130859375, -0.563232421875, 0, 
131, 1022713251, 0.30373096466064453, 0.6649437546730042, -0.318382203578949, 0.6035128831863403, 9.678908348083496, 0.24478751420974731, -0.8503645062446594, 0.40649792551994324, -1.912550926208496, 1.186835765838623, -0.63037109375, -0.357177734375, -0.562255859375, 0, 
132, 1022721584, 0.3037218451499939, 0.6649455428123474, -0.31837183237075806, 0.6035208702087402, 9.701730728149414, 0.2440183162689209, -0.8618543744087219, 0.3942031264305115, -1.8154218196868896, 1.1736186742782593, -0.63037109375, -0.358154296875, -0.562744140625, 0, 
133, 1022729917, 0.30372780561447144, 0.6649438738822937, -0.3183744251728058, 0.6035183668136597, 9.677328109741211, 0.24366892874240875, -0.8486351370811462, 0.43101072311401367, -1.8688273429870605, 1.0809974670410156, -0.629150390625, -0.356689453125, -0.563720703125, 0, 
134, 1022738250, 0.3037376403808594, 0.6649386882781982, -0.3183939456939697, 0.6035087704658508, 9.674140930175781, 0.23949971795082092, -0.8291177153587341, 0.30427151918411255, -1.950101375579834, 1.2103238105773926, -0.63330078125, -0.36083984375, -0.560791015625, 0, 
135, 1022746583, 0.3037461042404175, 0.6649335622787476, -0.31840747594833374, 0.6035029888153076, 9.677448272705078, 0.21553784608840942, -0.8033682107925415, 0.28816014528274536, -1.904789686203003, 1.1600686311721802, -0.62939453125, -0.359619140625, -0.559326171875, 0, 
136, 1022754916, 0.3037560284137726, 0.6649265885353088, -0.31842321157455444, 0.6034973859786987, 9.70770263671875, 0.23781681060791016, -0.8251867890357971, 0.46699872612953186, -1.880379319190979, 1.186425805091858, -0.63037109375, -0.359619140625, -0.561279296875, 0, 
137, 1022763249, 0.3037537932395935, 0.664927065372467, -0.3184279799461365, 0.6034954786300659, 9.708467483520508, 0.24182048439979553, -0.8663949966430664, 0.4992727041244507, -1.926895022392273, 1.1628351211547852, -0.6298828125, -0.360107421875, -0.560302734375, 0, 
138, 1022771582, 0.3037537634372711, 0.6649251580238342, -0.3184223771095276, 0.6035006642341614, 9.713953018188477, 0.24097752571105957, -0.8534464240074158, 0.5066751837730408, -1.7841211557388306, 1.1233378648757935, -0.63232421875, -0.358642578125, -0.563232421875, 0, 
139, 1022779915, 0.3037582039833069, 0.6649256944656372, -0.31842848658561707, 0.6034945845603943, 9.72403621673584, 0.24311740696430206, -0.8530856966972351, 0.4083164930343628, -1.9407777786254883, 1.1007972955703735, -0.63134765625, -0.358642578125, -0.562744140625, 0, 
140, 1022788248, 0.30377107858657837, 0.6649208664894104, -0.31842783093452454, 0.6034939289093018, 9.724081039428711, 0.26276811957359314, -0.8888269662857056, 0.3175908923149109, -1.777461290359497, 1.0501322746276855, -0.63134765625, -0.358154296875, -0.560302734375, 0, 
141, 1022796581, 0.30378517508506775, 0.6649037003517151, -0.31843939423561096, 0.603499710559845, 9.710467338562012, 0.25581684708595276, -0.8388689756393433, 0.25258198380470276, -1.666961669921875, 1.1977728605270386, -0.62939453125, -0.359130859375, -0.562255859375, 0, 
142, 1022804914, 0.30379965901374817, 0.6648930907249451, -0.318447083234787, 0.6035000085830688, 9.674917221069336, 0.2500302493572235, -0.8575832843780518, 0.2675663232803345, -1.747748851776123, 1.1375536918640137, -0.6318359375, -0.357666015625, -0.561767578125, 0, 
143, 1022813247, 0.30381643772125244, 0.6648736000061035, -0.31846028566360474, 0.6035060286521912, 9.67894172668457, 0.24858251214027405, -0.8509412407875061, 0.20765459537506104, -1.6395800113677979, 1.2018710374832153, -0.62939453125, -0.357177734375, -0.562255859375, 0, 
144, 1022821580, 0.3038354814052582, 0.6648576855659485, -0.31847378611564636, 0.6035068035125732, 9.68191146850586, 0.23189589381217957, -0.8615818619728088, 0.24943141639232635, -1.7009515762329102, 1.1691615581512451, -0.63037109375, -0.359619140625, -0.561767578125, 0, 
145, 1022829913, 0.3038482666015625, 0.6648460030555725, -0.31848180294036865, 0.6035090684890747, 9.683008193969727, 0.2077322006225586, -0.8631033301353455, 0.30119776725769043, -1.7344294786453247, 1.138322114944458, -0.6318359375, -0.355224609375, -0.562255859375, 0, 
146, 1022838246, 0.30385714769363403, 0.6648377180099487, -0.3184882700443268, 0.6035102009773254, 9.66397762298584, 0.22308458387851715, -0.8230912685394287, 0.2129567414522171, -1.78094482421875, 1.1764874458312988, -0.628173828125, -0.357177734375, -0.563232421875, 0, 
147, 1022846579, 0.303875207901001, 0.6648275256156921, -0.31850072741508484, 0.6035057306289673, 9.686064720153809, 0.24508172273635864, -0.8551662564277649, 0.19441206753253937, -1.8052273988723755, 1.0979541540145874, -0.6298828125, -0.359619140625, -0.562744140625, 0, 
148, 1022854912, 0.30389404296875, 0.664821445941925, -0.3185144066810608, 0.603495717048645, 9.648860931396484, 0.23591482639312744, -0.8178120851516724, 0.1592693030834198, -1.8856046199798584, 1.0920372009277344, -0.62841796875, -0.357666015625, -0.562255859375, 0, 
149, 1022863245, 0.3039015233516693, 0.6648253798484802, -0.31852906942367554, 0.6034799218177795, 9.636950492858887, 0.24291442334651947, -0.8089448809623718, 0.28354960680007935, -2.0801448822021484, 1.099926471710205, -0.63232421875, -0.356689453125, -0.559326171875, 0, 
150, 1022871578, 0.303918719291687, 0.6648263335227966, -0.3185485601425171, 0.6034600734710693, 9.672914505004883, 0.24772731959819794, -0.8071209788322449, 0.2943331301212311, -2.0622658729553223, 1.0697529315948486, -0.62939453125, -0.358154296875, -0.560302734375, 0, 
151, 1022879911, 0.3039191663265228, 0.6648245453834534, -0.31856775283813477, 0.6034517288208008, 9.693523406982422, 0.22856761515140533, -0.8684189915657043, 0.31800076365470886, -2.015084743499756, 1.2539960145950317, -0.630615234375, -0.356201171875, -0.563720703125, 0, 
152, 1022888244, 0.3039407432079315, 0.6648143529891968, -0.3185877501964569, 0.6034414172172546, 9.701348304748535, 0.21500001847743988, -0.914984941482544, 0.2559886574745178, -1.8640117645263672, 1.1269750595092773, -0.63037109375, -0.359619140625, -0.560791015625, 0, 
153, 1022896577, 0.30395519733428955, 0.6648058295249939, -0.31859150528907776, 0.603441596031189, 9.684024810791016, 0.22166475653648376, -0.8782947063446045, 0.32645341753959656, -1.75612473487854, 1.0620429515838623, -0.63037109375, -0.358642578125, -0.560302734375, 0, 
154, 1022904910, 0.3039596974849701, 0.6648050546646118, -0.318589448928833, 0.6034412980079651, 9.702052116394043, 0.23830702900886536, -0.8543654680252075, 0.2900043725967407, -1.8417274951934814, 1.1013351678848267, -0.63037109375, -0.357177734375, -0.559326171875, 0, 
155, 1022913243, 0.30397942662239075, 0.6648023724555969, -0.31859853863716125, 0.6034296154975891, 9.708353042602539, 0.22160276770591736, -0.844448447227478, 0.2065531611442566, -1.9121921062469482, 0.9915014505386353, -0.631103515625, -0.354248046875, -0.563232421875, 0, 
156, 1022921576, 0.3039982318878174, 0.66480553150177, -0.31858325004577637, 0.6034245491027832, 9.687173843383789, 0.22966253757476807, -0.8721895217895508, 0.2649792432785034, -1.8002322912216187, 0.8260334134101868, -0.6318359375, -0.357177734375, -0.562744140625, 0, 
157, 1022929909, 0.3040117025375366, 0.6648184657096863, -0.3185775876045227, 0.603406548500061, 9.685489654541016, 0.21189998090267181, -0.836764931678772, 0.4222506582736969, -2.064699411392212, 0.813123881816864, -0.62939453125, -0.359619140625, -0.561767578125, 0, 
158, 1022938242, 0.3040192127227783, 0.6648380756378174, -0.3185642659664154, 0.6033881902694702, 9.681305885314941, 0.22919732332229614, -0.8491157293319702, 0.43249639868736267, -2.113213062286377, 0.8045175671577454, -0.63037109375, -0.358642578125, -0.562744140625, 0, 
159, 1022946575, 0.30402788519859314, 0.6648497581481934, -0.3185630440711975, 0.6033715009689331, 9.680618286132812, 0.2584398686885834, -0.8554332256317139, 0.43129247426986694, -2.082270622253418, 0.9047971963882446, -0.6298828125, -0.361572265625, -0.562744140625, 0, 
160, 1022954908, 0.30403250455856323, 0.664870023727417, -0.31855443120002747, 0.6033515930175781, 9.674362182617188, 0.23981772363185883, -0.8376201391220093, 0.5334420800209045, -2.163365602493286, 0.8509305715560913, -0.6279296875, -0.359130859375, -0.561279296875, 0, 
161, 1022963241, 0.30402901768684387, 0.6648867726325989, -0.3185523748397827, 0.6033359169960022, 9.688824653625488, 0.23003771901130676, -0.8416563272476196, 0.575961709022522, -2.1637496948242188, 0.9798213839530945, -0.63427734375, -0.3564453125, -0.562744140625, 0, 
162, 1022971574, 0.30404308438301086, 0.6648950576782227, -0.3185587227344513, 0.6033163666725159, 9.70846939086914, 0.2520228326320648, -0.8360217213630676, 0.5869245529174805, -2.075098991394043, 0.932178795337677, -0.6318359375, -0.359130859375, -0.561767578125, 0, 
163, 1022979907, 0.3040413558483124, 0.6649037599563599, -0.3185487985610962, 0.6033128499984741, 9.694234848022461, 0.24568313360214233, -0.8075137734413147, 0.6434295773506165, -1.945336937904358, 0.9814094305038452, -0.63232421875, -0.356201171875, -0.563232421875, 0, 
164, 1022988240, 0.30403637886047363, 0.6649209856987, -0.31853845715522766, 0.6033018827438354, 9.681333541870117, 0.24134869873523712, -0.8075070977210999, 0.618506908416748, -2.0919275283813477, 0.968909740447998, -0.62939453125, -0.357666015625, -0.561767578125, 0, 
165, 1022996573, 0.30402877926826477, 0.664936900138855, -0.3185367286205292, 0.6032891273498535, 9.685559272766113, 0.2522067129611969, -0.8439416885375977, 0.6200950741767883, -2.1497645378112793, 1.0334320068359375, -0.62939453125, -0.358642578125, -0.559814453125, 0, 
166, 1023004906, 0.30403169989585876, 0.6649359464645386, -0.31853267550468445, 0.603290855884552, 9.684703826904297, 0.257821261882782, -0.914290189743042, 0.5380270481109619, -1.8159340620040894, 1.087708592414856, -0.629150390625, -0.358154296875, -0.56591796875, 0, 
167, 1023013239, 0.30403444170951843, 0.6649222373962402, -0.31853124499320984, 0.6033053994178772, 9.62814998626709, 0.24148418009281158, -0.8255935907363892, 0.518227219581604, -1.6102005243301392, 1.1952115297317505, -0.63037109375, -0.360107421875, -0.563232421875, 0, 
168, 1023021572, 0.3040098249912262, 0.6649293303489685, -0.3185177445411682, 0.6033169627189636, 9.677719116210938, 0.24624542891979218, -0.8106769919395447, 0.43997567892074585, -1.883017659187317, 1.2801226377487183, -0.628662109375, -0.357177734375, -0.563720703125, 0, 
169, 1023029905, 0.3040063679218292, 0.6649225950241089, -0.31852784752845764, 0.6033208966255188, 9.699507713317871, 0.2595269978046417, -0.8578184247016907, 0.4607744514942169, -1.8409334421157837, 1.2763316631317139, -0.63037109375, -0.359619140625, -0.562744140625, 0, 
170, 1023038238, 0.3040027618408203, 0.6649109721183777, -0.3185383081436157, 0.6033300757408142, 9.692659378051758, 0.24551858007907867, -0.8187962174415588, 0.46730607748031616, -1.7490038871765137, 1.353327989578247, -0.630859375, -0.360595703125, -0.562744140625, 0, 
171, 1023046571, 0.30398571491241455, 0.6649066209793091, -0.3185468316078186, 0.603338897228241, 9.679071426391602, 0.25246405601501465, -0.8214399814605713, 0.6309041380882263, -1.8683149814605713, 1.3841419219970703, -0.627197265625, -0.359619140625, -0.564453125, 0, 
172, 1023054904, 0.30397260189056396, 0.6649087071418762, -0.3185422718524933, 0.6033457517623901, 9.673358917236328, 0.24232548475265503, -0.8412994742393494, 0.5624117851257324, -1.8658820390701294, 1.2381153106689453, -0.629150390625, -0.357666015625, -0.563720703125, 0, 
173, 1023063237, 0.3039686679840088, 0.6649109721183777, -0.3185475170612335, 0.6033424735069275, 9.681883811950684, 0.22385144233703613, -0.8423624634742737, 0.5128738284111023, -1.9635233879089355, 1.1651403903961182, -0.62744140625, -0.357666015625, -0.559814453125, 0, 
174, 1023071570, 0.3039690852165222, 0.6649127006530762, -0.3185555934906006, 0.6033360362052917, 9.696771621704102, 0.22595790028572083, -0.8808702826499939, 0.5208654403686523, -1.9728212356567383, 1.166062355041504, -0.629150390625, -0.358642578125, -0.564697265625, 0, 
175, 1023079903, 0.30396297574043274, 0.6649121046066284, -0.318562775850296, 0.6033360362052917, 9.688919067382812, 0.24638035893440247, -0.8552306890487671, 0.5187650918960571, -1.926100730895996, 1.2287403345108032, -0.63134765625, -0.357666015625, -0.563232421875, 0, 
176, 1023088236, 0.3039526641368866, 0.6649094223976135, -0.31857675313949585, 0.6033366918563843, 9.706636428833008, 0.2568601667881012, -0.8789410591125488, 0.577191174030304, -1.9428526163101196, 1.3581180572509766, -0.63037109375, -0.358154296875, -0.562255859375, 0, 
177, 1023096569, 0.3039450943470001, 0.6648945808410645, -0.3185904920101166, 0.6033496260643005, 9.646086692810059, 0.24887697398662567, -0.8452037572860718, 0.4743243455886841, -1.7241069078445435, 1.4172611236572266, -0.63134765625, -0.356689453125, -0.562255859375, 0, 
178, 1023104902, 0.30393582582473755, 0.6648834943771362, -0.3186038136482239, 0.6033594012260437, 9.677165985107422, 0.239931121468544, -0.8533106446266174, 0.5272178053855896, -1.7836858034133911, 1.4227428436279297, -0.630126953125, -0.356689453125, -0.563720703125, 0, 
179, 1023113235, 0.3039229214191437, 0.6648648381233215, -0.31862643361091614, 0.6033746600151062, 9.71589183807373, 0.23923960328102112, -0.8549827337265015, 0.44302383065223694, -1.7319706678390503, 1.5691536664962769, -0.630859375, -0.359130859375, -0.562255859375, 0, 
180, 1023121568, 0.3039165437221527, 0.6648438572883606, -0.3186508119106293, 0.6033881902694702, 9.703744888305664, 0.2406834214925766, -0.8600530624389648, 0.34264159202575684, -1.7016688585281372, 1.5623400211334229, -0.6318359375, -0.357177734375, -0.563232421875, 0, 
181, 1023129901, 0.3039098381996155, 0.664829671382904, -0.3186696469783783, 0.6033973097801208, 9.684164047241211, 0.22406277060508728, -0.8206502199172974, 0.4098277986049652, -1.782123327255249, 1.4389309883117676, -0.63037109375, -0.359619140625, -0.561279296875, 0, 
182, 1023138234, 0.30390799045562744, 0.6648194789886475, -0.3186735212802887, 0.6034072637557983, 9.69473648071289, 0.23967933654785156, -0.7967529296875, 0.43518587946891785, -1.7202905416488647, 1.2816338539123535, -0.629638671875, -0.356201171875, -0.563232421875, 0, 
183, 1023146567, 0.30390527844429016, 0.6648116707801819, -0.3186865746974945, 0.6034104228019714, 9.692032814025879, 0.23729203641414642, -0.8545752763748169, 0.42161035537719727, -1.8480031490325928, 1.2981806993484497, -0.630859375, -0.358154296875, -0.560791015625, 0, 
184, 1023154900, 0.3038880228996277, 0.6648157238960266, -0.3186849057674408, 0.6034155488014221, 9.680994033813477, 0.23249556124210358, -0.8148787617683411, 0.5094159245491028, -1.9282524585723877, 1.289984107017517, -0.63037109375, -0.356689453125, -0.561279296875, 0, 
185, 1023163233, 0.30387765169143677, 0.6648191809654236, -0.3186923563480377, 0.6034129858016968, 9.70103645324707, 0.22070130705833435, -0.8391433954238892, 0.5616176724433899, -2.0044803619384766, 1.2385506629943848, -0.63037109375, -0.358642578125, -0.561767578125, 0, 
186, 1023171566, 0.3038583993911743, 0.66482013463974, -0.31869879364967346, 0.6034182906150818, 9.687068939208984, 0.22420388460159302, -0.8532834649085999, 0.632466733455658, -1.9399582147598267, 1.378481388092041, -0.630859375, -0.357177734375, -0.563232421875, 0, 
187, 1023179899, 0.3038439154624939, 0.6648123860359192, -0.3187035024166107, 0.6034315824508667, 9.698086738586426, 0.25338342785835266, -0.8613216876983643, 0.6437881588935852, -1.7714931964874268, 1.3626773357391357, -0.629638671875, -0.355712890625, -0.562744140625, 0, 
188, 1023188232, 0.3038364052772522, 0.664801299571991, -0.31870800256729126, 0.6034452319145203, 9.706615447998047, 0.2171940952539444, -0.8787988424301147, 0.5136166214942932, -1.7077395915985107, 1.3504849672317505, -0.630859375, -0.356689453125, -0.561279296875, 0, 
189, 1023196565, 0.30382660031318665, 0.6647936105728149, -0.3187144994735718, 0.6034552454948425, 9.684819221496582, 0.23350195586681366, -0.8540794849395752, 0.5726062059402466, -1.790191650390625, 1.3259977102279663, -0.62744140625, -0.356689453125, -0.561279296875, 0, 
190, 1023204898, 0.30381906032562256, 0.6647819876670837, -0.3187245726585388, 0.6034665703773499, 9.684243202209473, 0.24539078772068024, -0.8513076901435852, 0.4442277252674103, -1.746340274810791, 1.3960015773773193, -0.62939453125, -0.360107421875, -0.560791015625, 0, 
191, 1023213231, 0.30379998683929443, 0.6647741794586182, -0.31874188780784607, 0.6034755706787109, 9.672500610351562, 0.24991948902606964, -0.7923787832260132, 0.5634106993675232, -1.8830435276031494, 1.4987914562225342, -0.629150390625, -0.360107421875, -0.564697265625, 0, 
192, 1023221564, 0.30377936363220215, 0.6647709012031555, -0.318742960691452, 0.603489100933075, 9.706046104431152, 0.23224708437919617, -0.8633447885513306, 0.6433271765708923, -1.8169586658477783, 1.400253415107727, -0.630126953125, -0.358154296875, -0.564208984375, 0, 
193, 1023229897, 0.3037567436695099, 0.6647595167160034, -0.3187561333179474, 0.6035060882568359, 9.693353652954102, 0.2361239343881607, -0.8507912158966064, 0.6484755873680115, -1.7796130180358887, 1.538211703300476, -0.63232421875, -0.360107421875, -0.561279296875, 0, 
194, 1023238230, 0.3037468492984772, 0.6647442579269409, -0.31877824664115906, 0.6035161018371582, 9.664922714233398, 0.23413360118865967, -0.8212761878967285, 0.6207866072654724, -1.7835575342178345, 1.5122900009155273, -0.63330078125, -0.356689453125, -0.563232421875, 0, 
195, 1023246563, 0.30372366309165955, 0.6647322177886963, -0.3187893033027649, 0.6035352349281311, 9.674922943115234, 0.24194085597991943, -0.8449186682701111, 0.6782904863357544, -1.747594952583313, 1.5367003679275513, -0.63232421875, -0.359130859375, -0.560791015625, 0, 
196, 1023254896, 0.3037189245223999, 0.6647053360939026, -0.31881099939346313, 0.6035557985305786, 9.67138957977295, 0.23356540501117706, -0.8166455030441284, 0.7149445414543152, -1.5637619495391846, 1.5470486879348755, -0.630859375, -0.356201171875, -0.562744140625, 0, 
197, 1023263229, 0.3036945164203644, 0.6646897196769714, -0.3188263475894928, 0.603577196598053, 9.695563316345215, 0.2454146444797516, -0.8387532234191895, 0.6495514512062073, -1.7208541631698608, 1.6095218658447266, -0.6298828125, -0.359130859375, -0.564208984375, 0, 
198, 1023271562, 0.3036569654941559, 0.664673924446106, -0.3188416361808777, 0.6036053895950317, 9.689184188842773, 0.23094041645526886, -0.8469532132148743, 0.8383539319038391, -1.7091227769851685, 1.771480679512024, -0.629150390625, -0.355712890625, -0.5654296875, 0, 
199, 1023279895, 0.30363333225250244, 0.6646514534950256, -0.3188496232032776, 0.6036378145217896, 9.676566123962402, 0.2150200456380844, -0.8512369394302368, 0.7226287722587585, -1.528670310974121, 1.6133893728256226, -0.630859375, -0.357666015625, -0.562744140625, 0, 
200, 1023288228, 0.30362215638160706, 0.6646209955215454, -0.31887543201446533, 0.6036635041236877, 9.686050415039062, 0.2409161478281021, -0.8433405160903931, 0.6258325576782227, -1.5344592332839966, 1.6867741346359253, -0.62890625, -0.357666015625, -0.562255859375, 0, 
201, 1023296561, 0.30360251665115356, 0.6645916700363159, -0.31889820098876953, 0.6036936044692993, 9.700124740600586, 0.23363825678825378, -0.8763126134872437, 0.5248100757598877, -1.5378915071487427, 1.7351340055465698, -0.629638671875, -0.357666015625, -0.563720703125, 0, 
202, 1023304894, 0.30357953906059265, 0.6645582318305969, -0.31892430782318115, 0.6037281155586243, 9.666844367980957, 0.2520239055156708, -0.7985387444496155, 0.6292392611503601, -1.4855616092681885, 1.8463764190673828, -0.632568359375, -0.3583984375, -0.564697265625, 0, 
203, 1023313227, 0.3035573959350586, 0.6645248532295227, -0.3189503252506256, 0.6037623286247253, 9.694401741027832, 0.1856490671634674, -0.8724640607833862, 0.5226841568946838, -1.4920676946640015, 1.821223258972168, -0.632568359375, -0.354248046875, -0.564697265625, 0, 
204, 1023321560, 0.3035356402397156, 0.6645067930221558, -0.3189600110054016, 0.6037881374359131, 9.697619438171387, 0.20001313090324402, -0.8453255295753479, 0.6823887228965759, -1.618909239768982, 1.5926674604415894, -0.63037109375, -0.356201171875, -0.561767578125, 0, 
205, 1023329893, 0.3035113215446472, 0.6644940972328186, -0.31897100806236267, 0.6038085222244263, 9.679818153381348, 0.19709637761116028, -0.7886325120925903, 0.6928650736808777, -1.737221360206604, 1.5523251295089722, -0.6337890625, -0.358154296875, -0.560302734375, 0, 
206, 1023338226, 0.30348190665245056, 0.6644920110702515, -0.3189811110496521, 0.6038201451301575, 9.695406913757324, 0.2078423798084259, -0.8265694379806519, 0.749907910823822, -1.9162133932113647, 1.5311164855957031, -0.629150390625, -0.355712890625, -0.564208984375, 0, 
207, 1023346559, 0.3034524917602539, 0.6644870042800903, -0.3189956247806549, 0.6038327217102051, 9.691459655761719, 0.2139614224433899, -0.8934784531593323, 0.7085921764373779, -1.9085038900375366, 1.5610084533691406, -0.630615234375, -0.357177734375, -0.563720703125, 0, 
208, 1023354892, 0.3034065067768097, 0.6644843816757202, -0.3189883828163147, 0.6038625836372375, 9.6951904296875, 0.22856594622135162, -0.9064039587974548, 0.6920711398124695, -1.754972219467163, 1.628732442855835, -0.628662109375, -0.357666015625, -0.564208984375, 0, 
209, 1023363225, 0.3033817708492279, 0.6644651293754578, -0.31899869441986084, 0.6038907766342163, 9.68156623840332, 0.21925878524780273, -0.7773526310920715, 0.709949791431427, -1.6094319820404053, 1.611545205116272, -0.627197265625, -0.356201171875, -0.5634765625, 0, 
210, 1023371558, 0.30334651470184326, 0.6644675731658936, -0.31900349259376526, 0.6039031744003296, 9.723506927490234, 0.18562155961990356, -0.8911715149879456, 0.708233654499054, -1.9547888040542603, 1.526403546333313, -0.629638671875, -0.356689453125, -0.563720703125, 0, 
211, 1023379891, 0.30332955718040466, 0.6644748449325562, -0.3190055787563324, 0.6039026975631714, 9.738282203674316, 0.19048748910427094, -0.8989923596382141, 0.6925064325332642, -2.022589683532715, 1.2369883060455322, -0.62890625, -0.357666015625, -0.562255859375, 0, 
212, 1023388224, 0.3033177852630615, 0.6644750833511353, -0.3190081715583801, 0.6039068698883057, 9.709556579589844, 0.23470312356948853, -0.8650597929954529, 0.5999622344970703, -1.8967723846435547, 1.2767413854599, -0.63037109375, -0.355712890625, -0.561767578125, 0, 
213, 1023396557, 0.30331048369407654, 0.6644677519798279, -0.3190120756626129, 0.6039166450500488, 9.681695938110352, 0.22111251950263977, -0.8603301048278809, 0.570480227470398, -1.773311972618103, 1.2790981531143188, -0.631591796875, -0.353759765625, -0.562744140625, 0, 
214, 1023404890, 0.30331557989120483, 0.6644605994224548, -0.31901878118515015, 0.6039184331893921, 9.66765022277832, 0.21236449480056763, -0.7894236445426941, 0.5630776882171631, -1.7969028949737549, 1.1792538166046143, -0.631103515625, -0.355712890625, -0.563720703125, 0, 
215, 1023413223, 0.3033071458339691, 0.664459228515625, -0.31902074813842773, 0.603922963142395, 9.679305076599121, 0.20212233066558838, -0.8430992960929871, 0.6011660695075989, -1.8669575452804565, 1.2228235006332397, -0.63232421875, -0.356201171875, -0.562744140625, 0, 
216, 1023421556, 0.3033126890659332, 0.6644532680511475, -0.3190311789512634, 0.6039214730262756, 9.679777145385742, 0.22119012475013733, -0.818172037601471, 0.4789605736732483, -1.8523317575454712, 1.1940842866897583, -0.6337890625, -0.355224609375, -0.562255859375, 0, 
217, 1023429889, 0.30330342054367065, 0.6644493341445923, -0.319031685590744, 0.6039302349090576, 9.70344066619873, 0.2453727126121521, -0.8160364627838135, 0.6274206638336182, -1.8043818473815918, 1.2452616691589355, -0.63134765625, -0.355712890625, -0.562744140625, 0, 
218, 1023438222, 0.30330318212509155, 0.6644363403320312, -0.3190479278564453, 0.603935956954956, 9.687554359436035, 0.20526906847953796, -0.8260478973388672, 0.5681750774383545, -1.7762320041656494, 1.3501777648925781, -0.630615234375, -0.355224609375, -0.563232421875, 0, 
219, 1023446555, 0.3032896816730499, 0.6644384264945984, -0.3190540075302124, 0.6039372682571411, 9.697006225585938, 0.2124902904033661, -0.8354135751724243, 0.6115655303001404, -1.964394211769104, 1.2744362354278564, -0.62939453125, -0.355712890625, -0.561279296875, 0, 
220, 1023454888, 0.3032837510108948, 0.6644342541694641, -0.31904909014701843, 0.6039475202560425, 9.705976486206055, 0.20881827175617218, -0.8378925323486328, 0.5403578877449036, -1.7485172748565674, 1.2116044759750366, -0.630126953125, -0.356201171875, -0.563232421875, 0, 
221, 1023463221, 0.3032854199409485, 0.6644352078437805, -0.31904590129852295, 0.6039474010467529, 9.693023681640625, 0.2286543995141983, -0.8672745227813721, 0.5395382046699524, -1.8638324737548828, 1.062862515449524, -0.6328125, -0.355712890625, -0.562744140625, 0, 
222, 1023471554, 0.3032892346382141, 0.6644349694252014, -0.3190458118915558, 0.6039457321166992, 9.692307472229004, 0.2176598608493805, -0.8399578928947449, 0.5079559087753296, -1.8660354614257812, 1.0967246294021606, -0.63134765625, -0.357666015625, -0.562744140625, 0, 
223, 1023479887, 0.30328819155693054, 0.664432168006897, -0.31905314326286316, 0.6039453744888306, 9.682973861694336, 0.19130545854568481, -0.8611018657684326, 0.4606720507144928, -1.8901383876800537, 1.1971838474273682, -0.63232421875, -0.358154296875, -0.563720703125, 0, 
224, 1023488220, 0.3032883107662201, 0.6644279956817627, -0.3190532922744751, 0.603950023651123, 9.698820114135742, 0.19723312556743622, -0.8726426362991333, 0.505240797996521, -1.7929067611694336, 1.1764874458312988, -0.628173828125, -0.356201171875, -0.563720703125, 0, 
225, 1023496553, 0.3033004701137543, 0.6644173264503479, -0.31904950737953186, 0.6039576530456543, 9.698225021362305, 0.20359525084495544, -0.8988795280456543, 0.4342637360095978, -1.6473666429519653, 1.053180456161499, -0.631591796875, -0.354736328125, -0.563720703125, 0, 
226, 1023504886, 0.30332452058792114, 0.6644038558006287, -0.31905314326286316, 0.6039584279060364, 9.711732864379883, 0.202856183052063, -0.843879759311676, 0.5682005286216736, -1.6552045345306396, 1.0010554790496826, -0.627197265625, -0.358642578125, -0.563720703125, 0, 
227, 1023513219, 0.3033323884010315, 0.6643971800804138, -0.31904059648513794, 0.6039685606956482, 9.699645042419434, 0.2132597118616104, -0.8419063687324524, 0.5733234882354736, -1.63996422290802, 1.0019776821136475, -0.629638671875, -0.355224609375, -0.562744140625, 0, 
228, 1023521552, 0.30335697531700134, 0.6643816828727722, -0.3190338611602783, 0.603976845741272, 9.681145668029785, 0.22080332040786743, -0.7964990139007568, 0.657568633556366, -1.5248793363571167, 0.9431928992271423, -0.631103515625, -0.356201171875, -0.563720703125, 0, 
229, 1023529885, 0.30336418747901917, 0.6643862724304199, -0.3190181851387024, 0.6039764881134033, 9.688053131103516, 0.2003827542066574, -0.8238141536712646, 0.6063657402992249, -1.8189820051193237, 0.8847668766975403, -0.629638671875, -0.357177734375, -0.564697265625, 0, 
230, 1023538218, 0.30337265133857727, 0.6643925905227661, -0.319004088640213, 0.6039724946022034, 9.68844223022461, 0.2035723179578781, -0.8796841502189636, 0.641739010810852, -1.8624494075775146, 0.8901458382606506, -0.627685546875, -0.355712890625, -0.563232421875, 0, 
231, 1023546551, 0.3033750355243683, 0.6644041538238525, -0.3189799189567566, 0.6039714217185974, 9.703466415405273, 0.19796547293663025, -0.8471844792366028, 0.7480893135070801, -1.8694419860839844, 0.8126371502876282, -0.6298828125, -0.357177734375, -0.561767578125, 0, 
232, 1023554884, 0.30339109897613525, 0.6644130349159241, -0.31896457076072693, 0.603961706161499, 9.679252624511719, 0.20759478211402893, -0.8317306637763977, 0.667506992816925, -1.8937499523162842, 0.7710652947425842, -0.626708984375, -0.352294921875, -0.5654296875, 0, 
233, 1023563217, 0.30338966846466064, 0.6644347310066223, -0.3189495801925659, 0.6039465069770813, 9.686929702758789, 0.19648276269435883, -0.8393194079399109, 0.687562882900238, -2.137444019317627, 0.8256236910820007, -0.63134765625, -0.355224609375, -0.561767578125, 0, 
234, 1023571550, 0.30336880683898926, 0.664469838142395, -0.3188944458961487, 0.6039475798606873, 9.671514511108398, 0.20763374865055084, -0.8708146214485168, 0.659873902797699, -2.026278018951416, 0.7140992283821106, -0.63134765625, -0.356201171875, -0.561767578125, 0, 
235, 1023579883, 0.30337920784950256, 0.6644790172576904, -0.31887832283973694, 0.6039407253265381, 9.696434020996094, 0.23030313849449158, -0.8287391066551208, 0.5724781155586243, -1.9014854431152344, 0.8078985214233398, -0.63134765625, -0.357177734375, -0.563232421875, 0, 
236, 1023588216, 0.3033900558948517, 0.664492130279541, -0.31885668635368347, 0.6039323210716248, 9.646015167236328, 0.2332048863172531, -0.8009359836578369, 0.4332135319709778, -1.921208381652832, 0.7733449935913086, -0.63232421875, -0.357666015625, -0.562744140625, 0, 
237, 1023596549, 0.30339765548706055, 0.6644953489303589, -0.31885817646980286, 0.6039242148399353, 9.682077407836914, 0.229741171002388, -0.8063713908195496, 0.42114922404289246, -1.948948860168457, 1.011224389076233, -0.630126953125, -0.352783203125, -0.562744140625, 0, 
238, 1023604882, 0.30340075492858887, 0.6644953489303589, -0.31885430216789246, 0.6039248108863831, 9.690695762634277, 0.23461933434009552, -0.8520641326904297, 0.5220692753791809, -1.8344531059265137, 1.0804084539413452, -0.62841796875, -0.357666015625, -0.562255859375, 0, 
239, 1023613215, 0.30341073870658875, 0.6644875407218933, -0.3188512325286865, 0.6039299368858337, 9.706544876098633, 0.22851379215717316, -0.8289501070976257, 0.4488126039505005, -1.7071759700775146, 1.0541281700134277, -0.63134765625, -0.355712890625, -0.558349609375, 0, 
240, 1023621548, 0.30342546105384827, 0.6644904613494873, -0.3188381493091583, 0.6039262413978577, 9.722997665405273, 0.2029363363981247, -0.8291806578636169, 0.5012961626052856, -1.8079423904418945, 0.8661709427833557, -0.6298828125, -0.356201171875, -0.562744140625, 0, 
241, 1023629881, 0.3034309446811676, 0.6644970774650574, -0.31882748007774353, 0.6039217710494995, 9.697525024414062, 0.20109368860721588, -0.8418971300125122, 0.5715048313140869, -1.9034836292266846, 0.9181166887283325, -0.63037109375, -0.353759765625, -0.561279296875, 0, 
242, 1023638214, 0.303455114364624, 0.6645044684410095, -0.31882554292678833, 0.6039027571678162, 9.722192764282227, 0.18660412728786469, -0.8700058460235596, 0.34484443068504333, -1.9904693365097046, 0.7981651425361633, -0.6298828125, -0.359619140625, -0.563232421875, 0, 
243, 1023646547, 0.30348092317581177, 0.6645166873931885, -0.3188064396381378, 0.6038864850997925, 9.720917701721191, 0.20851823687553406, -0.8963360786437988, 0.4269636571407318, -1.93276047706604, 0.599603533744812, -0.629638671875, -0.357666015625, -0.564697265625, 0, 
244, 1023654880, 0.30351030826568604, 0.6645247340202332, -0.31879720091819763, 0.6038675308227539, 9.6908540725708, 0.22465670108795166, -0.7854677438735962, 0.5599784255027771, -1.9361673593521118, 0.6691718697547913, -0.6298828125, -0.355224609375, -0.562255859375, 0, 
245, 1023663213, 0.3035270571708679, 0.6645493507385254, -0.31877610087394714, 0.6038432121276855, 9.670711517333984, 0.22472424805164337, -0.815612256526947, 0.5440975427627563, -2.1409785747528076, 0.5698398351669312, -0.630615234375, -0.356689453125, -0.564208984375, 0, 
246, 1023671546, 0.30352145433425903, 0.6645815372467041, -0.3187381625175476, 0.6038305759429932, 9.667866706848145, 0.26089513301849365, -0.8379252552986145, 0.591458261013031, -2.125584363937378, 0.6762158274650574, -0.630859375, -0.357177734375, -0.563232421875, 0, 
247, 1023679879, 0.3035387098789215, 0.6645956635475159, -0.3187240660190582, 0.6038138270378113, 9.705480575561523, 0.23489129543304443, -0.8522903323173523, 0.4700724184513092, -2.0117034912109375, 0.7051599025726318, -0.63037109375, -0.355224609375, -0.561767578125, 0, 
248, 1023688212, 0.30355799198150635, 0.6645990610122681, -0.31871455907821655, 0.6038054823875427, 9.696366310119629, 0.2497144490480423, -0.8224654793739319, 0.6225283741950989, -1.845236897468567, 0.8221657276153564, -0.631591796875, -0.356201171875, -0.565185546875, 0, 
249, 1023696545, 0.30357497930526733, 0.6646010875701904, -0.31870773434638977, 0.6037982106208801, 9.702653884887695, 0.24529285728931427, -0.8473116159439087, 0.4043462872505188, -1.8563276529312134, 0.8660684823989868, -0.628662109375, -0.356689453125, -0.564208984375, 0, 
250, 1023704878, 0.30357757210731506, 0.6646074056625366, -0.318678617477417, 0.603805422782898, 9.67444133758545, 0.2132585644721985, -0.8588936924934387, 0.5842862725257874, -1.725797414779663, 0.871652364730835, -0.630126953125, -0.354736328125, -0.5673828125, 0, 
251, 1023713211, 0.3035997748374939, 0.6646098494529724, -0.3186648488044739, 0.6037986874580383, 9.671830177307129, 0.24020440876483917, -0.8428559899330139, 0.4166155159473419, -1.8026145696640015, 0.7602816820144653, -0.631103515625, -0.356201171875, -0.563232421875, 0, 
252, 1023721544, 0.3036493957042694, 0.6645937561988831, -0.31868231296539307, 0.6037822961807251, 9.671900749206543, 0.2349265217781067, -0.823723316192627, 0.4397963881492615, -1.7275391817092896, 0.828569233417511, -0.630859375, -0.357666015625, -0.561767578125, 0, 
253, 1023729877, 0.30366164445877075, 0.664590060710907, -0.3186816871166229, 0.6037805080413818, 9.698174476623535, 0.24483640491962433, -0.8324504494667053, 0.3948177993297577, -1.8058674335479736, 1.0104559659957886, -0.63037109375, -0.358154296875, -0.562744140625, 0, 
254, 1023738210, 0.303671658039093, 0.6645777821540833, -0.3186669647693634, 0.6037969589233398, 9.675137519836426, 0.22603657841682434, -0.8563587069511414, 0.4858507215976715, -1.5130455493927002, 1.050593376159668, -0.629150390625, -0.354248046875, -0.56494140625, 0, 
255, 1023746543, 0.3036723732948303, 0.6645622253417969, -0.31867367029190063, 0.6038100719451904, 9.676151275634766, 0.2572161853313446, -0.7836570739746094, 0.45483195781707764, -1.6505939960479736, 1.2879093885421753, -0.6328125, -0.357666015625, -0.561279296875, 0, 
256, 1023754876, 0.3036743402481079, 0.6645533442497253, -0.31866300106048584, 0.6038244962692261, 9.670278549194336, 0.21075426042079926, -0.8573498725891113, 0.4163593649864197, -1.616552710533142, 1.140089511871338, -0.628173828125, -0.360107421875, -0.564697265625, 0, 
257, 1023763209, 0.3036782443523407, 0.6645415425300598, -0.3186638355255127, 0.6038350462913513, 9.68822956085205, 0.23850370943546295, -0.8448998928070068, 0.48026689887046814, -1.666398048400879, 1.1790488958358765, -0.63037109375, -0.356201171875, -0.562255859375, 0, 
258, 1023771542, 0.30369824171066284, 0.6645176410675049, -0.3186677396297455, 0.6038492918014526, 9.682173728942871, 0.21635881066322327, -0.8295446634292603, 0.3922308087348938, -1.468937873840332, 1.1603248119354248, -0.63037109375, -0.356201171875, -0.562744140625, 0, 
259, 1023779875, 0.30371198058128357, 0.6644980311393738, -0.31867051124572754, 0.603862464427948, 9.723772048950195, 0.2201540321111679, -0.8455662131309509, 0.3522469401359558, -1.542527437210083, 1.1631168127059937, -0.630126953125, -0.355712890625, -0.563720703125, 0, 
260, 1023788208, 0.30373305082321167, 0.6644814610481262, -0.31867143511772156, 0.6038698554039001, 9.669035911560059, 0.215785950422287, -0.849588930606842, 0.44320303201675415, -1.5742636919021606, 1.0573298931121826, -0.6318359375, -0.359130859375, -0.562255859375, 0, 
261, 1023796541, 0.3037499189376831, 0.6644787192344666, -0.31867629289627075, 0.6038618087768555, 9.690202713012695, 0.21878033876419067, -0.8222057819366455, 0.2849839925765991, -1.8722342252731323, 0.9930639266967773, -0.631591796875, -0.355712890625, -0.564697265625, 0, 
262, 1023804874, 0.30378013849258423, 0.6644648909568787, -0.31868988275527954, 0.6038546562194824, 9.643863677978516, 0.21830768883228302, -0.7961892485618591, 0.31479892134666443, -1.7398852109909058, 1.0181914567947388, -0.628173828125, -0.357177734375, -0.56494140625, 0, 
263, 1023813207, 0.3037993013858795, 0.6644567847251892, -0.31868988275527954, 0.6038540005683899, 9.658249855041504, 0.24168887734413147, -0.8202504515647888, 0.31346699595451355, -1.7304335832595825, 0.9851233959197998, -0.62744140625, -0.357666015625, -0.562744140625, 0, 
264, 1023821540, 0.30380910634994507, 0.6644461154937744, -0.31869426369667053, 0.6038583517074585, 9.656774520874023, 0.24836789071559906, -0.856569766998291, 0.4246327579021454, -1.7153724431991577, 1.15476655960083, -0.631591796875, -0.357666015625, -0.565673828125, 0, 
265, 1023829873, 0.30382123589515686, 0.664431095123291, -0.318706214427948, 0.603862464427948, 9.703475952148438, 0.2186957448720932, -0.8333346247673035, 0.26964104175567627, -1.709660530090332, 1.2006672620773315, -0.629150390625, -0.358154296875, -0.563720703125, 0, 
266, 1023838206, 0.30383068323135376, 0.6644227504730225, -0.31871601939201355, 0.6038616895675659, 9.687723159790039, 0.21829277276992798, -0.8541396260261536, 0.4075224697589874, -1.806635856628418, 1.174386978149414, -0.63134765625, -0.359130859375, -0.563720703125, 0, 
267, 1023846539, 0.30383971333503723, 0.664417028427124, -0.3187235891819, 0.6038594841957092, 9.706048965454102, 0.1907503455877304, -0.8457431197166443, 0.34622761607170105, -1.8412407636642456, 1.1197006702423096, -0.630126953125, -0.355712890625, -0.562744140625, 0, 
268, 1023854872, 0.30386725068092346, 0.6644212007522583, -0.3187180161476135, 0.6038441061973572, 9.716940879821777, 0.18053318560123444, -0.8800727725028992, 0.2836776375770569, -1.9014085531234741, 0.7737547755241394, -0.63037109375, -0.359619140625, -0.562255859375, 0, 
269, 1023863205, 0.3038880527019501, 0.6644295454025269, -0.31870779395103455, 0.6038298010826111, 9.69916820526123, 0.22244100272655487, -0.815374493598938, 0.3925381600856781, -1.9401884078979492, 0.7459633946418762, -0.629638671875, -0.356689453125, -0.56591796875, 0, 
270, 1023871538, 0.3038952350616455, 0.6644473671913147, -0.3187048137187958, 0.6038081645965576, 9.687914848327637, 0.2260158807039261, -0.8439552783966064, 0.4355701208114624, -2.1730990409851074, 0.8849974870681763, -0.62939453125, -0.355712890625, -0.561767578125, 0, 
271, 1023879871, 0.3039039373397827, 0.6644670963287354, -0.3187004029750824, 0.6037843227386475, 9.696240425109863, 0.2384059727191925, -0.8293453454971313, 0.4590839743614197, -2.199507236480713, 0.8104344606399536, -0.627685546875, -0.354736328125, -0.564453125, 0, 
272, 1023888204, 0.3039221465587616, 0.6644800901412964, -0.3186904191970825, 0.6037662625312805, 9.682429313659668, 0.22832028567790985, -0.8265354037284851, 0.5903568267822266, -2.0183632373809814, 0.7462450861930847, -0.628173828125, -0.358154296875, -0.563720703125, 0, 
273, 1023896537, 0.30393263697624207, 0.6644930243492126, -0.31867438554763794, 0.6037552356719971, 9.703327178955078, 0.2501470148563385, -0.8505788445472717, 0.5675857663154602, -1.9702084064483643, 0.7734986543655396, -0.629638671875, -0.357666015625, -0.563720703125, 0, 
274, 1023904870, 0.30395153164863586, 0.6645024418830872, -0.3186606466770172, 0.6037424802780151, 9.690978050231934, 0.24666593968868256, -0.8423513770103455, 0.5075972676277161, -1.9231806993484497, 0.7544416189193726, -0.629638671875, -0.359130859375, -0.565673828125, 0, 
275, 1023913203, 0.3039635419845581, 0.6645123958587646, -0.31865188479423523, 0.6037300825119019, 9.690818786621094, 0.21143637597560883, -0.8420474529266357, 0.47496479749679565, -1.9823238849639893, 0.8347678780555725, -0.626220703125, -0.357177734375, -0.56298828125, 0, 
276, 1023921536, 0.30398452281951904, 0.6645178198814392, -0.31865328550338745, 0.6037130355834961, 9.697917938232422, 0.2289530485868454, -0.8248084783554077, 0.4156678020954132, -1.982528805732727, 0.8673747777938843, -0.633056640625, -0.35791015625, -0.565185546875, 0, 
277, 1023929869, 0.30400028824806213, 0.6645360589027405, -0.3186519742012024, 0.6036856770515442, 9.708698272705078, 0.24275904893875122, -0.8666087985038757, 0.34884023666381836, -2.2030162811279297, 0.7718336582183838, -0.6318359375, -0.355712890625, -0.562255859375, 0, 
278, 1023938202, 0.304020494222641, 0.6645407676696777, -0.31864869594573975, 0.6036720275878906, 9.715571403503418, 0.2283944934606552, -0.849012553691864, 0.3987368047237396, -1.9302246570587158, 0.8561813831329346, -0.630859375, -0.360595703125, -0.564697265625, 0, 
279, 1023946535, 0.3040454089641571, 0.6645473837852478, -0.31864288449287415, 0.6036553382873535, 9.695316314697266, 0.23982001841068268, -0.8717032670974731, 0.3006598651409149, -1.9488205909729004, 0.7509581446647644, -0.630126953125, -0.358642578125, -0.566162109375, 0, 
280, 1023954868, 0.30405542254447937, 0.6645567417144775, -0.3186179995536804, 0.603653073310852, 9.691804885864258, 0.25983959436416626, -0.8386460542678833, 0.29727882146835327, -1.829740047454834, 0.8082827925682068, -0.625732421875, -0.357666015625, -0.56494140625, 0, 
281, 1023963201, 0.3040800392627716, 0.6645594239234924, -0.3186098337173462, 0.6036419868469238, 9.674396514892578, 0.24846704304218292, -0.8681678175926208, 0.33157628774642944, -1.8565071821212769, 0.7737804651260376, -0.626953125, -0.356689453125, -0.562255859375, 0, 
282, 1023971534, 0.3040839433670044, 0.6645808219909668, -0.31858915090560913, 0.6036274433135986, 9.694257736206055, 0.245178684592247, -0.8462426066398621, 0.29115697741508484, -2.0850627422332764, 0.794066846370697, -0.62841796875, -0.362548828125, -0.564697265625, 0, 
283, 1023979867, 0.3041004538536072, 0.6645789742469788, -0.31859299540519714, 0.6036192178726196, 9.673458099365234, 0.2524150013923645, -0.8776621222496033, 0.2983289659023285, -1.877331256866455, 0.9828950762748718, -0.62890625, -0.356689453125, -0.562255859375, 0, 
284, 1023988200, 0.3041348457336426, 0.6645646095275879, -0.31861522793769836, 0.603606104850769, 9.654756546020508, 0.235829159617424, -0.8208742737770081, 0.15463313460350037, -1.8097864389419556, 1.0404245853424072, -0.6298828125, -0.357666015625, -0.562255859375, 0, 
285, 1023996533, 0.3041516840457916, 0.6645613312721252, -0.31862229108810425, 0.6035974621772766, 9.644731521606445, 0.23861786723136902, -0.7967416644096375, 0.26123958826065063, -1.8831456899642944, 1.012069582939148, -0.62841796875, -0.357177734375, -0.562255859375, 0, 
286, 1024004866, 0.3041696548461914, 0.6645622253417969, -0.31863272190093994, 0.6035817265510559, 9.69209098815918, 0.23405393958091736, -0.8077105283737183, 0.16224054992198944, -1.9881126880645752, 1.0176278352737427, -0.62890625, -0.357666015625, -0.563232421875, 0, 
287, 1024013199, 0.30418434739112854, 0.6645629405975342, -0.31864362955093384, 0.6035677790641785, 9.724347114562988, 0.25501829385757446, -0.8882426023483276, 0.24064576625823975, -1.9890352487564087, 1.0266441106796265, -0.6279296875, -0.358154296875, -0.563232421875, 0, 
288, 1024021532, 0.30420416593551636, 0.6645551323890686, -0.31866058707237244, 0.6035575270652771, 9.676194190979004, 0.25426337122917175, -0.8196750283241272, 0.140647754073143, -1.884682536125183, 1.1163194179534912, -0.626708984375, -0.359130859375, -0.56640625, 0, 
289, 1024029865, 0.30422982573509216, 0.6645380258560181, -0.31867462396621704, 0.6035560369491577, 9.705254554748535, 0.2504952549934387, -0.8489460945129395, 0.09548985958099365, -1.692370891571045, 1.09429132938385, -0.630126953125, -0.354736328125, -0.562255859375, 0, 
290, 1024038198, 0.30423688888549805, 0.6645344495773315, -0.3186728060245514, 0.6035574674606323, 9.69962215423584, 0.23152495920658112, -0.827637791633606, 0.25404196977615356, -1.794366717338562, 1.1009767055511475, -0.628662109375, -0.358154296875, -0.564697265625, 0, 
291, 1024046531, 0.30425336956977844, 0.6645293831825256, -0.3186814486980438, 0.603550136089325, 9.684813499450684, 0.23747676610946655, -0.8315854668617249, 0.24886789917945862, -1.8643192052841187, 1.0428067445755005, -0.62939453125, -0.356689453125, -0.562744140625, 0, 
292, 1024054864, 0.30425894260406494, 0.6645287275314331, -0.318686842918396, 0.6035452485084534, 9.68671703338623, 0.230777770280838, -0.8260090351104736, 0.36423441767692566, -1.9102967977523804, 1.1269237995147705, -0.630859375, -0.357177734375, -0.563232421875, 0, 
293, 1024063197, 0.3042694330215454, 0.6645305156707764, -0.31869587302207947, 0.6035332679748535, 9.691426277160645, 0.24220387637615204, -0.8782707452774048, 0.30982980132102966, -1.9908279180526733, 1.047109842300415, -0.631103515625, -0.356201171875, -0.565673828125, 0, 
294, 1024071530, 0.3042807877063751, 0.6645241975784302, -0.31869742274284363, 0.6035336852073669, 9.677441596984863, 0.23557743430137634, -0.8254383206367493, 0.2930268347263336, -1.7726970911026, 1.0938557386398315, -0.626953125, -0.357177734375, -0.560791015625, 0, 
295, 1024079863, 0.30428799986839294, 0.6645048260688782, -0.31869184970855713, 0.6035543084144592, 9.709434509277344, 0.22921715676784515, -0.90138840675354, 0.5145387649536133, -1.4711151123046875, 1.170519471168518, -0.6318359375, -0.358642578125, -0.562255859375, 0, 
296, 1024088196, 0.3042951822280884, 0.664492130279541, -0.31870177388191223, 0.6035595536231995, 9.682350158691406, 0.21662408113479614, -0.83585125207901, 0.3478156626224518, -1.7272573709487915, 1.2449285984039307, -0.628662109375, -0.358154296875, -0.563720703125, 0, 
297, 1024096529, 0.3042987287044525, 0.6644876003265381, -0.3186890780925751, 0.6035693883895874, 9.695648193359375, 0.24357078969478607, -0.8210462927818298, 0.6231430768966675, -1.6787697076797485, 1.025901198387146, -0.62841796875, -0.360107421875, -0.561767578125, 0, 
298, 1024104862, 0.30430006980895996, 0.6644883155822754, -0.3186839818954468, 0.6035707592964172, 9.676837921142578, 0.2440686821937561, -0.7950472831726074, 0.5853365063667297, -1.836963176727295, 1.0801522731781006, -0.630859375, -0.357666015625, -0.563232421875, 0, 
299, 1024113195, 0.30429062247276306, 0.6644891500473022, -0.31867730617523193, 0.6035782098770142, 9.670088768005371, 0.24665258824825287, -0.7803965210914612, 0.7037766575813293, -1.8270248174667358, 1.1532295942306519, -0.630126953125, -0.355712890625, -0.562744140625, 0, 
300, 1024121528, 0.304277241230011, 0.6644930243492126, -0.3186739981174469, 0.6035822033882141, 9.651094436645508, 0.248350590467453, -0.8230161070823669, 0.6151257753372192, -1.9146512746810913, 1.2264094352722168, -0.628173828125, -0.357177734375, -0.56494140625, 0, 
301, 1024129861, 0.30425843596458435, 0.6644970774650574, -0.31867527961730957, 0.6035866141319275, 9.69996452331543, 0.26430243253707886, -0.8067158460617065, 0.7225775718688965, -1.9562487602233887, 1.2782015800476074, -0.63037109375, -0.357666015625, -0.562744140625, 0, 
302, 1024138194, 0.3042460083961487, 0.6644908785820007, -0.31867435574531555, 0.6036001443862915, 9.679156303405762, 0.23940850794315338, -0.8489828705787659, 0.5581854581832886, -1.749490737915039, 1.3253318071365356, -0.631103515625, -0.357666015625, -0.564208984375, 0, 
303, 1024146527, 0.30423420667648315, 0.6644836068153381, -0.31867289543151855, 0.6036149263381958, 9.693717956542969, 0.25482267141342163, -0.8231047987937927, 0.6799298524856567, -1.725567102432251, 1.2891900539398193, -0.6298828125, -0.355712890625, -0.562255859375, 0, 
304, 1024154860, 0.3042345345020294, 0.6644644141197205, -0.3186797499656677, 0.6036322116851807, 9.714682579040527, 0.21648739278316498, -0.9000629186630249, 0.46448850631713867, -1.5798475742340088, 1.3527389764785767, -0.630126953125, -0.356689453125, -0.565185546875, 0, 
305, 1024163193, 0.30424103140830994, 0.664438009262085, -0.3186826705932617, 0.6036564707756042, 9.71022891998291, 0.25034794211387634, -0.8452398777008057, 0.4389767348766327, -1.4179654121398926, 1.2990001440048218, -0.62890625, -0.358154296875, -0.562255859375, 0, 
306, 1024171526, 0.30427315831184387, 0.6644128561019897, -0.31870120763778687, 0.6036583185195923, 9.700873374938965, 0.21837273240089417, -0.8759673833847046, 0.26259714365005493, -1.57646644115448, 1.13266122341156, -0.625244140625, -0.359619140625, -0.56494140625, 0, 
307, 1024179859, 0.3042795956134796, 0.6643974184989929, -0.31869667768478394, 0.6036745309829712, 9.68952751159668, 0.20881995558738708, -0.8257835507392883, 0.5093134641647339, -1.552389144897461, 1.1510779857635498, -0.625732421875, -0.358154296875, -0.56494140625, 0, 
308, 1024188192, 0.30427438020706177, 0.6643957495689392, -0.3186947703361511, 0.6036799550056458, 9.698551177978516, 0.2527782618999481, -0.8111306428909302, 0.3981989026069641, -1.8257956504821777, 1.2111436128616333, -0.630615234375, -0.358642578125, -0.565673828125, 0, 
309, 1024196525, 0.30428287386894226, 0.6643874645233154, -0.3186953365802765, 0.6036844253540039, 9.694805145263672, 0.22253920137882233, -0.8517410159111023, 0.42898720502853394, -1.7305103540420532, 1.1000032424926758, -0.628173828125, -0.358642578125, -0.56640625, 0, 
310, 1024204858, 0.3042837679386139, 0.6643864512443542, -0.31868797540664673, 0.6036890149116516, 9.685731887817383, 0.20893120765686035, -0.8397396802902222, 0.5695581436157227, -1.78514564037323, 1.0880670547485352, -0.6259765625, -0.359619140625, -0.56396484375, 0, 
311, 1024213191, 0.3042748272418976, 0.6643964648246765, -0.3186799883842468, 0.6036867499351501, 9.661399841308594, 0.23762241005897522, -0.8253408670425415, 0.706568717956543, -1.985526204109192, 1.0576374530792236, -0.630126953125, -0.359619140625, -0.564697265625, 0, 
312, 1024221524, 0.3042691648006439, 0.6644002199172974, -0.31867724657058716, 0.6036869883537292, 9.67370891571045, 0.24140986800193787, -0.816316545009613, 0.7453230023384094, -1.9101687669754028, 1.13340425491333, -0.632568359375, -0.356689453125, -0.565185546875, 0, 
313, 1024229857, 0.304254949092865, 0.6644067168235779, -0.3186788856983185, 0.6036862134933472, 9.678489685058594, 0.23101025819778442, -0.872532308101654, 0.6659701466560364, -2.0062992572784424, 1.2106825113296509, -0.6298828125, -0.360107421875, -0.560302734375, 0, 
314, 1024238190, 0.304232120513916, 0.6644101738929749, -0.31866174936294556, 0.603702962398529, 9.668549537658691, 0.2501322329044342, -0.8284525275230408, 0.6906878352165222, -1.7781016826629639, 1.2484121322631836, -0.628662109375, -0.359619140625, -0.56689453125, 0, 
315, 1024246523, 0.3042266070842743, 0.6644019484519958, -0.3186635673046112, 0.6037137508392334, 9.714635848999023, 0.2287968248128891, -0.8438642024993896, 0.5731441378593445, -1.7406026124954224, 1.2535607814788818, -0.631103515625, -0.355712890625, -0.563232421875, 0, 
316, 1024254856, 0.30421215295791626, 0.6643975377082825, -0.3186625838279724, 0.6037264466285706, 9.695893287658691, 0.22483259439468384, -0.8357912302017212, 0.5881028771400452, -1.7787165641784668, 1.3322733640670776, -0.629638671875, -0.355712890625, -0.562744140625, 0, 
317, 1024263189, 0.30421072244644165, 0.6643926501274109, -0.3186604082584381, 0.6037336587905884, 9.71407413482666, 0.20436929166316986, -0.8579729795455933, 0.5672272443771362, -1.7668572664260864, 1.1523332595825195, -0.628662109375, -0.357666015625, -0.56689453125, 0, 
318, 1024271522, 0.30421581864356995, 0.6643784046173096, -0.3186744749546051, 0.6037393808364868, 9.676990509033203, 0.21883288025856018, -0.7987242341041565, 0.5921242833137512, -1.7298957109451294, 1.2875250577926636, -0.630859375, -0.358642578125, -0.563232421875, 0, 
319, 1024279855, 0.3042108714580536, 0.6643750667572021, -0.31867364048957825, 0.6037459969520569, 9.662152290344238, 0.22379691898822784, -0.7881410121917725, 0.5921242833137512, -1.8059186935424805, 1.1863232851028442, -0.62744140625, -0.358642578125, -0.563232421875, 0, 
320, 1024288188, 0.3042103946208954, 0.6643773913383484, -0.3186739683151245, 0.6037435531616211, 9.683585166931152, 0.2182081937789917, -0.8290067315101624, 0.5745272636413574, -1.9139341115951538, 1.117830753326416, -0.627685546875, -0.356201171875, -0.56396484375, 0, 
321, 1024296521, 0.3042116165161133, 0.6643798351287842, -0.3186754882335663, 0.6037395000457764, 9.700597763061523, 0.25059419870376587, -0.8640820980072021, 0.4936375319957733, -1.9324530363082886, 1.0866069793701172, -0.63134765625, -0.358642578125, -0.563232421875, 0, 
322, 1024304854, 0.3042127788066864, 0.6643762588500977, -0.31867659091949463, 0.6037423610687256, 9.702269554138184, 0.2450125515460968, -0.8148229122161865, 0.5738100409507751, -1.814012885093689, 1.1577889919281006, -0.631103515625, -0.357177734375, -0.564208984375, 0, 
323, 1024313187, 0.3042012155056, 0.6643727421760559, -0.3186807930469513, 0.6037498712539673, 9.70232105255127, 0.23582187294960022, -0.8477317094802856, 0.6134865283966064, -1.847208857536316, 1.2906500101089478, -0.63037109375, -0.359130859375, -0.561279296875, 0, 
324, 1024321520, 0.30420276522636414, 0.6643673777580261, -0.31867918372154236, 0.6037558317184448, 9.690452575683594, 0.22225943207740784, -0.8383603692054749, 0.5249381065368652, -1.7573541402816772, 1.160119891166687, -0.630615234375, -0.356201171875, -0.564697265625, 0, 
325, 1024329853, 0.3042036294937134, 0.6643599271774292, -0.3186747431755066, 0.6037660241127014, 9.686848640441895, 0.22307752072811127, -0.8652081489562988, 0.5664844512939453, -1.6972119808197021, 1.1387064456939697, -0.630615234375, -0.357666015625, -0.564697265625, 0, 
326, 1024338186, 0.3042115271091461, 0.6643578410148621, -0.31867533922195435, 0.6037638783454895, 9.668792724609375, 0.22251059114933014, -0.8024203777313232, 0.621350109577179, -1.8373730182647705, 1.0590461492538452, -0.629638671875, -0.357666015625, -0.563720703125, 0, 
327, 1024346519, 0.30421796441078186, 0.6643605828285217, -0.3186608552932739, 0.6037652492523193, 9.696410179138184, 0.2148110419511795, -0.8312153816223145, 0.6044703125953674, -1.7967745065689087, 0.91791170835495, -0.63134765625, -0.358154296875, -0.563720703125, 0, 
328, 1024354852, 0.3042156994342804, 0.6643592119216919, -0.31865277886390686, 0.6037722826004028, 9.671441078186035, 0.24077458679676056, -0.8422720432281494, 0.6386909484863281, -1.771570086479187, 1.1184967756271362, -0.626220703125, -0.358154296875, -0.56591796875, 0, 
329, 1024363185, 0.3042042851448059, 0.6643556356430054, -0.3186505436897278, 0.603783130645752, 9.652864456176758, 0.24119247496128082, -0.8162226676940918, 0.681518018245697, -1.7881170511245728, 1.244109034538269, -0.627685546875, -0.357177734375, -0.56689453125, 0, 
330, 1024371518, 0.3042091727256775, 0.6643470525741577, -0.31865808367729187, 0.6037861704826355, 9.654793739318848, 0.22368168830871582, -0.7835115194320679, 0.732541561126709, -1.7754379510879517, 1.1869381666183472, -0.63037109375, -0.360107421875, -0.561767578125, 0, 
331, 1024379851, 0.30420130491256714, 0.6643450260162354, -0.3186483085155487, 0.6037976145744324, 9.695591926574707, 0.22249434888362885, -0.838541567325592, 0.7195805907249451, -1.7471340894699097, 1.1427533626556396, -0.62939453125, -0.358154296875, -0.561279296875, 0, 
332, 1024388184, 0.3042052984237671, 0.6643321514129639, -0.31865599751472473, 0.603805661201477, 9.689322471618652, 0.2180744707584381, -0.8369751572608948, 0.6283427476882935, -1.699568510055542, 1.2440321445465088, -0.6328125, -0.358154296875, -0.563720703125, 0, 
333, 1024396517, 0.3041914701461792, 0.664329469203949, -0.31865352392196655, 0.6038168668746948, 9.678743362426758, 0.21997012197971344, -0.8086491823196411, 0.7097448110580444, -1.800847053527832, 1.2606045007705688, -0.62841796875, -0.357177734375, -0.561767578125, 0, 
334, 1024404850, 0.3041878938674927, 0.6643280386924744, -0.31865453720092773, 0.6038198471069336, 9.69804859161377, 0.21913260221481323, -0.8260801434516907, 0.6581577062606812, -1.8496935367584229, 1.1878345012664795, -0.627197265625, -0.357177734375, -0.56591796875, 0, 
335, 1024413183, 0.30418384075164795, 0.6643256545066833, -0.3186521828174591, 0.6038256883621216, 9.677801132202148, 0.24042919278144836, -0.8438814282417297, 0.5982459783554077, -1.809504508972168, 1.1574816703796387, -0.628662109375, -0.356201171875, -0.5654296875, 0, 
336, 1024421516, 0.30419090390205383, 0.6643193960189819, -0.3186589181423187, 0.6038253307342529, 9.676817893981934, 0.24326084554195404, -0.8098978400230408, 0.576602041721344, -1.8148069381713867, 1.1453917026519775, -0.632080078125, -0.355712890625, -0.565673828125, 0, 
337, 1024429849, 0.3041858673095703, 0.6643181443214417, -0.3186555504798889, 0.6038311123847961, 9.685997009277344, 0.24650970101356506, -0.8084640502929688, 0.619096040725708, -1.820928692817688, 1.1503609418869019, -0.63134765625, -0.359130859375, -0.562744140625, 0, 
338, 1024438182, 0.30418843030929565, 0.664312481880188, -0.3186629116535187, 0.6038322448730469, 9.704723358154297, 0.2247576266527176, -0.823009729385376, 0.5699422955513, -1.8284852504730225, 1.1999757289886475, -0.632568359375, -0.357177734375, -0.565185546875, 0, 
339, 1024446515, 0.30418315529823303, 0.6643062829971313, -0.31866610050201416, 0.6038400530815125, 9.68520736694336, 0.24359764158725739, -0.847818911075592, 0.5539590120315552, -1.7885010242462158, 1.2436221837997437, -0.631591796875, -0.355224609375, -0.564208984375, 0, 
340, 1024454848, 0.30416908860206604, 0.6643080711364746, -0.3186582922935486, 0.6038492918014526, 9.687956809997559, 0.2175568789243698, -0.8087728023529053, 0.5094159245491028, -1.8350677490234375, 1.2331459522247314, -0.629150390625, -0.358154296875, -0.564697265625, 0, 
341, 1024463181, 0.3041667938232422, 0.6643018126487732, -0.31866931915283203, 0.6038515567779541, 9.686307907104492, 0.23080909252166748, -0.8534312844276428, 0.4384900629520416, -1.8595036268234253, 1.265932321548462, -0.628662109375, -0.359619140625, -0.565185546875, 0, 
342, 1024471514, 0.30415916442871094, 0.6642953157424927, -0.31866827607154846, 0.6038631796836853, 9.682339668273926, 0.23133693635463715, -0.7667162418365479, 0.6350793242454529, -1.7402950525283813, 1.266188383102417, -0.627197265625, -0.357177734375, -0.5654296875, 0, 
343, 1024479847, 0.30414828658103943, 0.6642909049987793, -0.31867900490760803, 0.6038678288459778, 9.672894477844238, 0.21394215524196625, -0.8477237224578857, 0.5368231534957886, -1.8890116214752197, 1.3372423648834229, -0.63134765625, -0.358642578125, -0.563720703125, 0, 
344, 1024488180, 0.30414456129074097, 0.6642888784408569, -0.3186781108379364, 0.6038724184036255, 9.71551513671875, 0.22951054573059082, -0.8328447341918945, 0.6666617393493652, -1.8231061697006226, 1.1785622835159302, -0.629638671875, -0.356201171875, -0.563720703125, 0, 
345, 1024496513, 0.30414366722106934, 0.6642898917198181, -0.3186827301979065, 0.6038693785667419, 9.701240539550781, 0.22698985040187836, -0.8620583415031433, 0.4857739508152008, -1.9342204332351685, 1.1427022218704224, -0.628173828125, -0.358154296875, -0.564208984375, 0, 
346, 1024504846, 0.30414003133773804, 0.6642904281616211, -0.31867340207099915, 0.6038755774497986, 9.648282051086426, 0.2428712248802185, -0.7681713700294495, 0.5710437297821045, -1.7977991104125977, 1.1128872632980347, -0.63134765625, -0.360107421875, -0.564208984375, 0, 
347, 1024513179, 0.3041435778141022, 0.6642807126045227, -0.3186749517917633, 0.6038837432861328, 9.703351974487305, 0.24729591608047485, -0.8342841267585754, 0.47460615634918213, -1.7112482786178589, 1.1712621450424194, -0.6328125, -0.356689453125, -0.561767578125, 0, 
348, 1024521512, 0.3041481077671051, 0.6642717123031616, -0.3186793327331543, 0.6038888692855835, 9.665875434875488, 0.20647187530994415, -0.8270122408866882, 0.38088366389274597, -1.748056173324585, 1.2046631574630737, -0.628662109375, -0.360107421875, -0.5673828125, 0, 
349, 1024529845, 0.3041450083255768, 0.6642757654190063, -0.3186792731285095, 0.6038859486579895, 9.70330810546875, 0.237436443567276, -0.8231897354125977, 0.5578780174255371, -1.9479752779006958, 1.1056896448135376, -0.628662109375, -0.358642578125, -0.5654296875, 0, 
350, 1024538178, 0.3041336238384247, 0.6642772555351257, -0.3186914622783661, 0.6038837432861328, 9.667798042297363, 0.2357926070690155, -0.7854600548744202, 0.46761348843574524, -2.005274534225464, 1.3302754163742065, -0.630615234375, -0.357666015625, -0.563720703125, 0, 
351, 1024546511, 0.30412817001342773, 0.6642826795578003, -0.31870371103286743, 0.6038740277290344, 9.683256149291992, 0.2270112782716751, -0.8320605754852295, 0.45442214608192444, -2.0848069190979004, 1.2021015882492065, -0.630859375, -0.359619140625, -0.563232421875, 0, 
352, 1024554844, 0.30413123965263367, 0.6642844676971436, -0.31870004534721375, 0.6038724780082703, 9.708532333374023, 0.22508573532104492, -0.8547852635383606, 0.5145899653434753, -1.871004581451416, 1.0636566877365112, -0.629638671875, -0.356201171875, -0.56591796875, 0, 
353, 1024563177, 0.3041231036186218, 0.6642796993255615, -0.31870490312576294, 0.6038792729377747, 9.72982120513916, 0.24616855382919312, -0.8592457175254822, 0.5685335397720337, -1.8280493021011353, 1.2712600231170654, -0.627685546875, -0.357666015625, -0.563232421875, 0, 
354, 1024571510, 0.3041227161884308, 0.6642829775810242, -0.31869345903396606, 0.6038818955421448, 9.683585166931152, 0.24982257187366486, -0.8103488087654114, 0.5710693597793579, -1.830329179763794, 1.0369923114776611, -0.626708984375, -0.358642578125, -0.56494140625, 0, 
355, 1024579843, 0.3041174113750458, 0.6642820835113525, -0.3186946213245392, 0.6038848757743835, 9.692710876464844, 0.20964352786540985, -0.8048182129859924, 0.5735283493995667, -1.8683662414550781, 1.1816359758377075, -0.630615234375, -0.355224609375, -0.564208984375, 0, 
356, 1024588176, 0.30409568548202515, 0.6642946004867554, -0.31866535544395447, 0.6038975715637207, 9.716167449951172, 0.25786641240119934, -0.8365092277526855, 0.6183532476425171, -1.8411896228790283, 1.0864790678024292, -0.629150390625, -0.358642578125, -0.564208984375, 0, 
357, 1024596509, 0.30409133434295654, 0.6642911434173584, -0.3186616599559784, 0.6039055585861206, 9.676024436950684, 0.2069760411977768, -0.8454030156135559, 0.6160736083984375, -1.777359127998352, 1.1605556011199951, -0.63037109375, -0.357666015625, -0.563232421875, 0, 
358, 1024604842, 0.30409911274909973, 0.6642891764640808, -0.3186599612236023, 0.6039047837257385, 9.693655014038086, 0.2216055691242218, -0.8349465131759644, 0.4039364457130432, -1.8201346397399902, 1.0656545162200928, -0.630126953125, -0.358642578125, -0.566162109375, 0, 
359, 1024613175, 0.3041081428527832, 0.6642919778823853, -0.318657249212265, 0.6038986444473267, 9.668209075927734, 0.20910608768463135, -0.7762770056724548, 0.45073363184928894, -1.9041237831115723, 0.972367525100708, -0.6298828125, -0.359619140625, -0.564208984375, 0, 
360, 1024621508, 0.3041146695613861, 0.664303183555603, -0.3186562657356262, 0.6038834452629089, 9.648587226867676, 0.220201775431633, -0.8170544505119324, 0.5447123646736145, -2.0670559406280518, 0.9519531726837158, -0.628173828125, -0.355224609375, -0.56591796875, 0, 
361, 1024629841, 0.30410128831863403, 0.6643167734146118, -0.3186531662940979, 0.6038768291473389, 9.679719924926758, 0.23537831008434296, -0.8291789889335632, 0.6999601721763611, -2.09407901763916, 1.1055359840393066, -0.630615234375, -0.356201171875, -0.564208984375, 0, 
362, 1024638174, 0.3041155934333801, 0.6643200516700745, -0.31866714358329773, 0.6038587093353271, 9.695384979248047, 0.22662393748760223, -0.8443150520324707, 0.6122314929962158, -2.0518922805786133, 1.0196514129638672, -0.626708984375, -0.356689453125, -0.56591796875, 0, 
363, 1024646507, 0.30410975217819214, 0.66432785987854, -0.31866180896759033, 0.6038559675216675, 9.698227882385254, 0.24402135610580444, -0.8388460278511047, 0.6437368988990784, -1.9685691595077515, 1.0631186962127686, -0.631591796875, -0.354736328125, -0.562744140625, 0, 
364, 1024654840, 0.3041098713874817, 0.6643245816230774, -0.3186704218387604, 0.6038549542427063, 9.694626808166504, 0.24628004431724548, -0.8220199346542358, 0.6936078667640686, -1.882710337638855, 1.2000012397766113, -0.628662109375, -0.356689453125, -0.56494140625, 0, 
365, 1024663173, 0.3041028082370758, 0.6643242239952087, -0.3186665177345276, 0.6038609743118286, 9.679878234863281, 0.24490045011043549, -0.8271984457969666, 0.6475534439086914, -1.8307645320892334, 1.1608881950378418, -0.62744140625, -0.359619140625, -0.563232421875, 0, 
366, 1024671506, 0.30410367250442505, 0.6643182039260864, -0.31867408752441406, 0.6038632392883301, 9.708061218261719, 0.22024621069431305, -0.8366806507110596, 0.6719895005226135, -1.8252832889556885, 1.2134490013122559, -0.628662109375, -0.357177734375, -0.5654296875, 0, 
367, 1024679839, 0.30410733819007874, 0.6643170118331909, -0.3186599612236023, 0.603870153427124, 9.705160140991211, 0.21721695363521576, -0.8949384689331055, 0.6338498592376709, -1.727564811706543, 0.9834585785865784, -0.628662109375, -0.358642578125, -0.5654296875, 0, 
368, 1024688172, 0.3041313588619232, 0.6643115878105164, -0.31866008043289185, 0.6038639545440674, 9.695252418518066, 0.21037881076335907, -0.8776675462722778, 0.45631757378578186, -1.7737218141555786, 0.9194998145103455, -0.630859375, -0.358642578125, -0.563232421875, 0, 
369, 1024696505, 0.3041461706161499, 0.6643113493919373, -0.3186523914337158, 0.6038607954978943, 9.697175979614258, 0.23176142573356628, -0.840655505657196, 0.43749111890792847, -1.8044843673706055, 0.9038239121437073, -0.62939453125, -0.360107421875, -0.564208984375, 0, 
370, 1024704838, 0.3041616678237915, 0.6643179059028625, -0.31863874197006226, 0.6038530468940735, 9.687806129455566, 0.21700094640254974, -0.8196171522140503, 0.44030869007110596, -1.8740781545639038, 0.8270580172538757, -0.632080078125, -0.357177734375, -0.565185546875, 0, 
371, 1024713171, 0.30417612195014954, 0.6643233299255371, -0.31862694025039673, 0.6038460731506348, 9.684391021728516, 0.23621422052383423, -0.811678409576416, 0.48311012983322144, -1.8704410791397095, 0.8290303945541382, -0.630859375, -0.358154296875, -0.562744140625, 0, 
372, 1024721504, 0.3041839301586151, 0.6643356680870056, -0.31863638758659363, 0.6038235425949097, 9.681873321533203, 0.24084162712097168, -0.7837382555007935, 0.5273970365524292, -2.1823201179504395, 0.9915782809257507, -0.62939453125, -0.357666015625, -0.562744140625, 0, 
373, 1024729837, 0.30418407917022705, 0.6643511056900024, -0.31863605976104736, 0.6038066744804382, 9.697808265686035, 0.2553335726261139, -0.8451159596443176, 0.5169208645820618, -2.155271291732788, 0.9679619073867798, -0.630859375, -0.357666015625, -0.561767578125, 0, 
374, 1024738170, 0.30418503284454346, 0.6643626689910889, -0.31864041090011597, 0.6037912368774414, 9.69098949432373, 0.24039554595947266, -0.8247777819633484, 0.4953024983406067, -2.1214094161987305, 1.0485442876815796, -0.628173828125, -0.358154296875, -0.5654296875, 0, 
375, 1024746503, 0.30418500304222107, 0.6643672585487366, -0.31865060329437256, 0.6037808656692505, 9.711252212524414, 0.23260857164859772, -0.8454868197441101, 0.41395166516304016, -2.0513031482696533, 1.1406275033950806, -0.630126953125, -0.356201171875, -0.563720703125, 0, 
376, 1024754836, 0.30418631434440613, 0.6643674969673157, -0.3186526894569397, 0.6037790179252625, 9.680014610290527, 0.2562977075576782, -0.8553001284599304, 0.4467378854751587, -1.8954148292541504, 1.138911485671997, -0.627685546875, -0.356201171875, -0.563232421875, 0, 
377, 1024763169, 0.304201602935791, 0.6643636226654053, -0.3186669647693634, 0.6037680506706238, 9.716093063354492, 0.23052425682544708, -0.8898471593856812, 0.20201945304870605, -1.9357317686080933, 1.0838407278060913, -0.627197265625, -0.356689453125, -0.56640625, 0, 
378, 1024771502, 0.3042052984237671, 0.6643602848052979, -0.3186711370944977, 0.603767454624176, 9.646105766296387, 0.21994318068027496, -0.8103429079055786, 0.28060394525527954, -1.8542526960372925, 1.168495774269104, -0.629638671875, -0.357666015625, -0.563720703125, 0, 
379, 1024779835, 0.3042151629924774, 0.6643435955047607, -0.3186933398246765, 0.6037691235542297, 9.697199821472168, 0.2447708547115326, -0.8689042925834656, 0.18795722723007202, -1.7703659534454346, 1.310936450958252, -0.630126953125, -0.355224609375, -0.564697265625, 0, 
380, 1024788168, 0.3042396605014801, 0.6643255949020386, -0.31871479749679565, 0.6037654280662537, 9.683793067932129, 0.208901509642601, -0.8788732886314392, 0.09718040376901627, -1.736914038658142, 1.1876039505004883, -0.631103515625, -0.358154296875, -0.564697265625, 0, 
381, 1024796501, 0.3042454719543457, 0.6643120646476746, -0.3187306523323059, 0.6037690043449402, 9.67423152923584, 0.27024316787719727, -0.7963088154792786, 0.29976341128349304, -1.7704429626464844, 1.2815570831298828, -0.628173828125, -0.357177734375, -0.5673828125, 0, 
382, 1024804834, 0.3042590916156769, 0.6642998456954956, -0.3187577724456787, 0.6037613153457642, 9.712301254272461, 0.20860324800014496, -0.8808320760726929, 0.0627804845571518, -1.8942880630493164, 1.2937493324279785, -0.628173828125, -0.356689453125, -0.56689453125, 0, 
383, 1024813167, 0.3042643666267395, 0.6642881631851196, -0.31876593828201294, 0.6037672162055969, 9.688620567321777, 0.2636016309261322, -0.7850608229637146, 0.38513559103012085, -1.7346855401992798, 1.2149854898452759, -0.626708984375, -0.356689453125, -0.56640625, 0, 
384, 1024821500, 0.3042861521244049, 0.6642635464668274, -0.3187941014766693, 0.6037684082984924, 9.70197868347168, 0.21949103474617004, -0.853270947933197, 0.2966640591621399, -1.6719306707382202, 1.2989745140075684, -0.630126953125, -0.358642578125, -0.565185546875, 0, 
385, 1024829833, 0.3042891323566437, 0.6642571091651917, -0.3187966048717499, 0.6037726402282715, 9.684613227844238, 0.2305830866098404, -0.8436884880065918, 0.4692271649837494, -1.7804582118988037, 1.1544592380523682, -0.63134765625, -0.356201171875, -0.562744140625, 0, 
386, 1024838166, 0.3042875826358795, 0.6642535924911499, -0.31881028413772583, 0.6037700176239014, 9.716559410095215, 0.244052916765213, -0.8480774760246277, 0.3077806234359741, -1.932222604751587, 1.2851173877716064, -0.62890625, -0.360595703125, -0.562744140625, 0, 
387, 1024846499, 0.30430448055267334, 0.6642420291900635, -0.3188183009624481, 0.6037699580192566, 9.735784530639648, 0.21356892585754395, -0.8687215447425842, 0.2555532157421112, -1.7401413917541504, 1.0919349193572998, -0.628662109375, -0.358154296875, -0.564697265625, 0, 
388, 1024854832, 0.30430081486701965, 0.6642475724220276, -0.3188048303127289, 0.6037731170654297, 9.676541328430176, 0.23437801003456116, -0.7962087392807007, 0.44289571046829224, -1.8519731760025024, 1.058559536933899, -0.62841796875, -0.358642578125, -0.562255859375, 0, 
389, 1024863165, 0.30431702733039856, 0.664236843585968, -0.31881043314933777, 0.6037737131118774, 9.691582679748535, 0.2240118831396103, -0.8549402356147766, 0.2897482216358185, -1.7329437732696533, 1.0763357877731323, -0.628173828125, -0.356201171875, -0.563720703125, 0, 
390, 1024871498, 0.3043234050273895, 0.6642341613769531, -0.31879922747612, 0.6037794351577759, 9.693147659301758, 0.2296408861875534, -0.8139986395835876, 0.42166152596473694, -1.726386547088623, 1.0286931991577148, -0.630615234375, -0.357177734375, -0.565673828125, 0, 
391, 1024879831, 0.304323673248291, 0.6642363667488098, -0.3187992572784424, 0.6037768125534058, 9.698507308959961, 0.21576039493083954, -0.8402589559555054, 0.5205836296081543, -1.916751503944397, 1.0866838693618774, -0.63037109375, -0.357666015625, -0.562744140625, 0, 
392, 1024888164, 0.30432748794555664, 0.6642424464225769, -0.31879723072052, 0.6037693619728088, 9.671858787536621, 0.22448372840881348, -0.8582342267036438, 0.4935607314109802, -1.9651882648468018, 1.0296411514282227, -0.630126953125, -0.359619140625, -0.568359375, 0, 
393, 1024896497, 0.30433690547943115, 0.6642480492591858, -0.31878718733787537, 0.6037637591362, 9.684480667114258, 0.24829086661338806, -0.7839264273643494, 0.522197425365448, -1.8900617361068726, 0.8932708501815796, -0.6328125, -0.357666015625, -0.562744140625, 0, 
394, 1024904830, 0.3043503761291504, 0.6642506122589111, -0.3187890648841858, 0.6037532091140747, 9.675689697265625, 0.2196069210767746, -0.8103362321853638, 0.4909992516040802, -1.9356293678283691, 0.9733152985572815, -0.629638671875, -0.357666015625, -0.56591796875, 0, 
395, 1024913163, 0.30434995889663696, 0.6642592549324036, -0.31878361105918884, 0.603746771812439, 9.662330627441406, 0.2148861438035965, -0.8148422837257385, 0.5814175009727478, -1.9850391149520874, 0.9986477494239807, -0.630859375, -0.358154296875, -0.558349609375, 0, 
396, 1024921496, 0.30436235666275024, 0.6642767190933228, -0.3187780976295471, 0.6037241816520691, 9.7189302444458, 0.20964501798152924, -0.8601494431495667, 0.545583188533783, -2.1426947116851807, 0.8030574321746826, -0.62939453125, -0.356689453125, -0.562744140625, 0, 
397, 1024929829, 0.3043707013130188, 0.664303719997406, -0.3187585771083832, 0.6037005186080933, 9.735367774963379, 0.21283763647079468, -0.8774544596672058, 0.620965838432312, -2.1973555088043213, 0.6435832977294922, -0.62939453125, -0.358642578125, -0.562744140625, 0, 
398, 1024938162, 0.30439504981040955, 0.6643262505531311, -0.3187466263771057, 0.6036698222160339, 9.69909381866455, 0.2186235785484314, -0.8756169080734253, 0.38703107833862305, -2.1822686195373535, 0.5943014025688171, -0.629150390625, -0.359130859375, -0.564208984375, 0, 
399, 1024946495, 0.3044239282608032, 0.6643398404121399, -0.31873586773872375, 0.6036460399627686, 9.668200492858887, 0.2343694269657135, -0.8461130261421204, 0.3034518361091614, -2.034090518951416, 0.6145880222320557, -0.627197265625, -0.356689453125, -0.5654296875, 0, 
400, 1024954828, 0.30445268750190735, 0.6643566489219666, -0.31871941685676575, 0.603621780872345, 9.666566848754883, 0.22329075634479523, -0.8017309904098511, 0.2916436493396759, -2.03816294670105, 0.5779595971107483, -0.631591796875, -0.355712890625, -0.564697265625, 0, 
401, 1024963161, 0.30446505546569824, 0.6643744707107544, -0.31871265172958374, 0.603599488735199, 9.662013053894043, 0.2471226304769516, -0.8180654644966125, 0.4450729191303253, -2.144615888595581, 0.7723203897476196, -0.629638671875, -0.358154296875, -0.565673828125, 0, 
402, 1024971494, 0.3044748604297638, 0.6643948554992676, -0.3187033236026764, 0.6035771369934082, 9.679988861083984, 0.2680701017379761, -0.831051766872406, 0.31625890731811523, -2.1671559810638428, 0.8026989102363586, -0.63037109375, -0.357177734375, -0.562744140625, 0, 
403, 1024979827, 0.3044898808002472, 0.6644012928009033, -0.318698525428772, 0.603564977645874, 9.694952011108398, 0.23762105405330658, -0.8171980381011963, 0.40242528915405273, -1.9529958963394165, 0.862713098526001, -0.626953125, -0.358642578125, -0.562744140625, 0, 
404, 1024988160, 0.3045106828212738, 0.6644054651260376, -0.3186986446380615, 0.6035498380661011, 9.712642669677734, 0.2185359001159668, -0.825063169002533, 0.399991899728775, -1.9518431425094604, 0.8730611205101013, -0.62841796875, -0.356201171875, -0.561279296875, 0, 
405, 1024996493, 0.30452439188957214, 0.6644206047058105, -0.3186977207660675, 0.6035267114639282, 9.684017181396484, 0.24275067448616028, -0.8228089809417725, 0.3711758553981781, -2.1483042240142822, 0.8236768841743469, -0.629150390625, -0.359619140625, -0.564697265625, 0, 
406, 1025004826, 0.30453580617904663, 0.6644431352615356, -0.31868788599967957, 0.6035014986991882, 9.686010360717773, 0.23463575541973114, -0.8180502653121948, 0.477398157119751, -2.1988413333892822, 0.7482175230979919, -0.628173828125, -0.358642578125, -0.56494140625, 0, 
407, 1025013159, 0.3045457899570465, 0.6644672155380249, -0.3186890780925751, 0.6034693121910095, 9.68073844909668, 0.2513008415699005, -0.8054949641227722, 0.3852124512195587, -2.3306522369384766, 0.7969613075256348, -0.6318359375, -0.358154296875, -0.560302734375, 0, 
408, 1025021492, 0.3045542538166046, 0.6644928455352783, -0.31868287920951843, 0.6034401059150696, 9.670143127441406, 0.24122440814971924, -0.8211562633514404, 0.470533549785614, -2.286646842956543, 0.7764700055122375, -0.631591796875, -0.357666015625, -0.565673828125, 0, 
409, 1025029825, 0.3045472502708435, 0.6645216345787048, -0.31867578625679016, 0.6034157276153564, 9.69381046295166, 0.25815579295158386, -0.8541298508644104, 0.661385178565979, -2.338003158569336, 0.8737784028053284, -0.630126953125, -0.359619140625, -0.564697265625, 0, 
410, 1025038158, 0.3045482635498047, 0.6645466089248657, -0.31867581605911255, 0.6033876538276672, 9.674581527709961, 0.24330757558345795, -0.8537880778312683, 0.6001415848731995, -2.3300116062164307, 0.8911191821098328, -0.630615234375, -0.358642578125, -0.564697265625, 0, 
411, 1025046491, 0.30454397201538086, 0.6645649671554565, -0.31867071986198425, 0.6033722758293152, 9.673441886901855, 0.23962260782718658, -0.8653663396835327, 0.6153308153152466, -2.164825677871704, 0.9551547765731812, -0.630615234375, -0.360595703125, -0.565673828125, 0, 
412, 1025054824, 0.3045467734336853, 0.66458660364151, -0.3186725974082947, 0.603346049785614, 9.663288116455078, 0.24986532330513, -0.8388146162033081, 0.45893028378486633, -2.2885680198669434, 0.9241872429847717, -0.63037109375, -0.360107421875, -0.561279296875, 0, 
413, 1025063157, 0.3045559227466583, 0.6646027565002441, -0.318673312664032, 0.6033232808113098, 9.652749061584473, 0.2499452382326126, -0.8288235068321228, 0.4038596451282501, -2.1799123287200928, 0.8746235966682434, -0.631103515625, -0.359619140625, -0.566162109375, 0, 
414, 1025071490, 0.3045524060726166, 0.6646188497543335, -0.3186696171760559, 0.6033093333244324, 9.690888404846191, 0.2528251111507416, -0.8261159658432007, 0.4494529664516449, -2.1363935470581055, 1.0152969360351562, -0.627197265625, -0.356201171875, -0.56396484375, 0, 
415, 1025079823, 0.30455073714256287, 0.664632260799408, -0.3186667859554291, 0.6032969951629639, 9.694135665893555, 0.22025622427463531, -0.8006314635276794, 0.566510021686554, -2.0940535068511963, 0.9884277582168579, -0.631103515625, -0.358642578125, -0.564697265625, 0, 
416, 1025088156, 0.3045497238636017, 0.6646441221237183, -0.3186696767807007, 0.6032828092575073, 9.65977954864502, 0.24186347424983978, -0.8274164199829102, 0.4953024983406067, -2.115262031555176, 1.0590718984603882, -0.628173828125, -0.356201171875, -0.56494140625, 0, 
417, 1025096489, 0.3045433759689331, 0.6646612286567688, -0.31867265701293945, 0.6032655239105225, 9.69084644317627, 0.25308912992477417, -0.8408989906311035, 0.5560338497161865, -2.215388059616089, 1.0410138368606567, -0.63134765625, -0.356201171875, -0.562744140625, 0, 
418, 1025104822, 0.30455419421195984, 0.6646685004234314, -0.3186901807785034, 0.603242814540863, 9.691593170166016, 0.262810081243515, -0.8342305421829224, 0.5819810628890991, -2.1578328609466553, 1.046392798423767, -0.628662109375, -0.359619140625, -0.564697265625, 0, 
419, 1025113155, 0.3045624792575836, 0.6646768450737, -0.3186914920806885, 0.603228747844696, 9.698375701904297, 0.24957676231861115, -0.8455731272697449, 0.41100600361824036, -2.0423638820648193, 0.9582284688949585, -0.63037109375, -0.360595703125, -0.563720703125, 0, 
420, 1025121488, 0.3045598268508911, 0.6646939516067505, -0.31867659091949463, 0.6032192707061768, 9.69461441040039, 0.262142151594162, -0.8323720693588257, 0.47842270135879517, -2.053480386734009, 0.9265949130058289, -0.62939453125, -0.359130859375, -0.560302734375, 0, 
421, 1025129821, 0.30455973744392395, 0.6646944284439087, -0.31867697834968567, 0.6032186150550842, 9.684403419494629, 0.22491252422332764, -0.8112837076187134, 0.5215826630592346, -1.887986660003662, 1.1086863279342651, -0.632080078125, -0.356201171875, -0.563720703125, 0, 
422, 1025138154, 0.3045504093170166, 0.6647014617919922, -0.31866493821144104, 0.6032218933105469, 9.685920715332031, 0.23048999905586243, -0.8446395993232727, 0.47504162788391113, -1.8963371515274048, 1.110223412513733, -0.62939453125, -0.359619140625, -0.563720703125, 0, 
423, 1025146487, 0.30456316471099854, 0.6646943092346191, -0.3186694383621216, 0.6032209992408752, 9.67908000946045, 0.22737230360507965, -0.8601515293121338, 0.33872270584106445, -1.7864776849746704, 1.0743892192840576, -0.626220703125, -0.356689453125, -0.56396484375, 0, 
424, 1025154820, 0.3045716881752014, 0.6646915078163147, -0.31866151094436646, 0.6032240390777588, 9.677257537841797, 0.2591676115989685, -0.8513624668121338, 0.34310266375541687, -1.755253791809082, 1.032996416091919, -0.632080078125, -0.359375, -0.566162109375, 0, 
425, 1025163153, 0.3045835793018341, 0.6646783947944641, -0.3186717927455902, 0.6032270789146423, 9.687056541442871, 0.2441285401582718, -0.9049091935157776, 0.2897482216358185, -1.7293580770492554, 1.1743358373641968, -0.6298828125, -0.358154296875, -0.563720703125, 0, 
426, 1025171486, 0.30459925532341003, 0.6646713614463806, -0.3186757564544678, 0.6032249331474304, 9.684235572814941, 0.255136102437973, -0.8837170600891113, 0.30132585763931274, -1.7816877365112305, 1.0654242038726807, -0.62939453125, -0.357177734375, -0.561279296875, 0, 
427, 1025179819, 0.304617702960968, 0.6646594405174255, -0.3186759650707245, 0.6032286286354065, 9.677183151245117, 0.2331969141960144, -0.8335295915603638, 0.32171475887298584, -1.6627095937728882, 1.0260037183761597, -0.6298828125, -0.358642578125, -0.562744140625, 0, 
428, 1025188152, 0.3046227693557739, 0.6646590828895569, -0.31867337226867676, 0.6032278537750244, 9.679244041442871, 0.25259295105934143, -0.8376504778862, 0.32980889081954956, -1.8466453552246094, 1.0823038816452026, -0.628662109375, -0.356201171875, -0.56640625, 0, 
429, 1025196485, 0.3046386241912842, 0.6646488308906555, -0.3186758756637573, 0.603229820728302, 9.703621864318848, 0.2234117090702057, -0.8440651893615723, 0.325275182723999, -1.7134770154953003, 1.056228518486023, -0.631103515625, -0.354736328125, -0.564697265625, 0, 
430, 1025204818, 0.30465006828308105, 0.6646435260772705, -0.31868407130241394, 0.603225588798523, 9.680581092834473, 0.23078115284442902, -0.8633440136909485, 0.4289359748363495, -1.8482848405838013, 1.1092501878738403, -0.629150390625, -0.357666015625, -0.5673828125, 0, 
431, 1025213151, 0.3046585023403168, 0.6646420955657959, -0.3186778128147125, 0.6032262444496155, 9.689148902893066, 0.21665062010288239, -0.8586793541908264, 0.49619895219802856, -1.7940081357955933, 0.9919880628585815, -0.628662109375, -0.356689453125, -0.56494140625, 0, 
432, 1025221484, 0.3046703040599823, 0.6646489500999451, -0.31866955757141113, 0.6032171845436096, 9.672008514404297, 0.24273179471492767, -0.8253001570701599, 0.559927225112915, -1.922847867012024, 0.8875076770782471, -0.629150390625, -0.357177734375, -0.5673828125, 0, 
433, 1025229817, 0.3046751320362091, 0.6646497249603271, -0.31865882873535156, 0.6032195687294006, 9.680707931518555, 0.24519109725952148, -0.8296955227851868, 0.5840302109718323, -1.7944693565368652, 0.9769269824028015, -0.629638671875, -0.358642578125, -0.56689453125, 0, 
434, 1025238150, 0.3046872615814209, 0.6646528840065002, -0.3186555504798889, 0.6032117009162903, 9.654945373535156, 0.25444483757019043, -0.8273720145225525, 0.5461466908454895, -1.8998461961746216, 0.947419285774231, -0.6298828125, -0.359619140625, -0.564208984375, 0, 
435, 1025246483, 0.30468589067459106, 0.6646486520767212, -0.3186552822589874, 0.6032173037528992, 9.665986061096191, 0.2664831876754761, -0.8447585105895996, 0.5461979508399963, -1.7948791980743408, 1.1596590280532837, -0.63037109375, -0.356689453125, -0.562744140625, 0, 
436, 1025254816, 0.30468034744262695, 0.6646478772163391, -0.3186453878879547, 0.6032260656356812, 9.670042037963867, 0.2530900537967682, -0.8339977264404297, 0.5119516849517822, -1.772261619567871, 1.1471590995788574, -0.626220703125, -0.359130859375, -0.5654296875, 0, 
437, 1025263149, 0.3046860992908478, 0.6646459698677063, -0.3186418116092682, 0.6032270789146423, 9.695317268371582, 0.2482980191707611, -0.8308641910552979, 0.49750521779060364, -1.809658408164978, 1.042934775352478, -0.629150390625, -0.359130859375, -0.564697265625, 0, 
438, 1025271482, 0.3047095537185669, 0.6646415591239929, -0.3186517357826233, 0.6032149195671082, 9.699518203735352, 0.2590315341949463, -0.8397945761680603, 0.3874152898788452, -1.8807122707366943, 0.9802311062812805, -0.62890625, -0.357666015625, -0.562744140625, 0, 
