PacketCounter,SampleTimeFine,Quat_W,Quat_X,Quat_Y,Quat_Z,Acc_X,Acc_Y,Acc_Z,Gyr_X,Gyr_Y,Gyr_Z,Mag_X,Mag_Y,Mag_Z,Status,
0, 3629250652, -0.6955448985099792, 0.03995697945356369, 0.7155873775482178, 0.05069725215435028, 0, 0, 0, 0, 0, 0, -0.578125, -0.009033203125, -0.652099609375, 0, 
1, 3629258985, -0.6955394148826599, 0.03996139019727707, 0.7155919075012207, 0.05070500820875168, 9.682088851928711, 0.026962220668792725, -0.23111741244792938, 0.3067176938056946, -1.790050745010376, 1.054499626159668, -0.58056640625, -0.007080078125, -0.655029296875, 0, 
2, 3629267318, -0.6955408453941345, 0.0399656668305397, 0.7155902981758118, 0.05070405453443527, 9.682926177978516, 0.03522755578160286, -0.23002678155899048, 0.39234602451324463, -1.6836748123168945, 1.0561388731002808, -0.57861328125, -0.007568359375, -0.656005859375, 0, 
3, 3629275651, -0.695534884929657, 0.039973244071006775, 0.7155951857566833, 0.05071083456277847, 9.665080070495605, 0.026118624955415726, -0.2228289693593979, 0.2853553891181946, -1.803728699684143, 1.0939455032348633, -0.580078125, -0.007568359375, -0.656494140625, 0, 
4, 3629283984, -0.6955350041389465, 0.0399845689535141, 0.7155945897102356, 0.05070912837982178, 9.664968490600586, 0.03203744441270828, -0.21902398765087128, 0.3320245146751404, -1.7114406824111938, 1.1314702033996582, -0.57763671875, -0.008056640625, -0.652099609375, 0, 
5, 3629292317, -0.6955317258834839, 0.03998175263404846, 0.7155978083610535, 0.050711482763290405, 9.675288200378418, 0.024944022297859192, -0.21999554336071014, 0.4293842315673828, -1.7547544240951538, 1.0365952253341675, -0.57861328125, -0.007568359375, -0.653076171875, 0, 
6, 3629300650, -0.6955282092094421, 0.03998066484928131, 0.7156010866165161, 0.050712548196315765, 9.671670913696289, 0.03683203086256981, -0.2448042929172516, 0.42164871096611023, -1.776065468788147, 0.9772982597351074, -0.58056640625, -0.009033203125, -0.652587890625, 0, 
7, 3629308983, -0.6955246329307556, 0.03997507691383362, 0.7156047224998474, 0.05071472376585007, 9.659547805786133, 0.05281318351626396, -0.21465849876403809, 0.4587893486022949, -1.7604663372039795, 1.0110834836959839, -0.5791015625, -0.008544921875, -0.655517578125, 0, 
8, 3629317316, -0.6955253481864929, 0.039976172149181366, 0.715604305267334, 0.0507097989320755, 9.650510787963867, 0.047744620591402054, -0.2357041835784912, 0.45999324321746826, -1.701732873916626, 1.0615179538726807, -0.57958984375, -0.009033203125, -0.654541015625, 0, 
9, 3629325649, -0.6955190896987915, 0.039975978434085846, 0.7156105637550354, 0.050707459449768066, 9.670747756958008, 0.04838412627577782, -0.23400816321372986, 0.45095139741897583, -1.8177911043167114, 1.1036021709442139, -0.57763671875, -0.008056640625, -0.654541015625, 0, 
10, 3629333982, -0.695525050163269, 0.039978958666324615, 0.7156051397323608, 0.05070170760154724, 9.672179222106934, 0.04761616885662079, -0.22293248772621155, 0.4499780833721161, -1.6046806573867798, 1.0946370363235474, -0.57861328125, -0.006591796875, -0.655029296875, 0, 
11, 3629342315, -0.6955204606056213, 0.03999025374650955, 0.7156093716621399, 0.050696685910224915, 9.68179988861084, 0.031424134969711304, -0.18937334418296814, 0.3669110834598541, -1.7926124334335327, 1.2441473007202148, -0.578125, -0.007568359375, -0.655517578125, 0, 
12, 3629350648, -0.6955177187919617, 0.04000353813171387, 0.715611457824707, 0.05069395899772644, 9.673620223999023, 0.03204881027340889, -0.23991777002811432, 0.32277777791023254, -1.767356514930725, 1.1574944257736206, -0.58056640625, -0.008056640625, -0.653076171875, 0, 
13, 3629358981, -0.6955127120018005, 0.0400056317448616, 0.7156170606613159, 0.05068240314722061, 9.659768104553223, 0.04895656555891037, -0.2019810974597931, 0.5185473561286926, -1.8049839735031128, 1.2159205675125122, -0.578125, -0.007080078125, -0.651611328125, 0, 
14, 3629367314, -0.6955137848854065, 0.040022656321525574, 0.7156156897544861, 0.05067317932844162, 9.663254737854004, 0.029912900179624557, -0.21523374319076538, 0.35105592012405396, -1.7044479846954346, 1.2592343091964722, -0.57958984375, -0.006103515625, -0.656494140625, 0, 
15, 3629375647, -0.6955162286758423, 0.04003847390413284, 0.7156124711036682, 0.050672344863414764, 9.702035903930664, 0.043846212327480316, -0.23524406552314758, 0.2813595235347748, -1.6524252891540527, 1.2589267492294312, -0.57861328125, -0.010498046875, -0.653076171875, 0, 
16, 3629383980, -0.6955202221870422, 0.04005306959152222, 0.7156077027320862, 0.05067252367734909, 9.688003540039062, 0.004666903987526894, -0.22693689167499542, 0.27977147698402405, -1.6351361274719238, 1.1498359441757202, -0.57958984375, -0.005615234375, -0.657958984375, 0, 
17, 3629392313, -0.695521354675293, 0.04005644470453262, 0.7156054377555847, 0.05068705230951309, 9.710822105407715, 0.02577582187950611, -0.25427505373954773, 0.24964912235736847, -1.655524730682373, 0.9881843328475952, -0.5791015625, -0.008056640625, -0.653076171875, 0, 
18, 3629400646, -0.6955288052558899, 0.04005739092826843, 0.7155974507331848, 0.050699591636657715, 9.705198287963867, 0.007557929493486881, -0.23562762141227722, 0.28801923990249634, -1.55598783493042, 0.9021461009979248, -0.57958984375, -0.007568359375, -0.654052734375, 0, 
19, 3629408979, -0.6955288052558899, 0.0400412455201149, 0.7155975103378296, 0.05070970952510834, 9.672536849975586, 0.0031254831701517105, -0.2025918960571289, 0.47984427213668823, -1.6793972253799438, 0.8357284069061279, -0.57763671875, -0.009521484375, -0.654541015625, 0, 
20, 3629417312, -0.6955237984657288, 0.04002540558576584, 0.7156029343605042, 0.05071461945772171, 9.671730041503906, 0.030357317999005318, -0.2334468960762024, 0.5266671180725098, -1.7977862358093262, 0.7934137582778931, -0.58056640625, -0.007080078125, -0.655029296875, 0, 
21, 3629425645, -0.6955223083496094, 0.04000169783830643, 0.7156050205230713, 0.05072418600320816, 9.67652702331543, 0.01722106896340847, -0.26411551237106323, 0.558710515499115, -1.7070094347000122, 0.7641366720199585, -0.5771484375, -0.010009765625, -0.657470703125, 0, 
22, 3629433978, -0.6955216526985168, 0.03998476266860962, 0.715605616569519, 0.05073869228363037, 9.691109657287598, 0.012061349116265774, -0.2574601173400879, 0.44324150681495667, -1.7031160593032837, 0.6963357329368591, -0.5810546875, -0.008544921875, -0.649658203125, 0, 
23, 3629442311, -0.695512056350708, 0.03996351361274719, 0.7156158685684204, 0.05074148625135422, 9.658533096313477, 0.028051408007740974, -0.1876721978187561, 0.6035354137420654, -1.8721188306808472, 0.8430542349815369, -0.57763671875, -0.007080078125, -0.654541015625, 0, 
24, 3629450644, -0.6955264210700989, 0.03995753824710846, 0.7156016230583191, 0.05074973404407501, 9.687397003173828, 0.029088400304317474, -0.2696102559566498, 0.3969309628009796, -1.4244332313537598, 0.8831660151481628, -0.5810546875, -0.008544921875, -0.654541015625, 0, 
25, 3629458977, -0.6955215930938721, 0.03994981199502945, 0.7156049013137817, 0.05077601224184036, 9.683213233947754, 0.015455412678420544, -0.2589777410030365, 0.2394290566444397, -1.7554203271865845, 0.7586296200752258, -0.58056640625, -0.007080078125, -0.654052734375, 0, 
26, 3629467310, -0.6955265998840332, 0.03994613140821457, 0.7155987620353699, 0.050796590745449066, 9.672223091125488, 0.011864743195474148, -0.25501197576522827, 0.25559163093566895, -1.5874934196472168, 0.7774560451507568, -0.5810546875, -0.010009765625, -0.656005859375, 0, 
27, 3629475643, -0.6955311894416809, 0.039941273629665375, 0.715593159198761, 0.05081614851951599, 9.659728050231934, 0.021896950900554657, -0.2472485899925232, 0.2779528796672821, -1.5826013088226318, 0.8625978231430054, -0.57861328125, -0.008544921875, -0.654052734375, 0, 
28, 3629483976, -0.6955279111862183, 0.03995198756456375, 0.7155938744544983, 0.050842516124248505, 9.667450904846191, 0.04124651476740837, -0.19007448852062225, 0.0580802746117115, -1.7425106763839722, 0.8526338338851929, -0.5771484375, -0.009033203125, -0.654052734375, 0, 
29, 3629492309, -0.6955110430717468, 0.039957039058208466, 0.7156074643135071, 0.050877638161182404, 9.660502433776855, 0.028666388243436813, -0.20452666282653809, 0.032645341008901596, -1.9760102033615112, 0.7865235209465027, -0.57763671875, -0.007080078125, -0.653076171875, 0, 
30, 3629500642, -0.6955001950263977, 0.039964981377124786, 0.7156152129173279, 0.05091138184070587, 9.65059757232666, 0.034776996821165085, -0.23198208212852478, 0.013242560438811779, -1.8789963722229004, 0.7465525269508362, -0.5791015625, -0.007568359375, -0.654052734375, 0, 
31, 3629508975, -0.6954762935638428, 0.039967842400074005, 0.7156354188919067, 0.050951093435287476, 9.666563987731934, 0.03439169377088547, -0.23830583691596985, 0.007415321189910173, -2.104029893875122, 0.7113200426101685, -0.57763671875, -0.006103515625, -0.653564453125, 0, 
32, 3629517308, -0.6954624056816101, 0.03997819125652313, 0.7156463265419006, 0.05098015069961548, 9.649093627929688, 0.027608849108219147, -0.20271356403827667, 0.038357317447662354, -1.94314706325531, 0.8105496168136597, -0.57666015625, -0.009033203125, -0.654541015625, 0, 
33, 3629525641, -0.6954410076141357, 0.03998035192489624, 0.7156649231910706, 0.05100911855697632, 9.68359088897705, 0.04046938195824623, -0.26559796929359436, 0.12098883837461472, -2.0692203044891357, 0.8109594583511353, -0.578125, -0.008544921875, -0.656982421875, 0, 
34, 3629533974, -0.6954305768013, 0.03998923301696777, 0.7156736254692078, 0.0510239452123642, 9.67513370513916, 0.04001452028751373, -0.25098827481269836, 0.19194026291370392, -1.8953251838684082, 0.9361618757247925, -0.57958984375, -0.009521484375, -0.653076171875, 0, 
35, 3629542307, -0.6954227089881897, 0.03997723013162613, 0.7156818509101868, 0.05102452635765076, 9.674568176269531, 0.013356498442590237, -0.20573103427886963, 0.5360674858093262, -1.8431745767593384, 0.9575753211975098, -0.57958984375, -0.007568359375, -0.654052734375, 0, 
36, 3629550640, -0.69540935754776, 0.03998430818319321, 0.7156932353973389, 0.051039427518844604, 9.6475191116333, 0.042288850992918015, -0.22966717183589935, 0.20956286787986755, -1.9468870162963867, 0.9145691990852356, -0.578125, -0.009033203125, -0.652587890625, 0, 
37, 3629558973, -0.6954057216644287, 0.039982013404369354, 0.7156966328620911, 0.051041968166828156, 9.71241283416748, 0.05436744913458824, -0.2748264968395233, 0.42262205481529236, -1.7612860202789307, 1.0398482084274292, -0.57861328125, -0.008056640625, -0.655517578125, 0, 
38, 3629567306, -0.6954020857810974, 0.03999195247888565, 0.7156990766525269, 0.05105122923851013, 9.669217109680176, 0.020226862281560898, -0.2407224178314209, 0.23643217980861664, -1.773298978805542, 1.0077024698257446, -0.580078125, -0.009521484375, -0.654541015625, 0, 
39, 3629575639, -0.6953940391540527, 0.03999113291501999, 0.7157061100006104, 0.051062360405921936, 9.682540893554688, 0.025279207155108452, -0.20850002765655518, 0.3231620192527771, -1.832749843597412, 0.9671295285224915, -0.57958984375, -0.010498046875, -0.653564453125, 0, 
40, 3629583972, -0.6954002976417542, 0.03999686986207962, 0.7156993746757507, 0.051068417727947235, 9.673236846923828, 0.061383284628391266, -0.2594725489616394, 0.3082801401615143, -1.5865970849990845, 1.0095466375350952, -0.57763671875, -0.010498046875, -0.653076171875, 0, 
41, 3629592305, -0.695406973361969, 0.03999233990907669, 0.7156919836997986, 0.05108513683080673, 9.671217918395996, 0.03238004446029663, -0.2361786961555481, 0.3013130724430084, -1.5483036041259766, 0.8961524367332458, -0.58251953125, -0.010986328125, -0.653076171875, 0, 
42, 3629600638, -0.6954079270362854, 0.04000024497509003, 0.715688943862915, 0.051109135150909424, 9.67013168334961, 0.038237590342760086, -0.2600327730178833, 0.11055103689432144, -1.6640160083770752, 0.8535175323486328, -0.57958984375, -0.009033203125, -0.656494140625, 0, 
43, 3629608971, -0.6954144835472107, 0.04000350832939148, 0.7156810760498047, 0.05112770199775696, 9.679801940917969, 0.04033663868904114, -0.23630362749099731, 0.20974217355251312, -1.5482779741287231, 0.954348087310791, -0.5810546875, -0.006591796875, -0.654052734375, 0, 
44, 3629617304, -0.6954216957092285, 0.04000738263130188, 0.7156729698181152, 0.05113770067691803, 9.696134567260742, 0.01802401803433895, -0.24526317417621613, 0.28717395663261414, -1.5587798357009888, 0.9554749727249146, -0.57958984375, -0.009033203125, -0.654541015625, 0, 
45, 3629625637, -0.6954308152198792, 0.04000406712293625, 0.7156636118888855, 0.05114861577749252, 9.685214042663574, 0.05457964539527893, -0.2270589917898178, 0.346932053565979, -1.5074235200881958, 0.9657464027404785, -0.57958984375, -0.008544921875, -0.655029296875, 0, 
46, 3629633970, -0.6954455375671387, 0.04000377655029297, 0.7156486511230469, 0.05115719884634018, 9.690629959106445, 0.012590425089001656, -0.26353341341018677, 0.339926540851593, -1.4183756113052368, 0.9367640018463135, -0.5791015625, -0.010009765625, -0.655029296875, 0, 
47, 3629642303, -0.6954604387283325, 0.03998779505491257, 0.7156338095664978, 0.05117380619049072, 9.702902793884277, 0.027874628081917763, -0.2466014176607132, 0.413272887468338, -1.3864729404449463, 0.7927477955818176, -0.580078125, -0.007568359375, -0.653076171875, 0, 
48, 3629650636, -0.6954784393310547, 0.03997146338224411, 0.7156156301498413, 0.05119812488555908, 9.681488990783691, 0.056543368846178055, -0.2336977869272232, 0.335405558347702, -1.3349881172180176, 0.6329917311668396, -0.5810546875, -0.008056640625, -0.654541015625, 0, 
49, 3629658969, -0.6954973340034485, 0.03995119780302048, 0.7155973315238953, 0.051213063299655914, 9.661273002624512, 0.04292421042919159, -0.24084337055683136, 0.4694705009460449, -1.3113720417022705, 0.7718977928161621, -0.578125, -0.009521484375, -0.656005859375, 0, 
50, 3629667302, -0.6955124735832214, 0.03992895036935806, 0.7155828475952148, 0.05122670531272888, 9.700313568115234, 0.0293338093906641, -0.22221021354198456, 0.4976973831653595, -1.4003814458847046, 0.6715924143791199, -0.5810546875, -0.007568359375, -0.652099609375, 0, 
51, 3629675635, -0.6955240964889526, 0.03990645706653595, 0.7155721187591553, 0.05123685300350189, 9.684911727905273, 0.03373187035322189, -0.2039128690958023, 0.5390387773513794, -1.4567327499389648, 0.786856472492218, -0.57568359375, -0.006591796875, -0.655029296875, 0, 
52, 3629683968, -0.6955360174179077, 0.03987637907266617, 0.715561032295227, 0.05125148594379425, 9.680500030517578, 0.04166531190276146, -0.20140975713729858, 0.5661642551422119, -1.4585001468658447, 0.5816352367401123, -0.5771484375, -0.008544921875, -0.655029296875, 0, 
53, 3629692301, -0.6955550909042358, 0.03983599692583084, 0.7155430316925049, 0.051274627447128296, 9.674521446228027, 0.06214414909482002, -0.2321814000606537, 0.5810204744338989, -1.2936725616455078, 0.49628859758377075, -0.5771484375, -0.007568359375, -0.653564453125, 0, 
54, 3629700634, -0.6955744028091431, 0.039809130132198334, 0.7155243754386902, 0.051294535398483276, 9.680965423583984, 0.048074256628751755, -0.21327631175518036, 0.4798186719417572, -1.31180739402771, 0.5716456174850464, -0.57763671875, -0.010009765625, -0.654541015625, 0, 
55, 3629708967, -0.6955951452255249, 0.039779432117938995, 0.715505063533783, 0.05130559951066971, 9.681029319763184, 0.028933249413967133, -0.22289688885211945, 0.5992322564125061, -1.2786370515823364, 0.7180310487747192, -0.57958984375, -0.010986328125, -0.654541015625, 0, 
56, 3629717300, -0.6956136226654053, 0.03975281864404678, 0.715488076210022, 0.05131039023399353, 9.680542945861816, 0.043882690370082855, -0.2066742479801178, 0.6272285580635071, -1.3458999395370483, 0.7177236676216125, -0.57763671875, -0.009521484375, -0.655029296875, 0, 
57, 3629725633, -0.6956304907798767, 0.039725951850414276, 0.7154720425605774, 0.051326170563697815, 9.672574043273926, 0.054282695055007935, -0.19937820732593536, 0.5250277519226074, -1.3493322134017944, 0.6967455744743347, -0.578125, -0.008544921875, -0.653076171875, 0, 
58, 3629733966, -0.6956385970115662, 0.039698533713817596, 0.7154653668403625, 0.05133192241191864, 9.65723991394043, 0.038951121270656586, -0.2319612056016922, 0.6274846792221069, -1.5450506210327148, 0.6869097352027893, -0.578125, -0.010009765625, -0.653564453125, 0, 
59, 3629742299, -0.6956454515457153, 0.03967571258544922, 0.7154591679573059, 0.05134259909391403, 9.660027503967285, 0.043905600905418396, -0.2552163004875183, 0.5388082265853882, -1.546894907951355, 0.7728710770606995, -0.57861328125, -0.008056640625, -0.653564453125, 0, 
60, 3629750632, -0.6956638097763062, 0.039647333323955536, 0.7154428362846375, 0.05134513974189758, 9.68901252746582, 0.04043501988053322, -0.2555996775627136, 0.6659829020500183, -1.352918267250061, 0.7216682434082031, -0.578125, -0.010498046875, -0.653076171875, 0, 
61, 3629758965, -0.6956779360771179, 0.03962068259716034, 0.7154296040534973, 0.051358915865421295, 9.680135726928711, 0.06419676542282104, -0.25477710366249084, 0.5422148704528809, -1.4052737951278687, 0.7136253118515015, -0.576171875, -0.009521484375, -0.652587890625, 0, 
62, 3629767298, -0.6956998109817505, 0.03959978371858597, 0.715408444404602, 0.05137188732624054, 9.686015129089355, 0.04321032389998436, -0.2195708155632019, 0.4920879304409027, -1.2711575031280518, 0.700408399105072, -0.580078125, -0.008056640625, -0.655029296875, 0, 
63, 3629775631, -0.6957191824913025, 0.039574459195137024, 0.7153899073600769, 0.05138754844665527, 9.6588773727417, 0.03233800455927849, -0.23892641067504883, 0.5107606649398804, -1.30112624168396, 0.7156232595443726, -0.5771484375, -0.009521484375, -0.654541015625, 0, 
64, 3629783964, -0.6957336664199829, 0.039555422961711884, 0.7153763175010681, 0.0513962060213089, 9.679484367370605, 0.06538620591163635, -0.17941288650035858, 0.5203659534454346, -1.4217437505722046, 0.7510989904403687, -0.57958984375, -0.008544921875, -0.655517578125, 0, 
65, 3629792297, -0.6957435607910156, 0.03953289985656738, 0.7153670787811279, 0.051409199833869934, 9.65034008026123, 0.08091907203197479, -0.24662889540195465, 0.5102739334106445, -1.4854975938796997, 0.7578355669975281, -0.58154296875, -0.009033203125, -0.655029296875, 0, 
66, 3629800630, -0.6957529783248901, 0.039528004825115204, 0.7153568863868713, 0.05142698436975479, 9.674138069152832, 0.040391288697719574, -0.20918579399585724, 0.293500691652298, -1.5110092163085938, 0.7959494590759277, -0.5791015625, -0.010986328125, -0.656494140625, 0, 
67, 3629808963, -0.6957616806030273, 0.03951425105333328, 0.7153474688529968, 0.05145018547773361, 9.664813995361328, 0.02830693870782852, -0.21874675154685974, 0.3264918625354767, -1.49684476852417, 0.745002806186676, -0.5791015625, -0.008544921875, -0.654052734375, 0, 
68, 3629817296, -0.6957679986953735, 0.03950078785419464, 0.7153410315513611, 0.05146574229001999, 9.691534996032715, 0.039453402161598206, -0.23840036988258362, 0.399236261844635, -1.5693072080612183, 0.7302233576774597, -0.5810546875, -0.011474609375, -0.656005859375, 0, 
69, 3629825629, -0.6957737803459167, 0.0394856259226799, 0.7153347730636597, 0.051486335694789886, 9.683735847473145, 0.04863053187727928, -0.22252394258975983, 0.36555352807044983, -1.5565000772476196, 0.7527639269828796, -0.58349609375, -0.009033203125, -0.655517578125, 0, 
70, 3629833962, -0.6957778334617615, 0.03948277235031128, 0.7153294086456299, 0.05150686204433441, 9.656998634338379, 0.042286764830350876, -0.2136765718460083, 0.24715176224708557, -1.6072806119918823, 0.7846665382385254, -0.580078125, -0.010498046875, -0.653564453125, 0, 
71, 3629842295, -0.6957838535308838, 0.03947416692972183, 0.7153218984603882, 0.051536113023757935, 9.66453742980957, 0.0355420745909214, -0.2131555825471878, 0.21813084185123444, -1.5421948432922363, 0.7345394492149353, -0.57666015625, -0.010498046875, -0.655029296875, 0, 
72, 3629850628, -0.6957863569259644, 0.03947298228740692, 0.7153185606002808, 0.0515516996383667, 9.640939712524414, 0.04181332513689995, -0.19263170659542084, 0.28051429986953735, -1.645432949066162, 0.8456156253814697, -0.578125, -0.010986328125, -0.655517578125, 0, 
73, 3629858961, -0.6957859396934509, 0.03946872800588608, 0.7153173685073853, 0.051577746868133545, 9.668445587158203, 0.056218717247247696, -0.224266916513443, 0.20779548585414886, -1.6706116199493408, 0.8003552556037903, -0.57861328125, -0.009521484375, -0.651611328125, 0, 
74, 3629867294, -0.6957842707633972, 0.039472796022892, 0.7153168320655823, 0.051603272557258606, 9.66837215423584, 0.04212358221411705, -0.26682016253471375, 0.13207979500293732, -1.7114150524139404, 0.7980242371559143, -0.57861328125, -0.010986328125, -0.657470703125, 0, 
75, 3629875627, -0.695780336856842, 0.039482660591602325, 0.7153187394142151, 0.05162245035171509, 9.667813301086426, 0.04594063013792038, -0.22081977128982544, 0.14181320369243622, -1.7486069202423096, 1.0001462697982788, -0.57861328125, -0.012451171875, -0.656494140625, 0, 
76, 3629883960, -0.695779025554657, 0.03948398679494858, 0.715318500995636, 0.0516422837972641, 9.665788650512695, 0.031151970848441124, -0.23276981711387634, 0.21174006164073944, -1.712106704711914, 0.8260205984115601, -0.57861328125, -0.010986328125, -0.656494140625, 0, 
77, 3629892293, -0.6957769989967346, 0.03948692977428436, 0.7153187394142151, 0.051664166152477264, 9.637547492980957, 0.05245630443096161, -0.18935567140579224, 0.1821940392255783, -1.708661437034607, 0.9092797040939331, -0.578125, -0.012451171875, -0.654541015625, 0, 
78, 3629900626, -0.6957816481590271, 0.03948388248682022, 0.7153136134147644, 0.05167331546545029, 9.662983894348145, 0.04773343726992607, -0.2152998447418213, 0.35940617322921753, -1.6095730066299438, 0.8909528255462646, -0.57958984375, -0.010498046875, -0.655517578125, 0, 
79, 3629908959, -0.6957790851593018, 0.039483100175857544, 0.7153149247169495, 0.051691651344299316, 9.660106658935547, 0.059455372393131256, -0.19309654831886292, 0.2523130178451538, -1.7227365970611572, 0.9056808352470398, -0.578125, -0.010498046875, -0.656005859375, 0, 
80, 3629917292, -0.695772111415863, 0.03948259353637695, 0.7153213620185852, 0.05169406533241272, 9.670434951782227, 0.048506367951631546, -0.21949680149555206, 0.40458962321281433, -1.839844822883606, 0.9666683673858643, -0.580078125, -0.009521484375, -0.652587890625, 0, 
81, 3629925625, -0.69576495885849, 0.039475217461586, 0.7153278589248657, 0.05170533061027527, 9.699028968811035, 0.04887036606669426, -0.2231907844543457, 0.3849947452545166, -1.817176103591919, 0.9020692706108093, -0.5771484375, -0.010986328125, -0.656005859375, 0, 
82, 3629933958, -0.6957621574401855, 0.03946822136640549, 0.7153314352035522, 0.051700569689273834, 9.67916488647461, 0.06175662577152252, -0.235477015376091, 0.5387825965881348, -1.771557331085205, 0.9751978516578674, -0.57958984375, -0.009521484375, -0.654052734375, 0, 
83, 3629942291, -0.6957579851150513, 0.03945183753967285, 0.7153363227844238, 0.05170033872127533, 9.683855056762695, 0.05545342341065407, -0.23798158764839172, 0.5854005217552185, -1.7713780403137207, 0.9267357587814331, -0.57763671875, -0.011962890625, -0.654541015625, 0, 
84, 3629950624, -0.6957635283470154, 0.03944137692451477, 0.7153319120407104, 0.05169559270143509, 9.693275451660156, 0.04544703662395477, -0.2320401668548584, 0.5690842270851135, -1.6102901697158813, 0.9523244500160217, -0.57958984375, -0.010986328125, -0.654541015625, 0, 
85, 3629958957, -0.6957599520683289, 0.03942536562681198, 0.7153365612030029, 0.05169099569320679, 9.667728424072266, 0.04687485098838806, -0.2235758900642395, 0.6257685422897339, -1.7658965587615967, 0.9723034501075745, -0.580078125, -0.010009765625, -0.656982421875, 0, 
86, 3629967290, -0.6957663297653198, 0.03940964490175247, 0.71533203125, 0.0516824871301651, 9.6880521774292, 0.04322675243020058, -0.2479322999715805, 0.6564288139343262, -1.600582242012024, 0.9360081553459167, -0.5771484375, -0.009521484375, -0.654541015625, 0, 
87, 3629975623, -0.6957690715789795, 0.039394356310367584, 0.715330183506012, 0.05168171972036362, 9.666620254516602, 0.04376881197094917, -0.22163422405719757, 0.5796629786491394, -1.639849066734314, 0.951376736164093, -0.57861328125, -0.011474609375, -0.656494140625, 0, 
88, 3629983956, -0.6957770586013794, 0.0393824428319931, 0.7153235673904419, 0.05167601257562637, 9.694111824035645, 0.042975496500730515, -0.23121139407157898, 0.5907539129257202, -1.5637234449386597, 0.9494044184684753, -0.57958984375, -0.010986328125, -0.655517578125, 0, 
89, 3629992289, -0.695777416229248, 0.03937076777219772, 0.7153241038322449, 0.051671840250492096, 9.67248249053955, 0.04067709669470787, -0.23906953632831573, 0.5801495909690857, -1.689924716949463, 1.0159502029418945, -0.57958984375, -0.010009765625, -0.653076171875, 0, 
90, 3630000622, -0.6957777142524719, 0.03935813158750534, 0.7153249382972717, 0.051666259765625, 9.674381256103516, 0.054696545004844666, -0.22815224528312683, 0.6004360914230347, -1.7103904485702515, 0.9315000176429749, -0.580078125, -0.011474609375, -0.654052734375, 0, 
91, 3630008955, -0.6957776546478271, 0.03934691846370697, 0.7153258323669434, 0.05166413635015488, 9.680274963378906, 0.024448644369840622, -0.20811109244823456, 0.5539974570274353, -1.698249340057373, 1.0004279613494873, -0.57666015625, -0.012451171875, -0.654541015625, 0, 
92, 3630017288, -0.6957806348800659, 0.039337411522865295, 0.715323805809021, 0.051657602190971375, 9.678488731384277, 0.05185040459036827, -0.2511448562145233, 0.5779467821121216, -1.6590596437454224, 0.9759920239448547, -0.58056640625, -0.011474609375, -0.655029296875, 0, 
93, 3630025621, -0.6957857608795166, 0.03932512551546097, 0.7153189182281494, 0.051665596663951874, 9.67689323425293, 0.050951626151800156, -0.24145744740962982, 0.46416839957237244, -1.5855212211608887, 0.8993542790412903, -0.5791015625, -0.008544921875, -0.654541015625, 0, 
94, 3630033954, -0.69579017162323, 0.03931841999292374, 0.7153154015541077, 0.051662616431713104, 9.687216758728027, 0.0609406977891922, -0.24305693805217743, 0.5149614214897156, -1.6309863328933716, 0.9711765050888062, -0.578125, -0.011962890625, -0.656982421875, 0, 
95, 3630042287, -0.6957921981811523, 0.03930746018886566, 0.7153134942054749, 0.05166907608509064, 9.688063621520996, 0.06651856750249863, -0.22715488076210022, 0.46637117862701416, -1.6446131467819214, 0.9235596060752869, -0.5791015625, -0.009033203125, -0.654541015625, 0, 
96, 3630050620, -0.6958000063896179, 0.039296023547649384, 0.7153066396713257, 0.05166669934988022, 9.691411972045898, 0.04940434917807579, -0.21430164575576782, 0.556251585483551, -1.5627501010894775, 0.9223045706748962, -0.58154296875, -0.012451171875, -0.656982421875, 0, 
97, 3630058953, -0.6958082318305969, 0.03928634524345398, 0.7152989506721497, 0.05166985094547272, 9.65575885772705, 0.05525461584329605, -0.1981632560491562, 0.486913800239563, -1.5323715209960938, 0.9755309820175171, -0.58056640625, -0.012939453125, -0.655029296875, 0, 
98, 3630067286, -0.6958119869232178, 0.039277613162994385, 0.7152961492538452, 0.05166546255350113, 9.670448303222656, 0.06266851723194122, -0.21754108369350433, 0.5491819977760315, -1.642410397529602, 0.9632872939109802, -0.576171875, -0.008056640625, -0.653076171875, 0, 
99, 3630075619, -0.6958106160163879, 0.03926922380924225, 0.7152981162071228, 0.05166206508874893, 9.667976379394531, 0.05161193013191223, -0.23836368322372437, 0.5389875769615173, -1.722634196281433, 1.0391567945480347, -0.5791015625, -0.010498046875, -0.655029296875, 0, 
100, 3630083952, -0.695810079574585, 0.03927246481180191, 0.7152993083000183, 0.05165162682533264, 9.670666694641113, 0.07362184673547745, -0.21803292632102966, 0.4962117671966553, -1.738258719444275, 1.133750081062317, -0.58251953125, -0.013916015625, -0.656005859375, 0, 
101, 3630092285, -0.6958033442497253, 0.03926312178373337, 0.7153062224388123, 0.0516524538397789, 9.69362735748291, 0.038648176938295364, -0.22553780674934387, 0.5070721507072449, -1.8195327520370483, 0.9820113182067871, -0.5791015625, -0.009521484375, -0.656494140625, 0, 
102, 3630100618, -0.6958047151565552, 0.03925351798534393, 0.7153058648109436, 0.05164682865142822, 9.677286148071289, 0.05282411351799965, -0.25511547923088074, 0.5712870359420776, -1.6905906200408936, 0.9638251662254333, -0.5791015625, -0.009521484375, -0.654541015625, 0, 
103, 3630108951, -0.695802628993988, 0.03924278914928436, 0.715308666229248, 0.0516432523727417, 9.671463966369629, 0.05263401195406914, -0.23150700330734253, 0.5640127062797546, -1.7377978563308716, 1.0161809921264648, -0.580078125, -0.010986328125, -0.654541015625, 0, 
104, 3630117284, -0.695809543132782, 0.03924396634101868, 0.7153018116950989, 0.05164537578821182, 9.67280387878418, 0.0543755404651165, -0.23820489645004272, 0.38896501064300537, -1.5767357349395752, 1.0033737421035767, -0.578125, -0.008544921875, -0.656494140625, 0, 
105, 3630125617, -0.6958093047142029, 0.03923521935939789, 0.7153021693229675, 0.05164945125579834, 9.695076942443848, 0.057487282902002335, -0.24636082351207733, 0.4699571430683136, -1.693485140800476, 0.9652852416038513, -0.578125, -0.012451171875, -0.657470703125, 0, 
106, 3630133950, -0.6958129405975342, 0.03923410922288895, 0.7152982950210571, 0.05165695399045944, 9.678677558898926, 0.04173737391829491, -0.21717774868011475, 0.3579973578453064, -1.6314218044281006, 0.9248403906822205, -0.5771484375, -0.011474609375, -0.651611328125, 0, 
107, 3630142283, -0.6958125233650208, 0.03922741860151291, 0.7152978181838989, 0.051673851907253265, 9.676299095153809, 0.06470195949077606, -0.2396327555179596, 0.3221886456012726, -1.6821635961532593, 0.8640321493148804, -0.57763671875, -0.011474609375, -0.656982421875, 0, 
108, 3630150616, -0.6958130598068237, 0.0392298623919487, 0.7152962684631348, 0.05168599635362625, 9.675552368164062, 0.07894065976142883, -0.22707176208496094, 0.27779915928840637, -1.6852116584777832, 0.9110085964202881, -0.57861328125, -0.009521484375, -0.655029296875, 0, 
109, 3630158949, -0.695817768573761, 0.0392298623919487, 0.7152911424636841, 0.051693640649318695, 9.66135311126709, 0.06259793043136597, -0.20233891904354095, 0.349826455116272, -1.5962536334991455, 1.0242494344711304, -0.5751953125, -0.010009765625, -0.657958984375, 0, 
110, 3630167282, -0.6958155035972595, 0.03923420608043671, 0.7152933478355408, 0.051690734922885895, 9.664870262145996, 0.045243535190820694, -0.24816888570785522, 0.4090849459171295, -1.760018229484558, 1.0708799362182617, -0.57861328125, -0.010986328125, -0.653076171875, 0, 
111, 3630175615, -0.6958178281784058, 0.03923554718494415, 0.7152906656265259, 0.05169512331485748, 9.680541038513184, 0.05710988491773605, -0.22215095162391663, 0.368537575006485, -1.644984483718872, 1.0655266046524048, -0.578125, -0.011474609375, -0.654052734375, 0, 
112, 3630183948, -0.6958250403404236, 0.039241306483745575, 0.7152833342552185, 0.05169443041086197, 9.687593460083008, 0.05753417685627937, -0.22288934886455536, 0.3735707998275757, -1.5736615657806396, 1.0748116970062256, -0.57958984375, -0.012451171875, -0.654541015625, 0, 
113, 3630192281, -0.6958252191543579, 0.039245590567588806, 0.715282678604126, 0.05169700086116791, 9.679011344909668, 0.061455391347408295, -0.22109268605709076, 0.35817670822143555, -1.6880806684494019, 1.109083652496338, -0.5791015625, -0.011474609375, -0.653076171875, 0, 
114, 3630200614, -0.6958283185958862, 0.039250731468200684, 0.7152800559997559, 0.05168794095516205, 9.659011840820312, 0.05038551241159439, -0.2256786823272705, 0.46217042207717896, -1.6644129753112793, 1.1438932418823242, -0.5791015625, -0.011962890625, -0.655517578125, 0, 
115, 3630208947, -0.6958285570144653, 0.039250448346138, 0.7152798771858215, 0.05168803036212921, 9.683777809143066, 0.03866008669137955, -0.23533032834529877, 0.4272838234901428, -1.6915128231048584, 1.0877724885940552, -0.578125, -0.010986328125, -0.655517578125, 0, 
116, 3630217280, -0.6958302855491638, 0.03925851732492447, 0.7152773141860962, 0.051694370806217194, 9.66481876373291, 0.053634606301784515, -0.2502366602420807, 0.28082165122032166, -1.6715848445892334, 1.0242748260498047, -0.57763671875, -0.010009765625, -0.653076171875, 0, 
117, 3630225613, -0.695834219455719, 0.03925313800573349, 0.7152726650238037, 0.05170905590057373, 9.660017013549805, 0.019039547070860863, -0.19587381184101105, 0.33176836371421814, -1.6019397974014282, 0.9029145240783691, -0.580078125, -0.010986328125, -0.654541015625, 0, 
118, 3630233946, -0.6958377957344055, 0.03924322873353958, 0.7152694463729858, 0.05171182006597519, 9.686429977416992, 0.04103334993124008, -0.219069704413414, 0.4891422390937805, -1.635904312133789, 0.8835757970809937, -0.57666015625, -0.011962890625, -0.655517578125, 0, 
119, 3630242279, -0.695842444896698, 0.039226822555065155, 0.7152655124664307, 0.05171772092580795, 9.691715240478516, 0.06648838520050049, -0.2368527501821518, 0.5246179103851318, -1.5967657566070557, 0.8783761262893677, -0.5810546875, -0.008056640625, -0.655517578125, 0, 
120, 3630250612, -0.6958460211753845, 0.039222635328769684, 0.7152618169784546, 0.05172300338745117, 9.678374290466309, 0.05847309157252312, -0.2026723474264145, 0.4133240878582001, -1.6351615190505981, 0.9161826968193054, -0.5791015625, -0.010009765625, -0.655517578125, 0, 
121, 3630258945, -0.6958542466163635, 0.03921110928058624, 0.7152537703514099, 0.05173210799694061, 9.663741111755371, 0.03924622759222984, -0.21228569746017456, 0.44575169682502747, -1.5245335102081299, 0.9003018736839294, -0.5791015625, -0.009033203125, -0.654052734375, 0, 
122, 3630267278, -0.6958574652671814, 0.039202287793159485, 0.7152512073516846, 0.0517323836684227, 9.676819801330566, 0.056138720363378525, -0.25377771258354187, 0.5009759664535522, -1.6478148698806763, 0.9179500937461853, -0.580078125, -0.010498046875, -0.655029296875, 0, 
123, 3630275611, -0.6958671808242798, 0.03918544948101044, 0.7152426242828369, 0.05173421651124954, 9.675780296325684, 0.03737075254321098, -0.21690599620342255, 0.568315863609314, -1.5054255723953247, 0.9186673760414124, -0.578125, -0.009033203125, -0.656005859375, 0, 
124, 3630283944, -0.6958668828010559, 0.03917375206947327, 0.7152433395385742, 0.05173595994710922, 9.671299934387207, 0.04835445433855057, -0.23992197215557098, 0.5170360803604126, -1.7112869024276733, 0.8707687258720398, -0.57763671875, -0.010009765625, -0.655517578125, 0, 
125, 3630292277, -0.6958675980567932, 0.03916656970977783, 0.7152431607246399, 0.051734864711761475, 9.676082611083984, 0.07157043367624283, -0.2059321105480194, 0.5049974322319031, -1.6833162307739258, 1.0314980745315552, -0.580078125, -0.012451171875, -0.656494140625, 0, 
126, 3630300610, -0.695866584777832, 0.03916258364915848, 0.7152448296546936, 0.05172763019800186, 9.654026985168457, 0.0554330088198185, -0.21789374947547913, 0.5323790907859802, -1.7371832132339478, 1.0312676429748535, -0.57666015625, -0.009521484375, -0.653564453125, 0, 
127, 3630308943, -0.6958617568016052, 0.03915950655937195, 0.7152494788169861, 0.051732152700424194, 9.663969993591309, 0.054837651550769806, -0.24317651987075806, 0.4109419584274292, -1.7828787565231323, 1.0111603736877441, -0.580078125, -0.010498046875, -0.653564453125, 0, 
128, 3630317276, -0.6958561539649963, 0.03915949910879135, 0.7152548432350159, 0.05173336714506149, 9.668116569519043, 0.05856804922223091, -0.21571484208106995, 0.4115823209285736, -1.8177398443222046, 0.9848544597625732, -0.5791015625, -0.012451171875, -0.656005859375, 0, 
129, 3630325609, -0.6958581209182739, 0.03915664553642273, 0.7152528166770935, 0.051735468208789825, 9.667350769042969, 0.06583712249994278, -0.22841598093509674, 0.43179193139076233, -1.6536805629730225, 1.0454833507537842, -0.578125, -0.012451171875, -0.654052734375, 0, 
130, 3630333942, -0.6958650350570679, 0.03916122764348984, 0.7152458429336548, 0.05173616111278534, 9.670561790466309, 0.07645265758037567, -0.2783157229423523, 0.3682686388492584, -1.578784465789795, 1.0508368015289307, -0.57958984375, -0.011962890625, -0.653076171875, 0, 
131, 3630342275, -0.6958714723587036, 0.039157189428806305, 0.7152395844459534, 0.05173986405134201, 9.67944622039795, 0.051254428923130035, -0.21150356531143188, 0.4272838234901428, -1.567104458808899, 1.0231989622116089, -0.5771484375, -0.009521484375, -0.656494140625, 0, 
132, 3630350608, -0.69587242603302, 0.039162591099739075, 0.7152379751205444, 0.05174298584461212, 9.659493446350098, 0.07011548429727554, -0.21121416985988617, 0.3395807445049286, -1.6875169277191162, 1.0278608798980713, -0.580078125, -0.008544921875, -0.653076171875, 0, 
133, 3630358941, -0.6958757042884827, 0.03917570412158966, 0.7152339220046997, 0.05174630135297775, 9.666069984436035, 0.07335437089204788, -0.20247329771518707, 0.26563242077827454, -1.6316522359848022, 1.1930214166641235, -0.5791015625, -0.011474609375, -0.652099609375, 0, 
134, 3630367274, -0.6958796381950378, 0.039195604622364044, 0.7152286767959595, 0.05174996703863144, 9.66591739654541, 0.061518505215644836, -0.21066699922084808, 0.19406624138355255, -1.6345210075378418, 1.1694306135177612, -0.5771484375, -0.012451171875, -0.654541015625, 0, 
135, 3630375607, -0.695878267288208, 0.03920868784189224, 0.7152280807495117, 0.05176617205142975, 9.668405532836914, 0.06390419602394104, -0.23825407028198242, 0.13971282541751862, -1.7031160593032837, 1.063567042350769, -0.57861328125, -0.010986328125, -0.657470703125, 0, 
136, 3630383940, -0.695873498916626, 0.03921821713447571, 0.7152319550514221, 0.051771484315395355, 9.662398338317871, 0.052396878600120544, -0.18744435906410217, 0.2810521721839905, -1.7991950511932373, 1.041077733039856, -0.5771484375, -0.010986328125, -0.654541015625, 0, 
137, 3630392273, -0.6958763599395752, 0.03923076391220093, 0.7152280211448669, 0.05177769064903259, 9.678333282470703, 0.05386592075228691, -0.20886826515197754, 0.2426820993423462, -1.635648250579834, 1.1581093072891235, -0.58056640625, -0.012939453125, -0.655029296875, 0, 
138, 3630400606, -0.6958730816841125, 0.03924276679754257, 0.7152302861213684, 0.051781944930553436, 9.65750503540039, 0.05284375324845314, -0.20069879293441772, 0.26555559039115906, -1.770686388015747, 1.077014684677124, -0.5791015625, -0.013916015625, -0.655029296875, 0, 
139, 3630408939, -0.6958699822425842, 0.03924036771059036, 0.7152328491210938, 0.05178981274366379, 9.668278694152832, 0.05637304112315178, -0.22478269040584564, 0.37123990058898926, -1.7450464963912964, 0.988542914390564, -0.5791015625, -0.012939453125, -0.658447265625, 0, 
140, 3630417272, -0.6958694458007812, 0.03924714773893356, 0.7152324914932251, 0.051795996725559235, 9.66926097869873, 0.06051855534315109, -0.21750222146511078, 0.2975221276283264, -1.7143094539642334, 1.0108529329299927, -0.57958984375, -0.010986328125, -0.655029296875, 0, 
141, 3630425605, -0.695861279964447, 0.03925029933452606, 0.7152398228645325, 0.05180239677429199, 9.683769226074219, 0.0560770109295845, -0.21992789208889008, 0.3337790369987488, -1.8440839052200317, 1.0505166053771973, -0.57958984375, -0.011474609375, -0.654541015625, 0, 
142, 3630433938, -0.6958547830581665, 0.03925792872905731, 0.715245246887207, 0.05180749297142029, 9.67706298828125, 0.05371515452861786, -0.22548332810401917, 0.29923829436302185, -1.8289844989776611, 1.0220975875854492, -0.5810546875, -0.009521484375, -0.655517578125, 0, 
143, 3630442271, -0.6958490610122681, 0.03925992548465729, 0.7152502536773682, 0.051812924444675446, 9.672497749328613, 0.06433484703302383, -0.2489442527294159, 0.3534892499446869, -1.7979400157928467, 1.0515283346176147, -0.5791015625, -0.008544921875, -0.655517578125, 0, 
144, 3630450604, -0.6958504319190979, 0.039268895983695984, 0.7152491211891174, 0.05180613696575165, 9.68802261352539, 0.04964947700500488, -0.2324967384338379, 0.4039492607116699, -1.6977369785308838, 1.1579298973083496, -0.5791015625, -0.009521484375, -0.656982421875, 0, 
145, 3630458937, -0.695851743221283, 0.039268046617507935, 0.7152472138404846, 0.05181390047073364, 9.67491626739502, 0.04907103627920151, -0.22393403947353363, 0.3564092814922333, -1.6600329875946045, 1.010315179824829, -0.57861328125, -0.010009765625, -0.656982421875, 0, 
146, 3630467270, -0.6958621144294739, 0.03927358239889145, 0.715237021446228, 0.05181105434894562, 9.683138847351074, 0.05751267075538635, -0.1836855113506317, 0.3962138295173645, -1.5165164470672607, 1.09819757938385, -0.578125, -0.011474609375, -0.656005859375, 0, 
147, 3630475603, -0.6958644986152649, 0.03927303105592728, 0.7152349352836609, 0.05180723965167999, 9.681048393249512, 0.06135404855012894, -0.23326726257801056, 0.4689069390296936, -1.6529632806777954, 1.1244776248931885, -0.5771484375, -0.010498046875, -0.655029296875, 0, 
148, 3630483936, -0.695864737033844, 0.03927330672740936, 0.7152348160743713, 0.05180574953556061, 9.668543815612793, 0.04192003235220909, -0.22024498879909515, 0.43317511677742004, -1.7107490301132202, 1.0208425521850586, -0.58056640625, -0.012939453125, -0.654052734375, 0, 
149, 3630492269, -0.6958720088005066, 0.039269328117370605, 0.7152280211448669, 0.051805607974529266, 9.680200576782227, 0.08086344599723816, -0.22002744674682617, 0.46418115496635437, -1.5566409826278687, 1.0616843700408936, -0.57763671875, -0.013427734375, -0.654541015625, 0, 
150, 3630500602, -0.695877194404602, 0.039271652698516846, 0.7152235507965088, 0.05179627984762192, 9.671359062194824, 0.0664588063955307, -0.22580012679100037, 0.4927666187286377, -1.6239041090011597, 1.121903419494629, -0.57861328125, -0.011474609375, -0.654052734375, 0, 
151, 3630508935, -0.6958816051483154, 0.0392741858959198, 0.7152194380760193, 0.0517912283539772, 9.672189712524414, 0.03789627179503441, -0.20822927355766296, 0.4495810866355896, -1.6187044382095337, 1.1688545942306519, -0.578125, -0.012939453125, -0.656005859375, 0, 
152, 3630517268, -0.6958826184272766, 0.039268553256988525, 0.7152193188667297, 0.051785483956336975, 9.672014236450195, 0.0525469034910202, -0.22431012988090515, 0.5344154238700867, -1.6994662284851074, 1.0041805505752563, -0.57763671875, -0.010009765625, -0.652587890625, 0, 
153, 3630525601, -0.6958827972412109, 0.039269134402275085, 0.7152198553085327, 0.05177634209394455, 9.68596363067627, 0.07873084396123886, -0.20684301853179932, 0.5102355480194092, -1.705459713935852, 1.1837875843048096, -0.5791015625, -0.011474609375, -0.654541015625, 0, 
154, 3630533934, -0.6958838105201721, 0.0392693430185318, 0.7152194380760193, 0.05176601558923721, 9.66164779663086, 0.0650300681591034, -0.2100432962179184, 0.5212112665176392, -1.7043967247009277, 1.1049597263336182, -0.5791015625, -0.010986328125, -0.654541015625, 0, 
155, 3630542267, -0.6958819031715393, 0.03926485776901245, 0.7152222394943237, 0.05175667256116867, 9.68706226348877, 0.05707958713173866, -0.20431415736675262, 0.5608108043670654, -1.7433559894561768, 1.1329559087753296, -0.57763671875, -0.010986328125, -0.653076171875, 0, 
156, 3630550600, -0.6958792805671692, 0.039268068969249725, 0.7152259945869446, 0.05173919349908829, 9.682181358337402, 0.07069749385118484, -0.23247987031936646, 0.565779983997345, -1.7842108011245728, 1.1991688013076782, -0.5771484375, -0.010498046875, -0.659423828125, 0, 
157, 3630558933, -0.6958839893341064, 0.03927578032016754, 0.715221643447876, 0.05172891914844513, 9.671073913574219, 0.07268000394105911, -0.24769192934036255, 0.4523858428001404, -1.6189478635787964, 1.2707862854003906, -0.58056640625, -0.012451171875, -0.653564453125, 0, 
158, 3630567266, -0.6958820819854736, 0.039276085793972015, 0.7152249813079834, 0.05170663446187973, 9.690627098083496, 0.06877844035625458, -0.2064094990491867, 0.6411883234977722, -1.7751176357269287, 1.2164071798324585, -0.580078125, -0.011474609375, -0.653076171875, 0, 
159, 3630575599, -0.6958765983581543, 0.03927438706159592, 0.7152310013771057, 0.051698148250579834, 9.699492454528809, 0.06758444011211395, -0.22508521378040314, 0.5260522961616516, -1.8099019527435303, 1.148017168045044, -0.57763671875, -0.010498046875, -0.656494140625, 0, 
160, 3630583932, -0.6958744525909424, 0.039280958473682404, 0.7152336239814758, 0.05168765038251877, 9.672149658203125, 0.06873352080583572, -0.24894580245018005, 0.46737009286880493, -1.7680994272232056, 1.1652811765670776, -0.57861328125, -0.010986328125, -0.652099609375, 0, 
161, 3630592265, -0.6958721876144409, 0.039291925728321075, 0.715236246585846, 0.0516737625002861, 9.67952823638916, 0.054248563945293427, -0.22759464383125305, 0.45643287897109985, -1.7570854425430298, 1.3290586471557617, -0.5791015625, -0.010986328125, -0.656494140625, 0, 
162, 3630600598, -0.6958713531494141, 0.03929997980594635, 0.7152379155158997, 0.05165696144104004, 9.677895545959473, 0.05724022909998894, -0.20002010464668274, 0.5117596387863159, -1.751245379447937, 1.2418676614761353, -0.58056640625, -0.011474609375, -0.656005859375, 0, 
163, 3630608931, -0.6958693861961365, 0.03929594159126282, 0.7152407169342041, 0.05164700746536255, 9.679778099060059, 0.06506510823965073, -0.2330591380596161, 0.5626038908958435, -1.7436120510101318, 1.1439443826675415, -0.57861328125, -0.010009765625, -0.653564453125, 0, 
164, 3630617264, -0.6958728432655334, 0.039301954209804535, 0.7152381539344788, 0.051631756126880646, 9.692310333251953, 0.06509249657392502, -0.23724190890789032, 0.5161908864974976, -1.6659752130508423, 1.2122318744659424, -0.576171875, -0.011962890625, -0.656005859375, 0, 
165, 3630625597, -0.6958701610565186, 0.0392972007393837, 0.7152414321899414, 0.05162721127271652, 9.711867332458496, 0.04370860010385513, -0.24672618508338928, 0.514602780342102, -1.7524490356445312, 1.0841608047485352, -0.5810546875, -0.012451171875, -0.653564453125, 0, 
166, 3630633930, -0.6958735585212708, 0.03930165618658066, 0.7152382135391235, 0.05162053555250168, 9.688159942626953, 0.04896514490246773, -0.215028777718544, 0.44649451971054077, -1.6541672945022583, 1.1151540279388428, -0.58056640625, -0.010498046875, -0.656005859375, 0, 
167, 3630642263, -0.6958736181259155, 0.03929709643125534, 0.7152389883995056, 0.05161415785551071, 9.650547981262207, 0.07645567506551743, -0.2038850337266922, 0.5324558615684509, -1.7038332223892212, 1.1070600748062134, -0.578125, -0.010498046875, -0.658935546875, 0, 
168, 3630650596, -0.6958717107772827, 0.039302244782447815, 0.7152414917945862, 0.05160091072320938, 9.652922630310059, 0.0643228068947792, -0.19936875998973846, 0.5023335218429565, -1.7637962102890015, 1.1783957481384277, -0.57763671875, -0.010009765625, -0.656982421875, 0, 
169, 3630658929, -0.6958678960800171, 0.03930554538965225, 0.71524578332901, 0.051590658724308014, 9.668911933898926, 0.045866161584854126, -0.22948233783245087, 0.4962373673915863, -1.7830067873001099, 1.2160998582839966, -0.5771484375, -0.012451171875, -0.653564453125, 0, 
170, 3630667262, -0.6958661675453186, 0.039315998554229736, 0.7152478694915771, 0.051576875150203705, 9.695953369140625, 0.055113695561885834, -0.21425199508666992, 0.45848193764686584, -1.7629765272140503, 1.2360020875930786, -0.58251953125, -0.012939453125, -0.656005859375, 0, 
171, 3630675595, -0.6958611011505127, 0.039324626326560974, 0.7152531743049622, 0.051563821732997894, 9.649846076965332, 0.055917199701070786, -0.2176232784986496, 0.47241613268852234, -1.8090821504592896, 1.2942231893539429, -0.580078125, -0.011962890625, -0.655029296875, 0, 
172, 3630683928, -0.6958590149879456, 0.039335452020168304, 0.7152554988861084, 0.05155124515295029, 9.673599243164062, 0.06096448004245758, -0.2262817621231079, 0.4437025785446167, -1.7695337533950806, 1.227062702178955, -0.57958984375, -0.010498046875, -0.655517578125, 0, 
173, 3630692261, -0.6958574056625366, 0.039347611367702484, 0.7152571678161621, 0.051540642976760864, 9.676114082336426, 0.07207454741001129, -0.2150968611240387, 0.41278624534606934, -1.7419217824935913, 1.310770034790039, -0.57763671875, -0.010009765625, -0.655517578125, 0, 
174, 3630700594, -0.6958611607551575, 0.039356909692287445, 0.7152544260025024, 0.05152101069688797, 9.668635368347168, 0.07022152096033096, -0.19086256623268127, 0.5276147723197937, -1.6647201776504517, 1.2866157293319702, -0.57958984375, -0.011474609375, -0.654052734375, 0, 
175, 3630708927, -0.6958537101745605, 0.03935731202363968, 0.7152628302574158, 0.051503732800483704, 9.685294151306152, 0.0618908628821373, -0.18337324261665344, 0.5931360125541687, -1.8589017391204834, 1.2509095668792725, -0.5751953125, -0.010986328125, -0.657470703125, 0, 
176, 3630717260, -0.6958498954772949, 0.03936807066202164, 0.7152680158615112, 0.051476284861564636, 9.682384490966797, 0.0485801137983799, -0.2227533459663391, 0.5902672410011292, -1.822375774383545, 1.3657894134521484, -0.58154296875, -0.010498046875, -0.654541015625, 0, 
177, 3630725593, -0.6958441734313965, 0.03937574476003647, 0.7152748703956604, 0.05145440995693207, 9.684118270874023, 0.038633208721876144, -0.250551700592041, 0.5683926343917847, -1.8355159759521484, 1.3681459426879883, -0.57958984375, -0.012451171875, -0.655029296875, 0, 
178, 3630733926, -0.695837140083313, 0.03938295692205429, 0.7152829170227051, 0.05143037438392639, 9.705069541931152, 0.043444063514471054, -0.24335606396198273, 0.5919322371482849, -1.8760888576507568, 1.295503854751587, -0.580078125, -0.010986328125, -0.655029296875, 0, 
179, 3630742259, -0.6958369612693787, 0.03937990218400955, 0.7152847051620483, 0.051412343978881836, 9.714866638183594, 0.05691329762339592, -0.2595522105693817, 0.6337345838546753, -1.7227622270584106, 1.2324930429458618, -0.578125, -0.011962890625, -0.653564453125, 0, 
180, 3630750592, -0.6958425641059875, 0.03938084840774536, 0.715279757976532, 0.0514034777879715, 9.71139907836914, 0.049323514103889465, -0.22430410981178284, 0.5003997087478638, -1.6141709089279175, 1.104280948638916, -0.57958984375, -0.010009765625, -0.655029296875, 0, 
181, 3630758925, -0.6958462595939636, 0.03936626762151718, 0.7152774333953857, 0.051397472620010376, 9.66605281829834, 0.04336697980761528, -0.19894620776176453, 0.6236425638198853, -1.630730152130127, 1.0082403421401978, -0.5771484375, -0.010986328125, -0.655517578125, 0, 
182, 3630767258, -0.6958452463150024, 0.03936325013637543, 0.7152794003486633, 0.05138399451971054, 9.677720069885254, 0.05699891597032547, -0.20951153337955475, 0.5869630575180054, -1.744303822517395, 1.101425051689148, -0.578125, -0.012451171875, -0.655029296875, 0, 
183, 3630775591, -0.695842981338501, 0.03935115039348602, 0.7152835726737976, 0.051365166902542114, 9.681357383728027, 0.03576019033789635, -0.22888867557048798, 0.7273802757263184, -1.7617472410202026, 1.1481709480285645, -0.57666015625, -0.010498046875, -0.656982421875, 0, 
184, 3630783924, -0.6958361268043518, 0.03933311253786087, 0.7152923345565796, 0.05135072022676468, 9.696476936340332, 0.06921016424894333, -0.23967483639717102, 0.7413400411605835, -1.8578006029129028, 0.9555774927139282, -0.580078125, -0.010009765625, -0.655029296875, 0, 
185, 3630792257, -0.6958332657814026, 0.03930918872356415, 0.7152971625328064, 0.05134086310863495, 9.705150604248047, 0.05067916586995125, -0.2531842589378357, 0.7532250285148621, -1.7580844163894653, 0.944896399974823, -0.57763671875, -0.010009765625, -0.655029296875, 0, 
186, 3630800590, -0.6958330273628235, 0.03928378224372864, 0.7152993679046631, 0.05133523792028427, 9.68306827545166, 0.05667020380496979, -0.19660747051239014, 0.722411036491394, -1.720047116279602, 0.8060671091079712, -0.580078125, -0.011962890625, -0.655029296875, 0, 
187, 3630808923, -0.6958293914794922, 0.03925686329603195, 0.7153053283691406, 0.0513203889131546, 9.64361572265625, 0.056998539716005325, -0.20079615712165833, 0.8306055665016174, -1.777602195739746, 0.9624421000480652, -0.57958984375, -0.011474609375, -0.656494140625, 0, 
188, 3630817256, -0.6958214640617371, 0.03924077749252319, 0.7153148651123047, 0.051307313144207, 9.640547752380371, 0.058904848992824554, -0.20654608309268951, 0.7072474956512451, -1.878112554550171, 0.9604185223579407, -0.57861328125, -0.010009765625, -0.654541015625, 0, 
189, 3630825589, -0.6958104372024536, 0.03921769559383392, 0.7153275609016418, 0.05129636824131012, 9.634839057922363, 0.04963399097323418, -0.207666277885437, 0.75814288854599, -1.9144591093063354, 0.953477144241333, -0.57958984375, -0.010498046875, -0.656982421875, 0, 
190, 3630833922, -0.6957928538322449, 0.03919631987810135, 0.715347945690155, 0.05127017945051193, 9.665313720703125, 0.05772056058049202, -0.19524089992046356, 0.8888524174690247, -2.079543113708496, 1.0202534198760986, -0.578125, -0.011474609375, -0.658447265625, 0, 
191, 3630842255, -0.695780873298645, 0.03918372094631195, 0.7153620719909668, 0.05124539136886597, 9.660965919494629, 0.09464438259601593, -0.2654796838760376, 0.7943871021270752, -1.9540332555770874, 1.1883596181869507, -0.5810546875, -0.011474609375, -0.650634765625, 0, 
192, 3630850588, -0.6957731246948242, 0.03918446600437164, 0.7153709530830383, 0.051224589347839355, 9.661367416381836, 0.05107869580388069, -0.21932974457740784, 0.621849536895752, -1.8847209215164185, 1.1998093128204346, -0.580078125, -0.011474609375, -0.656494140625, 0, 
193, 3630858921, -0.6957712769508362, 0.03916779160499573, 0.7153754830360413, 0.05120066553354263, 9.679181098937988, 0.05383393168449402, -0.2561139166355133, 0.8227163553237915, -1.7578792572021484, 1.1517568826675415, -0.57763671875, -0.012451171875, -0.654541015625, 0, 
194, 3630867254, -0.6957674026489258, 0.039165474474430084, 0.7153805494308472, 0.0511811226606369, 9.72286605834961, 0.07728151977062225, -0.25585609674453735, 0.63837069272995, -1.8079807758331299, 1.1629759073257446, -0.580078125, -0.010009765625, -0.654541015625, 0, 
195, 3630875587, -0.6957867741584778, 0.039161212742328644, 0.7153629064559937, 0.05116644501686096, 9.69878101348877, 0.06624007225036621, -0.2178150713443756, 0.6077104806900024, -1.340802788734436, 1.2120014429092407, -0.578125, -0.008544921875, -0.655029296875, 0, 
196, 3630883920, -0.6957860589027405, 0.0391513854265213, 0.7153653502464294, 0.05115005373954773, 9.686086654663086, 0.07457481324672699, -0.22096940875053406, 0.6786620020866394, -1.7452772855758667, 1.0627731084823608, -0.5791015625, -0.012451171875, -0.655517578125, 0, 
197, 3630892253, -0.6957875490188599, 0.03914862871170044, 0.715364933013916, 0.05113724619150162, 9.67284870147705, 0.05744010955095291, -0.22553777694702148, 0.5780492424964905, -1.6814978122711182, 1.187975525856018, -0.578125, -0.011962890625, -0.654052734375, 0, 
198, 3630900586, -0.6957860589027405, 0.039139457046985626, 0.7153677940368652, 0.0511259064078331, 9.643996238708496, 0.061288461089134216, -0.19435442984104156, 0.6236937642097473, -1.7539602518081665, 1.0194848775863647, -0.5771484375, -0.010009765625, -0.656494140625, 0, 
199, 3630908919, -0.6957769989967346, 0.03911668807268143, 0.7153792381286621, 0.05110733211040497, 9.641736030578613, 0.06343764066696167, -0.20670074224472046, 0.8298372030258179, -1.8870775699615479, 1.0321640968322754, -0.578125, -0.010009765625, -0.653076171875, 0, 
200, 3630917252, -0.6957653164863586, 0.0390966534614563, 0.7153939604759216, 0.05107380449771881, 9.639019012451172, 0.07113533467054367, -0.22455927729606628, 0.9488665461540222, -1.9716302156448364, 1.1117475032806396, -0.57763671875, -0.010009765625, -0.654541015625, 0, 
201, 3630925585, -0.6957625150680542, 0.0390772745013237, 0.7153990864753723, 0.05105390399694443, 9.651897430419922, 0.07695668190717697, -0.2414080947637558, 0.8083211183547974, -1.7699947357177734, 1.0849806070327759, -0.57763671875, -0.011962890625, -0.656982421875, 0, 
202, 3630933918, -0.6957610845565796, 0.03906688094139099, 0.7154025435447693, 0.05103418976068497, 9.640637397766113, 0.041200414299964905, -0.21683178842067719, 0.7165709733963013, -1.7619519233703613, 1.087670087814331, -0.57861328125, -0.010498046875, -0.656494140625, 0, 
203, 3630942251, -0.6957576870918274, 0.03905389457941055, 0.7154079079627991, 0.05101572722196579, 9.663522720336914, 0.04889815300703049, -0.2576150596141815, 0.7341166734695435, -1.7810600996017456, 1.1339805126190186, -0.57958984375, -0.010986328125, -0.654052734375, 0, 
204, 3630950584, -0.6957582235336304, 0.03905230760574341, 0.7154092788696289, 0.05099043995141983, 9.663851737976074, 0.06367135047912598, -0.23238034546375275, 0.6867817044258118, -1.7324445247650146, 1.230674386024475, -0.580078125, -0.008544921875, -0.657958984375, 0, 
205, 3630958917, -0.6957623362541199, 0.03905226290225983, 0.7154067158699036, 0.05097191035747528, 9.674444198608398, 0.06160493940114975, -0.23158645629882812, 0.6083253026008606, -1.6408478021621704, 1.2714776992797852, -0.5810546875, -0.010009765625, -0.655517578125, 0, 
206, 3630967250, -0.695753276348114, 0.03905215114355087, 0.7154167890548706, 0.05095149576663971, 9.674793243408203, 0.06564544886350632, -0.2316855490207672, 0.6287397742271423, -1.9071333408355713, 1.1872581243515015, -0.57861328125, -0.011962890625, -0.654541015625, 0, 
207, 3630975583, -0.6957504749298096, 0.039045289158821106, 0.7154210209846497, 0.05093564838171005, 9.679357528686523, 0.056617025285959244, -0.2242337316274643, 0.6483346819877625, -1.7683554887771606, 1.1701221466064453, -0.58056640625, -0.010009765625, -0.655029296875, 0, 
208, 3630983916, -0.6957459449768066, 0.039042651653289795, 0.7154272794723511, 0.050912126898765564, 9.683245658874512, 0.05825604870915413, -0.20835661888122559, 0.68050616979599, -1.8253984451293945, 1.1966584920883179, -0.58056640625, -0.010009765625, -0.654052734375, 0, 
209, 3630992249, -0.695747435092926, 0.03903241455554962, 0.7154279947280884, 0.050889790058135986, 9.65869140625, 0.0648372694849968, -0.19288316369056702, 0.7433891296386719, -1.6941510438919067, 1.204445242881775, -0.578125, -0.011474609375, -0.654052734375, 0, 
210, 3631000582, -0.6957489252090454, 0.03903207927942276, 0.715428352355957, 0.05086526274681091, 9.654841423034668, 0.048297103494405746, -0.19619789719581604, 0.6692359447479248, -1.7125165462493896, 1.2362582683563232, -0.57958984375, -0.008544921875, -0.656494140625, 0, 
211, 3631008915, -0.695747435092926, 0.039030522108078, 0.7154321074485779, 0.05083335191011429, 9.662637710571289, 0.07595831155776978, -0.2449459284543991, 0.7562218308448792, -1.7625921964645386, 1.377905011177063, -0.57861328125, -0.010498046875, -0.653564453125, 0, 
212, 3631017248, -0.6957430243492126, 0.03904175013303757, 0.7154385447502136, 0.05079345405101776, 9.70956802368164, 0.05984317883849144, -0.23630806803703308, 0.7095783948898315, -1.8470935821533203, 1.4892244338989258, -0.578125, -0.010986328125, -0.653564453125, 0, 
213, 3631025581, -0.6957523822784424, 0.03904927521944046, 0.7154300212860107, 0.050779469311237335, 9.71906566619873, 0.05347353219985962, -0.26574617624282837, 0.49001309275627136, -1.5329093933105469, 1.3105138540267944, -0.5810546875, -0.011962890625, -0.656982421875, 0, 
214, 3631033914, -0.6957530379295349, 0.03905604034662247, 0.715430498123169, 0.05075932294130325, 9.72105598449707, 0.010975390672683716, -0.26104816794395447, 0.5582749843597412, -1.7272189855575562, 1.263767957687378, -0.57958984375, -0.012451171875, -0.656005859375, 0, 
215, 3631042247, -0.6957611441612244, 0.03902905434370041, 0.7154251933097839, 0.050743043422698975, 9.7109956741333, 0.05901331081986427, -0.25385570526123047, 0.8446677923202515, -1.556935429573059, 0.9891577363014221, -0.57958984375, -0.011962890625, -0.655029296875, 0, 
216, 3631050580, -0.6957554221153259, 0.039006397128105164, 0.7154340744018555, 0.050716251134872437, 9.668213844299316, 0.02317216619849205, -0.19106270372867584, 0.9065262079238892, -1.8498088121414185, 1.02924382686615, -0.5791015625, -0.011474609375, -0.653564453125, 0, 
217, 3631058913, -0.6957562565803528, 0.03896435350179672, 0.7154377698898315, 0.05068438500165939, 9.663900375366211, 0.05035405233502388, -0.22525694966316223, 1.1434321403503418, -1.7115943431854248, 0.9804744124412537, -0.5791015625, -0.009521484375, -0.656494140625, 0, 
218, 3631067246, -0.6957511305809021, 0.038927122950553894, 0.7154472470283508, 0.05064977705478668, 9.636730194091797, 0.07085488736629486, -0.20702490210533142, 1.1236069202423096, -1.8469655513763428, 0.9607771039009094, -0.57861328125, -0.010009765625, -0.654541015625, 0, 
219, 3631075579, -0.6957316398620605, 0.0388827845454216, 0.7154711484909058, 0.05061378329992294, 9.654281616210938, 0.02060147374868393, -0.20895907282829285, 1.2098244428634644, -2.1042094230651855, 0.9728928208351135, -0.576171875, -0.011474609375, -0.654052734375, 0, 
220, 3631083912, -0.6957217454910278, 0.038821250200271606, 0.7154870629310608, 0.05057225376367569, 9.658971786499023, 0.013895904645323753, -0.22185754776000977, 1.4268282651901245, -1.9394584894180298, 0.78101646900177, -0.57861328125, -0.010986328125, -0.655029296875, 0, 
221, 3631092245, -0.6957060694694519, 0.03874955326318741, 0.7155092358589172, 0.050529807806015015, 9.683877944946289, 0.09224028885364532, -0.25965067744255066, 1.5359448194503784, -2.035358190536499, 0.7692082524299622, -0.58056640625, -0.012451171875, -0.655517578125, 0, 
222, 3631100578, -0.6957036852836609, 0.038703225553035736, 0.7155162692070007, 0.050498321652412415, 9.668542861938477, 0.06277360022068024, -0.2224651724100113, 1.179356336593628, -1.789448857307434, 0.8440659046173096, -0.578125, -0.011474609375, -0.654541015625, 0, 
223, 3631108911, -0.6957058906555176, 0.038654625415802, 0.7155178785324097, 0.05048156529664993, 9.693270683288574, 0.07001177221536636, -0.24418357014656067, 1.0576244592666626, -1.6642849445343018, 0.7729479074478149, -0.576171875, -0.011962890625, -0.655029296875, 0, 
224, 3631117244, -0.6957002878189087, 0.03863218426704407, 0.7155256867408752, 0.05046600103378296, 9.687524795532227, 0.08536568284034729, -0.27137720584869385, 0.792850136756897, -1.8338512182235718, 0.9253526329994202, -0.5830078125, -0.008544921875, -0.654052734375, 0, 
225, 3631125577, -0.6956949830055237, 0.03861192613840103, 0.715532124042511, 0.05046359449625015, 9.674095153808594, 0.08469397574663162, -0.22727933526039124, 0.6440059542655945, -1.7974278926849365, 0.9067056179046631, -0.5771484375, -0.009521484375, -0.656005859375, 0, 
226, 3631133910, -0.6956903338432312, 0.038607366383075714, 0.7155376076698303, 0.05045415461063385, 9.655098915100098, 0.055574122816324234, -0.20959335565567017, 0.5627319812774658, -1.8129245042800903, 1.0434600114822388, -0.578125, -0.010498046875, -0.653564453125, 0, 
227, 3631142243, -0.695681095123291, 0.03861081600189209, 0.7155466079711914, 0.05045101046562195, 9.634760856628418, 0.09431558102369308, -0.23247656226158142, 0.4237234592437744, -1.875730276107788, 1.144098162651062, -0.5810546875, -0.013427734375, -0.654052734375, 0, 
228, 3631150576, -0.6956799626350403, 0.038642317056655884, 0.7155470252037048, 0.05043749511241913, 9.616666793823242, 0.09172472357749939, -0.19565322995185852, 0.25674429535865784, -1.7565219402313232, 1.4427603483200073, -0.57958984375, -0.010986328125, -0.655517578125, 0, 
229, 3631158909, -0.6956674456596375, 0.038645364344120026, 0.7155598998069763, 0.05042588710784912, 9.681032180786133, -0.014105836860835552, -0.27167919278144836, 0.5119645595550537, -1.9508311748504639, 1.2163560390472412, -0.57958984375, -0.011962890625, -0.654052734375, 0, 
230, 3631167242, -0.6956520676612854, 0.0386471301317215, 0.7155758738517761, 0.05040966719388962, 9.67064094543457, 0.03986635431647301, -0.245906263589859, 0.5690074563026428, -2.0268545150756836, 1.1573665142059326, -0.57666015625, -0.010009765625, -0.654052734375, 0, 
231, 3631175575, -0.6956469416618347, 0.038640812039375305, 0.7155821323394775, 0.05039694160223007, 9.685598373413086, 0.04699530452489853, -0.23946192860603333, 0.6141653060913086, -1.8077245950698853, 1.1437397003173828, -0.5771484375, -0.010986328125, -0.653564453125, 0, 
232, 3631183908, -0.6956503987312317, 0.0386388897895813, 0.7155809998512268, 0.05036319047212601, 9.653264045715332, 0.09630795568227768, -0.22633419930934906, 0.7733065485954285, -1.683777093887329, 1.311487078666687, -0.57861328125, -0.010009765625, -0.654052734375, 0, 
233, 3631192241, -0.6956325173377991, 0.038640014827251434, 0.715600311756134, 0.05033455044031143, 9.656219482421875, 0.045083221048116684, -0.17305319011211395, 0.6996912360191345, -2.07285737991333, 1.3525469303131104, -0.5791015625, -0.013427734375, -0.653564453125, 0, 
234, 3631200574, -0.6956334710121155, 0.0386170893907547, 0.7156031131744385, 0.05029992014169693, 9.68399715423584, -0.00648894626647234, -0.2590528130531311, 0.9840860962867737, -1.732316255569458, 1.1094422340393066, -0.578125, -0.013916015625, -0.653564453125, 0, 
235, 3631208907, -0.6956149935722351, 0.038561008870601654, 0.7156271934509277, 0.05025617778301239, 9.664041519165039, 0.009532117284834385, -0.24682259559631348, 1.3991904258728027, -2.092503547668457, 0.9319098591804504, -0.578125, -0.010498046875, -0.653076171875, 0, 
236, 3631217240, -0.6956066489219666, 0.03850798308849335, 0.715641975402832, 0.05020228028297424, 9.688136100769043, 0.07739728689193726, -0.19728633761405945, 1.4654544591903687, -1.9264721870422363, 0.9853155016899109, -0.57666015625, -0.009521484375, -0.655029296875, 0, 
237, 3631225573, -0.6956035494804382, 0.03845678269863129, 0.7156510353088379, 0.05015658587217331, 9.652710914611816, 0.04494145140051842, -0.20193442702293396, 1.3703230619430542, -1.8013721704483032, 1.0169235467910767, -0.57861328125, -0.008544921875, -0.656005859375, 0, 
238, 3631233906, -0.6955934762954712, 0.03840894252061844, 0.7156681418418884, 0.05008738487958908, 9.659521102905273, 0.04577276483178139, -0.2315695881843567, 1.568551778793335, -1.9793914556503296, 1.180060625076294, -0.58056640625, -0.012939453125, -0.656005859375, 0, 
239, 3631242239, -0.6955947875976562, 0.038341715931892395, 0.7156758904457092, 0.05001068115234375, 9.634542465209961, 0.06990835070610046, -0.21465390920639038, 1.828305721282959, -1.7504767179489136, 1.1599023342132568, -0.57763671875, -0.010986328125, -0.654052734375, 0, 
240, 3631250572, -0.6955789923667908, 0.03828847408294678, 0.7157002687454224, 0.049920111894607544, 9.64678955078125, 0.05035758763551712, -0.18456581234931946, 1.832301378250122, -2.1132514476776123, 1.3231674432754517, -0.578125, -0.010498046875, -0.656982421875, 0, 
241, 3631258905, -0.6955856084823608, 0.038224391639232635, 0.715704619884491, 0.04981537163257599, 9.646269798278809, 0.06760930269956589, -0.1818479299545288, 2.075547218322754, -1.6836878061294556, 1.4644170999526978, -0.57958984375, -0.011474609375, -0.655517578125, 0, 
242, 3631267238, -0.695597231388092, 0.0381588488817215, 0.7157068252563477, 0.049672409892082214, 9.590885162353516, 0.06369326263666153, -0.16448119282722473, 2.4641025066375732, -1.6496081352233887, 1.732918381690979, -0.57861328125, -0.011474609375, -0.655517578125, 0, 
243, 3631275571, -0.6955893635749817, 0.03806258738040924, 0.7157301306724548, 0.049520641565322876, 9.643802642822266, -0.014130963012576103, -0.183103546500206, 2.8516454696655273, -2.008028030395508, 1.577747106552124, -0.57861328125, -0.010009765625, -0.655517578125, 0, 
244, 3631283904, -0.6955544352531433, 0.037919849157333374, 0.7157835960388184, 0.049347758293151855, 9.62839412689209, 0.02273355796933174, -0.20866525173187256, 3.5074470043182373, -2.564241409301758, 1.2022937536239624, -0.57861328125, -0.010009765625, -0.655517578125, 0, 
245, 3631292237, -0.6955450177192688, 0.03777430206537247, 0.7158124446868896, 0.049173012375831604, 9.71857738494873, 0.11505657434463501, -0.2702551782131195, 3.552643299102783, -2.056349277496338, 1.3085545301437378, -0.57861328125, -0.011962890625, -0.655029296875, 0, 
246, 3631300570, -0.6955257058143616, 0.037660762667655945, 0.7158491611480713, 0.048997774720191956, 9.655357360839844, 0.061849258840084076, -0.141702800989151, 3.24751353263855, -2.2681918144226074, 1.5311037302017212, -0.57763671875, -0.013427734375, -0.654052734375, 0, 
247, 3631308903, -0.6955312490463257, 0.03752211481332779, 0.7158637046813965, 0.04881345480680466, 9.683695793151855, 0.07402142882347107, -0.25834405422210693, 3.5793204307556152, -1.7827508449554443, 1.4843577146530151, -0.57666015625, -0.013916015625, -0.654052734375, 0, 
248, 3631317236, -0.6955028176307678, 0.03740181028842926, 0.7159102559089661, 0.04862798750400543, 9.706955909729004, 0.0941295176744461, -0.2965078353881836, 3.417387008666992, -2.454176902770996, 1.5523637533187866, -0.5791015625, -0.011474609375, -0.653564453125, 0, 
249, 3631325569, -0.6955164670944214, 0.03729262202978134, 0.7159152030944824, 0.04844377189874649, 9.744719505310059, 0.0620979443192482, -0.3056468367576599, 3.293055295944214, -1.6303714513778687, 1.7838904857635498, -0.580078125, -0.011474609375, -0.653076171875, 0, 
250, 3631333902, -0.695538341999054, 0.037212349474430084, 0.7159078121185303, 0.0482986718416214, 9.682856559753418, 0.05787283927202225, -0.31653401255607605, 2.624011993408203, -1.448024034500122, 1.6208815574645996, -0.5771484375, -0.010986328125, -0.659423828125, 0, 
251, 3631342235, -0.6955585479736328, 0.037149578332901, 0.7158994674682617, 0.04817827790975571, 9.654020309448242, 0.06559428572654724, -0.2601346969604492, 2.2166175842285156, -1.4356523752212524, 1.6418085098266602, -0.57568359375, -0.012939453125, -0.655029296875, 0, 
252, 3631350568, -0.695573091506958, 0.03709215670824051, 0.7158966064453125, 0.048058316111564636, 9.669820785522461, 0.07983290404081345, -0.3064821660518646, 2.1587038040161133, -1.5662848949432373, 1.598443627357483, -0.5791015625, -0.012939453125, -0.653564453125, 0, 
253, 3631358901, -0.6955941915512085, 0.03705795109272003, 0.7158846259117126, 0.04795634001493454, 9.681119918823242, 0.08241887390613556, -0.24869629740715027, 1.7593520879745483, -1.4043517112731934, 1.7490808963775635, -0.580078125, -0.012939453125, -0.655029296875, 0, 
254, 3631367234, -0.6956148147583008, 0.03706251084804535, 0.7158710360527039, 0.047857865691185, 9.681674003601074, 0.07911919057369232, -0.2915288209915161, 1.3486279249191284, -1.4325530529022217, 2.01326584815979, -0.57958984375, -0.016357421875, -0.655029296875, 0, 
255, 3631375567, -0.6956382989883423, 0.03707296401262283, 0.7158540487289429, 0.04776221513748169, 9.623796463012695, 0.07341359555721283, -0.16834431886672974, 1.2684041261672974, -1.3595778942108154, 2.132218599319458, -0.57763671875, -0.013427734375, -0.656005859375, 0, 
256, 3631383900, -0.6956514120101929, 0.03710038214921951, 0.7158464789390564, 0.04766230285167694, 9.65090274810791, 0.08754788339138031, -0.17954294383525848, 1.1439188718795776, -1.579681158065796, 2.244127035140991, -0.58203125, -0.012939453125, -0.657470703125, 0, 
257, 3631392233, -0.6956639885902405, 0.03714102506637573, 0.7158393263816833, 0.04755344241857529, 9.587957382202148, 0.06440956145524979, -0.21186211705207825, 1.1094422340393066, -1.5851370096206665, 2.5439932346343994, -0.57958984375, -0.011962890625, -0.654541015625, 0, 
258, 3631400566, -0.6956657767295837, 0.037174396216869354, 0.7158445715904236, 0.04742184281349182, 9.555021286010742, 0.04568071663379669, -0.10761675983667374, 1.405619502067566, -1.8361563682556152, 2.5915074348449707, -0.578125, -0.013427734375, -0.652587890625, 0, 
259, 3631408899, -0.6956526041030884, 0.03720775991678238, 0.7158653140068054, 0.04727675020694733, 9.568765640258789, 0.0600733645260334, -0.12066382169723511, 1.5394792556762695, -2.119936227798462, 2.7874560356140137, -0.57958984375, -0.009033203125, -0.653076171875, 0, 
260, 3631417232, -0.6956318616867065, 0.037248268723487854, 0.7158939838409424, 0.047116391360759735, 9.609715461730957, -0.026650074869394302, -0.22224757075309753, 1.6253384351730347, -2.3004143238067627, 2.9106605052948, -0.57763671875, -0.013427734375, -0.657470703125, 0, 
261, 3631425565, -0.6956191658973694, 0.03722257912158966, 0.7159206867218018, 0.046919070184230804, 9.59310531616211, -0.03536228835582733, -0.22700393199920654, 2.6226284503936768, -2.160637617111206, 2.702877998352051, -0.5771484375, -0.009521484375, -0.656005859375, 0, 
262, 3631433898, -0.6956063508987427, 0.037172965705394745, 0.7159503102302551, 0.046694353222846985, 9.591331481933594, 0.03668477013707161, -0.0985715389251709, 3.1214916706085205, -2.2053089141845703, 2.643376350402832, -0.57958984375, -0.012939453125, -0.654052734375, 0, 
263, 3631442231, -0.6955918073654175, 0.03711513429880142, 0.7159839868545532, 0.04644045978784561, 9.527654647827148, 0.01782594621181488, -0.05213702842593193, 3.4932310581207275, -2.254795551300049, 2.9232890605926514, -0.5751953125, -0.010009765625, -0.654052734375, 0, 
264, 3631450564, -0.6955325603485107, 0.03705308586359024, 0.716063380241394, 0.04615198075771332, 9.584227561950684, 0.0175706148147583, -0.0994325503706932, 3.874627113342285, -3.1657145023345947, 3.0764617919921875, -0.5791015625, -0.015869140625, -0.652099609375, 0, 
265, 3631458897, -0.6954754590988159, 0.036971092224121094, 0.7161425948143005, 0.04584948718547821, 9.696686744689941, -0.008562724106013775, -0.2565074861049652, 4.209123134613037, -3.1170222759246826, 3.0997965335845947, -0.5791015625, -0.010986328125, -0.656005859375, 0, 
266, 3631467230, -0.6954212188720703, 0.036830298602581024, 0.716221809387207, 0.045544855296611786, 9.6882905960083, -0.08027383685112, -0.3055512309074402, 4.792846202850342, -3.071556568145752, 2.4579293727874756, -0.580078125, -0.007080078125, -0.653564453125, 0, 
267, 3631475563, -0.6953679323196411, 0.036656029522418976, 0.7163019776344299, 0.04523792862892151, 9.71993350982666, 0.03876389563083649, -0.37484779953956604, 5.137075424194336, -3.034287691116333, 2.2356998920440674, -0.57666015625, -0.011962890625, -0.654541015625, 0, 
268, 3631483896, -0.6953402161598206, 0.03651385009288788, 0.7163554430007935, 0.04492887854576111, 9.716328620910645, 0.07440736889839172, -0.2860308289527893, 4.853372573852539, -2.565060615539551, 2.5158941745758057, -0.5771484375, -0.013427734375, -0.655517578125, 0, 
269, 3631492229, -0.6953206658363342, 0.036378972232341766, 0.7163999080657959, 0.04463203251361847, 9.681102752685547, 0.0015926604392006993, -0.2913321852684021, 4.656732082366943, -2.379767417907715, 2.565765619277954, -0.5810546875, -0.014404296875, -0.655517578125, 0, 
270, 3631500562, -0.6953111290931702, 0.03625404089689255, 0.7164334058761597, 0.04434622824192047, 9.723905563354492, 0.03518928587436676, -0.373672753572464, 4.447925090789795, -2.194397211074829, 2.485438823699951, -0.58056640625, -0.011962890625, -0.652587890625, 0, 
271, 3631508895, -0.6953364014625549, 0.03614688664674759, 0.716431200504303, 0.044073283672332764, 9.669281959533691, 0.04984106868505478, -0.2986702024936676, 4.150645732879639, -1.4965884685516357, 2.6611270904541016, -0.578125, -0.010986328125, -0.652587890625, 0, 
272, 3631517228, -0.6953541040420532, 0.03604661673307419, 0.7164357900619507, 0.043798141181468964, 9.646965026855469, 0.020902715623378754, -0.23215889930725098, 4.104681015014648, -1.6589953899383545, 2.6577844619750977, -0.5810546875, -0.012451171875, -0.651611328125, 0, 
273, 3631525561, -0.6953730583190918, 0.03597363829612732, 0.7164376974105835, 0.043526776134967804, 9.595661163330078, 0.17810432612895966, -0.02928142622113228, 3.8080174922943115, -1.6180129051208496, 2.976861000061035, -0.57666015625, -0.012451171875, -0.654052734375, 0, 
274, 3631533894, -0.6953339576721191, 0.03593479096889496, 0.716494619846344, 0.043244197964668274, 9.553492546081543, -0.041708335280418396, -0.4228176176548004, 3.5897200107574463, -2.759345054626465, 3.272641181945801, -0.576171875, -0.012939453125, -0.654052734375, 0, 
275, 3631542227, -0.6953096389770508, 0.03589557111263275, 0.716536819934845, 0.04296829551458359, 9.474708557128906, -0.0162869431078434, -0.0879983976483345, 3.5333430767059326, -2.451666831970215, 3.3070156574249268, -0.57958984375, -0.010498046875, -0.653564453125, 0, 
276, 3631550560, -0.6952754855155945, 0.035875797271728516, 0.7165873050689697, 0.04269542545080185, 9.539508819580078, 0.04343738779425621, -0.09862019121646881, 3.304915189743042, -2.655606985092163, 3.375405788421631, -0.580078125, -0.011962890625, -0.651123046875, 0, 
277, 3631558893, -0.6951971650123596, 0.035887666046619415, 0.7166792154312134, 0.04241489619016647, 9.525229454040527, 0.0411948524415493, -0.0014264972414821386, 3.090754747390747, -3.492372989654541, 3.7977077960968018, -0.580078125, -0.010009765625, -0.652587890625, 0, 
278, 3631567226, -0.6950316429138184, 0.035909682512283325, 0.7168550491333008, 0.04213406890630722, 9.702938079833984, -0.05600136145949364, -0.39655837416648865, 3.002410888671875, -5.177738189697266, 3.7241692543029785, -0.5771484375, -0.012451171875, -0.653076171875, 0, 
279, 3631575559, -0.6949738264083862, 0.03588995337486267, 0.7169286608695984, 0.04185229539871216, 9.620556831359863, -0.11657088249921799, -0.15563857555389404, 3.4055538177490234, -3.0959672927856445, 3.5195624828338623, -0.5771484375, -0.007568359375, -0.651123046875, 0, 
280, 3631583892, -0.694832980632782, 0.03586529940366745, 0.7170827984809875, 0.04157372564077377, 9.711655616760254, 0.01593957468867302, -0.41414088010787964, 3.424328565597534, -4.698931694030762, 3.268799066543579, -0.57861328125, -0.009521484375, -0.651123046875, 0, 
281, 3631592225, -0.694705069065094, 0.03585874289274216, 0.7172213196754456, 0.041328415274620056, 9.635980606079102, 0.03423379361629486, -0.24292345345020294, 2.923391342163086, -4.398604869842529, 3.227842330932617, -0.57861328125, -0.008544921875, -0.653564453125, 0, 
282, 3631600558, -0.6944468021392822, 0.0359194278717041, 0.7174810767173767, 0.04110219329595566, 9.531973838806152, -0.08115909993648529, -0.25205209851264954, 2.109832286834717, -6.888744831085205, 3.491105556488037, -0.57958984375, -0.010009765625, -0.652099609375, 0, 
283, 3631608891, -0.6943646669387817, 0.03593488037586212, 0.7175726294517517, 0.040877245366573334, 9.737765312194824, 0.09920370578765869, -0.2112686187028885, 2.5078771114349365, -3.5003647804260254, 3.299126386642456, -0.57861328125, -0.009033203125, -0.651611328125, 0, 
284, 3631617224, -0.6942076086997986, 0.03601048141717911, 0.7177316546440125, 0.04068619757890701, 9.834056854248047, 0.03358373045921326, -0.4352685511112213, 1.5869172811508179, -4.9203410148620605, 3.410317897796631, -0.5791015625, -0.011474609375, -0.648681640625, 0, 
285, 3631625557, -0.6940943598747253, 0.03607352077960968, 0.7178465127944946, 0.04053535312414169, 9.801114082336426, -0.10525564849376678, -0.42686766386032104, 1.3202731609344482, -4.019411563873291, 3.0326614379882812, -0.5830078125, -0.007568359375, -0.650634765625, 0, 
286, 3631633890, -0.6939250230789185, 0.03615414351224899, 0.7180123329162598, 0.040426917374134064, 9.76381778717041, -0.05288248881697655, -0.414310485124588, 0.7294551134109497, -5.069108486175537, 2.6603329181671143, -0.58203125, -0.008544921875, -0.651611328125, 0, 
287, 3631642223, -0.6938527226448059, 0.03622051328420639, 0.7180847525596619, 0.04032188653945923, 9.692163467407227, -0.06549462676048279, -0.1642194241285324, 0.8339354991912842, -3.189664125442505, 2.6714494228363037, -0.5791015625, -0.009033203125, -0.651123046875, 0, 
288, 3631650556, -0.6936989426612854, 0.03626937419176102, 0.71823650598526, 0.040222734212875366, 9.799097061157227, -0.05019297078251839, -0.393311083316803, 0.9539893865585327, -4.755923271179199, 2.274531126022339, -0.583984375, -0.007080078125, -0.646728515625, 0, 
289, 3631658889, -0.6936001181602478, 0.03631360083818436, 0.7183334231376648, 0.04015680402517319, 9.817367553710938, 0.010473595932126045, -0.39323151111602783, 0.6592207551002502, -3.655971050262451, 2.052635431289673, -0.578125, -0.009521484375, -0.648681640625, 0, 
290, 3631667222, -0.6935114860534668, 0.03636559844017029, 0.7184193730354309, 0.04010075330734253, 9.755136489868164, -0.0889286920428276, -0.29173406958580017, 0.5246434807777405, -3.4640941619873047, 1.9619349241256714, -0.57666015625, -0.007080078125, -0.650146484375, 0, 
291, 3631675555, -0.6932956576347351, 0.036530107259750366, 0.718618631362915, 0.040111370384693146, 9.661364555358887, -0.1290813386440277, -0.3937332034111023, -1.2476180791854858, -5.813867568969727, 2.3963780403137207, -0.583984375, -0.007568359375, -0.648681640625, 0, 
292, 3631683888, -0.6932206749916077, 0.03656231611967087, 0.7186888456344604, 0.04012365639209747, 9.856705665588379, -0.07262945175170898, -0.3045806288719177, -0.03232516348361969, -3.13502836227417, 1.1314191818237305, -0.58154296875, -0.006591796875, -0.648193359375, 0, 
293, 3631692221, -0.6931334137916565, 0.036610133945941925, 0.7187683582305908, 0.0401635468006134, 9.765772819519043, 0.0008091569761745632, -0.41207727789878845, -0.42486336827278137, -3.3248558044433594, 1.094176173210144, -0.5810546875, -0.005615234375, -0.646240234375, 0, 
294, 3631700554, -0.6930527687072754, 0.03668924421072006, 0.7188401222229004, 0.040197066962718964, 9.657788276672363, 0.011967754922807217, -0.29653117060661316, -0.7351285815238953, -3.2202987670898438, 1.390302300453186, -0.5810546875, -0.008544921875, -0.648193359375, 0, 
295, 3631708887, -0.6929085850715637, 0.036780983209609985, 0.7189713716506958, 0.040252335369586945, 9.805721282958984, -0.014576748944818974, -0.2970564365386963, -0.9955229163169861, -4.394967079162598, 1.3247040510177612, -0.5791015625, -0.010009765625, -0.648681640625, 0, 
296, 3631717220, -0.6928322315216064, 0.03690211474895477, 0.7190331220626831, 0.0403522253036499, 9.85903263092041, -0.06364468485116959, -0.4148857593536377, -1.6672558784484863, -3.0753982067108154, 1.1773964166641235, -0.58251953125, -0.009521484375, -0.648193359375, 0, 
297, 3631725553, -0.6927497982978821, 0.037038616836071014, 0.7190976738929749, 0.04049115628004074, 9.84655475616455, -0.04981270805001259, -0.4542558491230011, -2.2563066482543945, -3.1293933391571045, 1.0381578207015991, -0.583984375, -0.007568359375, -0.649658203125, 0, 
298, 3631733886, -0.6926817297935486, 0.037184372544288635, 0.7191446423530579, 0.040686316788196564, 9.864912986755371, -0.0721619576215744, -0.40782156586647034, -2.9019134044647217, -2.816617965698242, 0.5272306203842163, -0.583984375, -0.006591796875, -0.646240234375, 0, 
299, 3631742219, -0.6926478743553162, 0.037333764135837555, 0.7191555500030518, 0.04093275964260101, 9.794084548950195, -0.06434372067451477, -0.3772231936454773, -3.44675350189209, -2.0929901599884033, 0.19570554792881012, -0.58154296875, -0.008544921875, -0.647705078125, 0, 
300, 3631750552, -0.6925987601280212, 0.03749849647283554, 0.7191794514656067, 0.041194938123226166, 9.714590072631836, -0.06986439228057861, -0.33991292119026184, -3.7424707412719727, -2.3841731548309326, 0.09855077415704727, -0.57861328125, -0.008056640625, -0.647216796875, 0, 
301, 3631758885, -0.692555844783783, 0.03764917701482773, 0.7191956639289856, 0.04149399697780609, 9.710882186889648, -0.056609608232975006, -0.35851868987083435, -3.9811184406280518, -2.2070505619049072, -0.30019888281822205, -0.57958984375, -0.006591796875, -0.646240234375, 0, 
302, 3631767218, -0.6924979090690613, 0.03780537098646164, 0.7192251682281494, 0.04180344194173813, 9.707637786865234, -0.0357804074883461, -0.29594889283180237, -4.1419243812561035, -2.4976696968078613, -0.44417649507522583, -0.580078125, -0.004638671875, -0.647216796875, 0, 
303, 3631775551, -0.692463219165802, 0.03794205188751221, 0.719233512878418, 0.04211018234491348, 9.694164276123047, -0.05664646625518799, -0.37840116024017334, -3.9235117435455322, -2.0369465351104736, -0.5027562379837036, -0.57958984375, -0.005126953125, -0.647216796875, 0, 
304, 3631783884, -0.6924052238464355, 0.038059987127780914, 0.7192638516426086, 0.04243859648704529, 9.750381469726562, -0.11041031777858734, -0.37512096762657166, -3.9618051052093506, -2.4734387397766113, -1.003565788269043, -0.580078125, -0.007568359375, -0.645263671875, 0, 
305, 3631792217, -0.6923826932907104, 0.03813199698925018, 0.7192617058753967, 0.04277528077363968, 9.710349082946777, -0.1264904886484146, -0.33995285630226135, -3.6038973331451416, -1.7628229856491089, -1.41441810131073, -0.58154296875, -0.007568359375, -0.648681640625, 0, 
306, 3631800550, -0.6923292875289917, 0.038140542805194855, 0.7192938327789307, 0.043088942766189575, 9.692462921142578, -0.12473772466182709, -0.3371526598930359, -2.7694880962371826, -2.3891420364379883, -1.944299578666687, -0.58154296875, -0.006591796875, -0.645751953125, 0, 
307, 3631808883, -0.6922652721405029, 0.03812114894390106, 0.7193368673324585, 0.04341614991426468, 9.784220695495605, -0.030466753989458084, -0.39073190093040466, -2.6360890865325928, -2.554635763168335, -2.276388168334961, -0.58056640625, -0.006103515625, -0.644775390625, 0, 
308, 3631817216, -0.6922684907913208, 0.03806848078966141, 0.7193173766136169, 0.043735191226005554, 9.671669006347656, -0.031059468165040016, -0.3804502487182617, -2.2492117881774902, -1.298539400100708, -2.5397286415100098, -0.58349609375, -0.007568359375, -0.645751953125, 0, 
309, 3631825549, -0.6922301054000854, 0.0379742756485939, 0.7193418145179749, 0.04402180761098862, 9.672432899475098, -0.07228260487318039, -0.3620573580265045, -1.5182578563690186, -2.099931478500366, -2.6052744388580322, -0.5771484375, -0.007568359375, -0.647216796875, 0, 
310, 3631833882, -0.6922025680541992, 0.03784167021512985, 0.7193574905395508, 0.044313766062259674, 9.812108039855957, -0.027179677039384842, -0.4302702248096466, -1.1797659397125244, -1.9019593000411987, -3.1114892959594727, -0.58203125, -0.008056640625, -0.645263671875, 0, 
311, 3631842215, -0.692245602607727, 0.037699632346630096, 0.7193048596382141, 0.044616349041461945, 9.733174324035645, -0.00036880967672914267, -0.3791600465774536, -1.2251800298690796, -0.5251686573028564, -3.1414577960968018, -0.58203125, -0.008056640625, -0.647705078125, 0, 
312, 3631850548, -0.6922950148582458, 0.03756152093410492, 0.7192455530166626, 0.04491911828517914, 9.733206748962402, -0.004082934930920601, -0.3671574890613556, -1.2752046585083008, -0.41917696595191956, -3.180135488510132, -0.5830078125, -0.007568359375, -0.645751953125, 0, 
313, 3631858881, -0.6923643946647644, 0.03741704672574997, 0.7191663980484009, 0.04523535072803497, 9.70576000213623, 0.01944751664996147, -0.35184189677238464, -1.3406236171722412, -0.003790907561779022, -3.2647652626037598, -0.5810546875, -0.010498046875, -0.646240234375, 0, 
314, 3631867214, -0.6924363970756531, 0.03725779801607132, 0.7190845608711243, 0.04556465893983841, 9.686838150024414, -0.06649800390005112, -0.34373679757118225, -1.3668779134750366, 0.046092815697193146, -3.615602970123291, -0.58056640625, -0.010986328125, -0.645263671875, 0, 
315, 3631875547, -0.6925185322761536, 0.03705766052007675, 0.7189956903457642, 0.04588141292333603, 9.675633430480957, 0.013060285709798336, -0.3238625228404999, -0.8146607279777527, 0.25141650438308716, -3.807888984680176, -0.5830078125, -0.012939453125, -0.643798828125, 0, 
316, 3631883880, -0.6925966739654541, 0.036846823990345, 0.7189127802848816, 0.04617033898830414, 9.656045913696289, 0.004515022970736027, -0.2669658958911896, -0.47240331768989563, 0.12764853239059448, -3.7366299629211426, -0.58154296875, -0.011962890625, -0.648681640625, 0, 
317, 3631892213, -0.6926571130752563, 0.036600127816200256, 0.7188478708267212, 0.046468041837215424, 9.657967567443848, -0.03134506940841675, -0.33959469199180603, -0.1783263087272644, -0.17199960350990295, -4.112544536590576, -0.58251953125, -0.012451171875, -0.647216796875, 0, 
318, 3631900546, -0.6927400827407837, 0.03632700443267822, 0.7187617421150208, 0.0467793270945549, 9.70372200012207, 0.012654006481170654, -0.33078688383102417, -0.06690438836812973, 0.2580506205558777, -4.5618696212768555, -0.58349609375, -0.014404296875, -0.647705078125, 0, 
319, 3631908879, -0.6927919983863831, 0.03604639321565628, 0.7187038064002991, 0.04711566120386124, 9.734663963317871, 0.03972373530268669, -0.346124529838562, -0.2365090399980545, -0.28199994564056396, -4.824531078338623, -0.58349609375, -0.013916015625, -0.647216796875, 0, 
320, 3631917212, -0.692875325679779, 0.03576146066188812, 0.7186158299446106, 0.047450266778469086, 9.81285572052002, 0.07429175078868866, -0.4060310423374176, -0.18383337557315826, 0.29926392436027527, -4.900080680847168, -0.5791015625, -0.014404296875, -0.647705078125, 0, 
321, 3631925545, -0.6929601430892944, 0.03548538684844971, 0.7185202836990356, 0.04786469787359238, 9.80666732788086, -0.00649053230881691, -0.478870153427124, -1.060864806175232, 0.43645378947257996, -5.483496189117432, -0.58056640625, -0.017333984375, -0.650634765625, 0, 
322, 3631933878, -0.6930316090583801, 0.03531084954738617, 0.7184246182441711, 0.04839039593935013, 9.72454833984375, 0.15522223711013794, -0.21397440135478973, -3.1391780376434326, 0.2758524715900421, -5.633953094482422, -0.5830078125, -0.014404296875, -0.649658203125, 0, 
323, 3631942211, -0.6930704712867737, 0.03513621538877487, 0.718357503414154, 0.04895403981208801, 9.815889358520508, 0.12201634049415588, -0.38366708159446716, -3.5052056312561035, -0.280655175447464, -5.947880744934082, -0.5810546875, -0.017822265625, -0.648681640625, 0, 
324, 3631950544, -0.6931091547012329, 0.03503908962011337, 0.7182837128639221, 0.049555256962776184, 9.67919635772705, 0.1250515878200531, -0.16363760828971863, -4.628389835357666, -0.2738930284976959, -5.620761871337891, -0.5791015625, -0.018310546875, -0.648681640625, 0, 
325, 3631958877, -0.6931238174438477, 0.03492660075426102, 0.7182317972183228, 0.05018084496259689, 9.751059532165527, 0.08958037197589874, -0.344075471162796, -4.709587097167969, -0.6782905459403992, -5.94826602935791, -0.57861328125, -0.016845703125, -0.650146484375, 0, 
326, 3631967210, -0.693127453327179, 0.034805312752723694, 0.7181888818740845, 0.050822921097278595, 9.747891426086426, 0.08508729189634323, -0.37505853176116943, -4.801952362060547, -0.8746750354766846, -6.28770637512207, -0.58154296875, -0.020263671875, -0.650634765625, 0, 
327, 3631975543, -0.6930832862854004, 0.03468252718448639, 0.7181913256645203, 0.05147373676300049, 9.730563163757324, 0.10709839314222336, -0.2872098684310913, -4.849491119384766, -1.7580329179763794, -6.357504367828369, -0.5849609375, -0.020263671875, -0.650146484375, 0, 
328, 3631983876, -0.69318026304245, 0.034431613981723785, 0.7180662155151367, 0.05207362771034241, 9.780976295471191, 0.08828668296337128, -0.4461482763290405, -3.1519598960876465, 0.9013009667396545, -7.060692310333252, -0.58056640625, -0.020751953125, -0.645263671875, 0, 
329, 3631992209, -0.6931253671646118, 0.034326404333114624, 0.718073308467865, 0.052771322429180145, 9.8513765335083, 0.14368891716003418, -0.41803374886512756, -5.482752799987793, -1.8994747400283813, -6.64169454574585, -0.57958984375, -0.023193359375, -0.647705078125, 0, 
330, 3632000542, -0.6932441592216492, 0.03420211374759674, 0.7179107069969177, 0.05349942296743393, 9.72010612487793, 0.1177692785859108, -0.21364739537239075, -5.643841743469238, 1.443554401397705, -6.997246742248535, -0.5810546875, -0.023681640625, -0.649658203125, 0, 
331, 3632008875, -0.6932787299156189, 0.03403583914041519, 0.717827558517456, 0.05426831543445587, 9.910629272460938, 0.15462858974933624, -0.5946028232574463, -5.625245571136475, -0.07722692936658859, -7.816005706787109, -0.58251953125, -0.024169921875, -0.646728515625, 0, 
332, 3632017208, -0.6933770179748535, 0.033946968615055084, 0.7176704406738281, 0.055139727890491486, 9.77070426940918, 0.29389163851737976, -0.3225138187408447, -7.402080059051514, 1.230264663696289, -8.032035827636719, -0.58349609375, -0.027099609375, -0.648681640625, 0, 
333, 3632025541, -0.6935293078422546, 0.033843621611595154, 0.7174599766731262, 0.05601947754621506, 9.880998611450195, 0.19985760748386383, -0.6660605072975159, -7.3599700927734375, 2.302783966064453, -8.103832244873047, -0.58154296875, -0.027587890625, -0.649169921875, 0, 
334, 3632033874, -0.6936102509498596, 0.033756062388420105, 0.7173069715499878, 0.05702151358127594, 10.046266555786133, 0.198018416762352, -0.7113521099090576, -8.707637786865234, 1.0803958177566528, -9.279936790466309, -0.58056640625, -0.028564453125, -0.652587890625, 0, 
335, 3632042207, -0.6939332485198975, 0.03361447900533676, 0.716919481754303, 0.058040276169776917, 10.124706268310547, 0.17122025787830353, -0.6971229910850525, -8.427085876464844, 5.768929481506348, -9.590561866760254, -0.58349609375, -0.029296875, -0.651611328125, 0, 
336, 3632050540, -0.6942716240882874, 0.03343043476343155, 0.7165114879608154, 0.05912647396326065, 10.122381210327148, 0.12069973349571228, -0.5289367437362671, -8.699287414550781, 6.16904878616333, -10.71420669555664, -0.58251953125, -0.031494140625, -0.650146484375, 0, 
337, 3632058873, -0.6947421431541443, 0.03313928097486496, 0.7159764170646667, 0.06023561954498291, 10.453633308410645, 0.10324227809906006, -1.0747041702270508, -7.941440582275391, 8.79466438293457, -11.739161491394043, -0.5810546875, -0.032470703125, -0.652587890625, 0, 
338, 3632067206, -0.6953721642494202, 0.03295384347438812, 0.7152529358863831, 0.06164545565843582, 10.530364990234375, 0.23059019446372986, -0.24819989502429962, -11.998814582824707, 12.201973915100098, -13.437310218811035, -0.58056640625, -0.031494140625, -0.656005859375, 0, 
339, 3632075539, -0.6959980130195618, 0.03258420526981354, 0.714532196521759, 0.06311991065740585, 10.537260055541992, 0.08352354913949966, -0.2485184520483017, -10.87001895904541, 12.333732604980469, -15.787184715270996, -0.57861328125, -0.034423828125, -0.655517578125, 0, 
340, 3632083872, -0.6964139938354492, 0.03199319541454315, 0.714012086391449, 0.06470200419425964, 10.701929092407227, 0.002811131998896599, -0.35234203934669495, -9.730161666870117, 8.579607963562012, -19.348466873168945, -0.57666015625, -0.039306640625, -0.657470703125, 0, 
341, 3632092205, -0.6968932151794434, 0.03134342283010483, 0.713390052318573, 0.06669136881828308, 10.327967643737793, -0.013658000156283379, 0.10088450461626053, -13.227149963378906, 10.419327735900879, -23.640958786010742, -0.57958984375, -0.0400390625, -0.660888671875, 0, 
342, 3632100538, -0.6972769498825073, 0.030705749988555908, 0.7128254771232605, 0.06897319108247757, 10.081026077270508, 0.19873109459877014, -0.11918573081493378, -16.20073699951172, 9.035493850708008, -26.522798538208008, -0.57861328125, -0.04052734375, -0.661865234375, 0, 
343, 3632108871, -0.6974850296974182, 0.02976897358894348, 0.7124260067939758, 0.07136614620685577, 10.0736665725708, 0.29095715284347534, -0.32661858201026917, -14.340476036071777, 6.071821212768555, -30.670154571533203, -0.580078125, -0.04833984375, -0.661376953125, 0, 
344, 3632117204, -0.697219967842102, 0.028696835041046143, 0.7124860882759094, 0.07375587522983551, 10.325048446655273, 0.032857321202754974, 0.18396618962287903, -12.753890037536621, -2.848344087600708, -32.704349517822266, -0.57958984375, -0.052734375, -0.663818359375, 0, 
345, 3632125537, -0.6964924931526184, 0.027653761208057404, 0.7129122018814087, 0.07684612274169922, 11.071699142456055, -0.08676015585660934, 0.007081158459186554, -19.70575714111328, -10.632282257080078, -39.66447830200195, -0.57763671875, -0.0556640625, -0.662353515625, 0, 
346, 3632133870, -0.6963013410568237, 0.026628457009792328, 0.7127124667167664, 0.08069583773612976, 11.061176300048828, -0.09594079107046127, -0.02452917769551277, -27.78101348876953, 0.8791211247444153, -46.044979095458984, -0.580322265625, -0.060546875, -0.660400390625, 0, 
347, 3632142203, -0.6963834762573242, 0.025314487516880035, 0.7121723890304565, 0.08506064116954803, 11.14551067352295, -0.1333501636981964, 0.6909140944480896, -30.34038734436035, 7.33836030960083, -53.29206848144531, -0.578857421875, -0.06640625, -0.662353515625, 0, 
348, 3632150536, -0.6955001950263977, 0.023837946355342865, 0.7125141620635986, 0.08972375839948654, 11.209030151367188, 0.4034160077571869, -0.16692742705345154, -31.013099670410156, -10.281160354614258, -59.265464782714844, -0.578857421875, -0.07421875, -0.661376953125, 0, 
349, 3632158869, -0.6948011517524719, 0.022002555429935455, 0.7126538753509521, 0.0943780243396759, 11.421228408813477, 0.2687174379825592, -0.6734326481819153, -27.680448532104492, -6.090603828430176, -62.3143424987793, -0.581787109375, -0.0830078125, -0.658447265625, 0, 
350, 3632167202, -0.6941328644752502, 0.01996520906686783, 0.7126940488815308, 0.09931564331054688, 11.534810066223145, -0.2114384025335312, 0.37164831161499023, -28.64686393737793, -4.501082420349121, -67.02165222167969, -0.580810546875, -0.08837890625, -0.659423828125, 0, 
351, 3632175535, -0.6931921243667603, 0.017687946557998657, 0.7129383087158203, 0.10443302989006042, 12.84164047241211, -0.4607187807559967, 0.7683103084564209, -27.91628074645996, -8.731067657470703, -71.42643737792969, -0.58154296875, -0.09716796875, -0.656494140625, 0, 
352, 3632183868, -0.6928247213363647, 0.014678813517093658, 0.7125256061553955, 0.11000508815050125, 12.553200721740723, -0.14555658400058746, 0.4603269100189209, -26.200092315673828, 4.301426887512207, -82.04487609863281, -0.5810546875, -0.107666015625, -0.659912109375, 0, 
353, 3632192201, -0.692058801651001, 0.011030271649360657, 0.7124210000038147, 0.11577879637479782, 12.230081558227539, 0.5644972920417786, -1.0780009031295776, -21.699840545654297, -1.518589973449707, -90.80447387695312, -0.5810546875, -0.120849609375, -0.65771484375, 0, 
354, 3632200534, -0.6915338635444641, 0.006850607693195343, 0.7119945883750916, 0.12170955538749695, 12.096606254577637, 0.5727404356002808, -1.437205195426941, -18.657981872558594, 4.76086950302124, -97.16700744628906, -0.58349609375, -0.133056640625, -0.65869140625, 0, 
355, 3632208867, -0.6907842755317688, 0.0023858994245529175, 0.711640477180481, 0.12804265320301056, 12.657051086425781, 0.22563500702381134, -0.3704133629798889, -19.787805557250977, 2.401857614517212, -104.0694808959961, -0.5771484375, -0.148681640625, -0.65966796875, 0, 
356, 3632217200, -0.6902033090591431, -0.0028637349605560303, 0.7110464572906494, 0.13431131839752197, 13.389772415161133, -0.12902553379535675, 0.2449103593826294, -12.117088317871094, 7.70205545425415, -110.93285369873047, -0.578369140625, -0.162353515625, -0.65966796875, 0, 
357, 3632225533, -0.6898772120475769, -0.009079113602638245, 0.7100909948348999, 0.1406174749135971, 13.199308395385742, -0.2389059215784073, 0.1150592714548111, -3.9951553344726562, 15.415166854858398, -120.1771011352539, -0.577392578125, -0.180419921875, -0.6630859375, 0, 
358, 3632233866, -0.6894216537475586, -0.01587529480457306, 0.7090280652046204, 0.14744679629802704, 12.949699401855469, 0.1832485944032669, -0.6715561747550964, -3.7833189964294434, 16.222898483276367, -131.1781768798828, -0.572509765625, -0.198486328125, -0.6650390625, 0, 
359, 3632242199, -0.6890715956687927, -0.023326411843299866, 0.7076396346092224, 0.1545896679162979, 13.129953384399414, 0.2615297734737396, -0.8953796029090881, -1.3180805444717407, 21.603261947631836, -140.2917938232422, -0.568603515625, -0.216064453125, -0.6689453125, 0, 
360, 3632250532, -0.6886575818061829, -0.03155834972858429, 0.7060646414756775, 0.16199731826782227, 13.629003524780273, 0.01490715704858303, -0.6869091391563416, 3.1339023113250732, 24.313953399658203, -150.7036895751953, -0.56884765625, -0.240234375, -0.67236328125, 0, 
361, 3632258865, -0.6882128715515137, -0.040591396391391754, 0.7041709423065186, 0.16992422938346863, 14.008176803588867, 0.04839199036359787, -1.0870850086212158, 4.976748466491699, 28.60407066345215, -163.49879455566406, -0.5615234375, -0.265625, -0.67578125, 0, 
362, 3632267198, -0.6880849599838257, -0.05016869306564331, 0.701500415802002, 0.1787032186985016, 14.3242769241333, 0.43467921018600464, -1.4777673482894897, -0.11268027126789093, 39.809757232666016, -176.64138793945312, -0.55615234375, -0.2890625, -0.6796875, 0, 
363, 3632275531, -0.6881013512611389, -0.060342587530612946, 0.6982174515724182, 0.1881040334701538, 14.309728622436523, 0.6779870390892029, -2.1885550022125244, -2.0737464427948, 48.04372024536133, -188.23455810546875, -0.5478515625, -0.314453125, -0.689453125, 0, 
364, 3632283864, -0.6880667209625244, -0.07140212506055832, 0.6944983601570129, 0.19787201285362244, 14.224151611328125, 0.6672667264938354, -2.261347770690918, 1.701400876045227, 53.66413879394531, -200.8316650390625, -0.536376953125, -0.3427734375, -0.693603515625, 0, 
365, 3632292197, -0.6881213784217834, -0.08280651271343231, 0.6899588704109192, 0.2088160663843155, 13.987438201904297, 0.7662441730499268, -2.1348860263824463, -8.593240737915039, 62.065834045410156, -215.69393920898438, -0.526611328125, -0.3720703125, -0.705322265625, 0, 
366, 3632300530, -0.6879304051399231, -0.09459928423166275, 0.6848613023757935, 0.22086971998214722, 14.107139587402344, 0.9676013588905334, -2.0290703773498535, -16.76449966430664, 64.87113952636719, -231.35203552246094, -0.512451171875, -0.400634765625, -0.714599609375, 0, 
367, 3632308863, -0.6876353621482849, -0.10641077905893326, 0.6789409518241882, 0.234284907579422, 14.9049711227417, 1.53025221824646, -2.0789694786071777, -31.779592514038086, 69.9590835571289, -245.6668243408203, -0.497314453125, -0.431884765625, -0.723876953125, 0, 
368, 3632317196, -0.6872590184211731, -0.11826784908771515, 0.6722535490989685, 0.2485523819923401, 15.171881675720215, 2.537390947341919, -2.733694076538086, -41.65387725830078, 75.3612060546875, -255.67808532714844, -0.482177734375, -0.463623046875, -0.733154296875, 0, 
369, 3632325529, -0.6869001388549805, -0.1302242875099182, 0.6647741794586182, 0.2632495164871216, 13.949755668640137, 3.1446423530578613, -2.406935930252075, -47.42815017700195, 82.6409912109375, -261.7460632324219, -0.461181640625, -0.4970703125, -0.74853515625, 0, 
370, 3632333862, -0.6852454543113708, -0.1419714093208313, 0.6576559543609619, 0.2789030075073242, 13.787681579589844, 3.869119167327881, -0.6102105975151062, -54.51554870605469, 64.93029022216797, -273.06463623046875, -0.440673828125, -0.530029296875, -0.76025390625, 0, 
371, 3632342195, -0.6822462677955627, -0.15332825481891632, 0.6511294841766357, 0.2950870096683502, 16.744905471801758, 5.492242813110352, -1.569826602935791, -58.102447509765625, 44.64470672607422, -278.3841552734375, -0.416259765625, -0.55810546875, -0.77294921875, 0, 
372, 3632350528, -0.6796858310699463, -0.16519489884376526, 0.6440067887306213, 0.30985286831855774, 17.4869327545166, 6.035131931304932, -1.286107063293457, -43.960296630859375, 59.24839401245117, -269.2796630859375, -0.396728515625, -0.5888671875, -0.77880859375, 0, 
373, 3632358861, -0.675991415977478, -0.1781473457813263, 0.6377895474433899, 0.3233252763748169, 15.176518440246582, 5.066940784454346, -2.3918111324310303, -15.924705505371094, 48.28565216064453, -269.41864013671875, -0.377685546875, -0.620361328125, -0.787841796875, 0, 
374, 3632367194, -0.6709073781967163, -0.19102641940116882, 0.6322908997535706, 0.3370697498321533, 13.967183113098145, 4.396765232086182, -4.9394426345825195, -12.392213821411133, 28.451980590820312, -275.8951416015625, -0.349365234375, -0.65087890625, -0.792724609375, 0, 
375, 3632375527, -0.6645814180374146, -0.2030535787343979, 0.6272237300872803, 0.35171961784362793, 15.943913459777832, 3.9685440063476562, -4.122084140777588, -22.863258361816406, 7.313672065734863, -281.29388427734375, -0.32666015625, -0.681884765625, -0.796142578125, 0, 
376, 3632383860, -0.6584933400154114, -0.2143612802028656, 0.6211076974868774, 0.3669828772544861, 16.175891876220703, 4.690606594085693, -2.781020402908325, -40.47891616821289, 13.800957679748535, -282.65576171875, -0.302734375, -0.71044921875, -0.801513671875, 0, 
377, 3632392193, -0.6515989899635315, -0.22514504194259644, 0.6153774261474609, 0.3821709454059601, 15.664648056030273, 5.351120471954346, -3.47774338722229, -40.24687957763672, 0.9583858847618103, -280.2483215332031, -0.2734375, -0.736328125, -0.80615234375, 0, 
378, 3632400526, -0.6436143517494202, -0.23522061109542847, 0.6106961965560913, 0.39685937762260437, 15.499445915222168, 5.820419788360596, -4.211684703826904, -33.493797302246094, -19.795949935913086, -272.4585876464844, -0.2490234375, -0.761962890625, -0.80810546875, 0, 
379, 3632408859, -0.6381350755691528, -0.24477393925189972, 0.6049075126647949, 0.408621609210968, 11.89435863494873, 3.3170669078826904, -5.267859935760498, -27.670654296875, 17.616107940673828, -231.87667846679688, -0.2236328125, -0.78515625, -0.8125, 0, 
380, 3632417192, -0.637376606464386, -0.25258272886276245, 0.5988595485687256, 0.41392698884010315, 3.3457517623901367, -3.2474262714385986, -5.4777631759643555, -6.645084381103516, 71.14746856689453, -135.25924682617188, -0.20263671875, -0.802001953125, -0.818359375, 0, 
381, 3632425525, -0.6393759250640869, -0.25508224964141846, 0.5934023857116699, 0.41715747117996216, -2.3998751640319824, -8.304790496826172, -5.289848804473877, -42.277862548828125, 65.60604858398438, -55.3833122253418, -0.1884765625, -0.80517578125, -0.827880859375, 0, 
382, 3632433858, -0.6373738646507263, -0.2475508153438568, 0.5906810760498047, 0.42846745252609253, 8.79619026184082, -1.9315147399902344, -0.9650166034698486, -166.71678161621094, -76.91144561767578, -58.15289306640625, -0.182861328125, -0.802734375, -0.836181640625, 0, 
383, 3632442191, -0.6392982602119446, -0.24155473709106445, 0.5879089832305908, 0.43281352519989014, 14.791838645935059, 2.0518534183502197, 0.06338867545127869, -110.31600952148438, -11.893755912780762, 13.603410720825195, -0.184326171875, -0.79443359375, -0.848388671875, 0, 
384, 3632450524, -0.6427732706069946, -0.24232769012451172, 0.5895943641662598, 0.4248688220977783, 6.058318138122559, -6.149448394775391, -5.089893341064453, 69.89383697509766, 42.65606689453125, 90.73204803466797, -0.1904296875, -0.78662109375, -0.847412109375, 0, 
385, 3632458857, -0.6448152661323547, -0.2390301674604416, 0.5912898778915405, 0.421271413564682, 2.222754716873169, -9.644824981689453, -2.633702516555786, 3.546808958053589, -7.404730319976807, 77.20279693603516, -0.1962890625, -0.783935546875, -0.846923828125, 0, 
386, 3632467190, -0.6455467939376831, -0.23189128935337067, 0.5923925638198853, 0.42258983850479126, 7.52541971206665, -6.101695537567139, -1.7286275625228882, -69.6590347290039, -51.127071380615234, 55.05388259887695, -0.20654296875, -0.775146484375, -0.848388671875, 0, 
387, 3632475523, -0.6467654705047607, -0.22858574986457825, 0.5936789512634277, 0.420718252658844, 6.539553642272949, -4.5729169845581055, -2.053504467010498, -10.0821533203125, -16.428356170654297, 55.81557083129883, -0.21240234375, -0.76708984375, -0.848876953125, 0, 
388, 3632483856, -0.6469941735267639, -0.22650769352912903, 0.5965985655784607, 0.41734713315963745, 2.509243965148926, -6.225407600402832, -2.521090507507324, 25.59063720703125, -27.124948501586914, 58.266719818115234, -0.21875, -0.759765625, -0.845947265625, 0, 
389, 3632492189, -0.6455773711204529, -0.22226116061210632, 0.6007163524627686, 0.41591522097587585, 2.947968006134033, -6.543166637420654, -1.3406263589859009, 2.4368653297424316, -69.86675262451172, 53.3630256652832, -0.22900390625, -0.75927734375, -0.841064453125, 0, 
390, 3632500522, -0.643527090549469, -0.21792122721672058, 0.6057323813438416, 0.414110004901886, 4.863627910614014, -5.692565441131592, -1.6726324558258057, 11.711148262023926, -82.3664779663086, 56.28746032714844, -0.238037109375, -0.750244140625, -0.83251953125, 0, 
391, 3632508855, -0.6419268846511841, -0.213876873254776, 0.6107670664787292, 0.41129761934280396, 4.465443134307861, -6.091788291931152, -1.4479433298110962, 21.528688430786133, -74.1832504272461, 65.64143371582031, -0.251708984375, -0.747314453125, -0.82470703125, 0, 
392, 3632517188, -0.6402367949485779, -0.20895162224769592, 0.6165270209312439, 0.40785518288612366, 4.659656524658203, -5.654719829559326, -1.3365882635116577, 23.350337982177734, -84.36756134033203, 79.9288558959961, -0.26318359375, -0.73681640625, -0.81298828125, 0, 
393, 3632525521, -0.6391491293907166, -0.20323845744132996, 0.6227136254310608, 0.40302085876464844, 5.2795729637146, -5.473372936248779, -1.1040253639221191, 28.936172485351562, -83.53753662109375, 103.76680755615234, -0.27734375, -0.72900390625, -0.80224609375, 0, 
394, 3632533854, -0.6390911936759949, -0.19636252522468567, 0.628994882106781, 0.39671748876571655, 5.23861026763916, -5.334174156188965, -0.8698179125785828, 28.879016876220703, -77.78687286376953, 132.2944793701172, -0.2958984375, -0.721435546875, -0.792236328125, 0, 
395, 3632542187, -0.6397234797477722, -0.18815624713897705, 0.6356501579284668, 0.38899266719818115, 5.014328956604004, -5.341259479522705, -1.0252609252929688, 29.721487045288086, -78.62718200683594, 161.38333129882812, -0.312255859375, -0.7099609375, -0.778564453125, 0, 
396, 3632550520, -0.6405476331710815, -0.1786050796508789, 0.6427540183067322, 0.3803703188896179, 5.417252063751221, -5.478851318359375, -1.0068583488464355, 27.575284957885742, -85.66149139404297, 182.8971405029297, -0.333251953125, -0.691162109375, -0.766357421875, 0, 
397, 3632558853, -0.6415218114852905, -0.16820091009140015, 0.6498962044715881, 0.3712257444858551, 5.8368916511535645, -5.445553779602051, -0.8469579815864563, 24.57404327392578, -87.95906066894531, 196.2447967529297, -0.355712890625, -0.6708984375, -0.75537109375, 0, 
398, 3632567186, -0.6424671411514282, -0.15714505314826965, 0.6570307612419128, 0.3617556691169739, 6.42043399810791, -5.2905354499816895, -0.7215030193328857, 21.696081161499023, -90.61277770996094, 204.43438720703125, -0.3759765625, -0.646484375, -0.74462890625, 0, 
399, 3632575519, -0.643451988697052, -0.14577707648277283, 0.6639782190322876, 0.3519473373889923, 7.497350215911865, -5.006821632385254, -0.5505322813987732, 21.04421043395996, -89.53739166259766, 210.37644958496094, -0.39794921875, -0.624267578125, -0.73583984375, 0, 
400, 3632583852, -0.6448768973350525, -0.13430675864219666, 0.6704874038696289, 0.34140539169311523, 8.197998046875, -4.610657691955566, -0.4332214295864105, 23.763023376464844, -80.54874420166016, 218.69827270507812, -0.4208984375, -0.6015625, -0.721435546875, 0, 
401, 3632592185, -0.6468048691749573, -0.12258399277925491, 0.6765406727790833, 0.33003759384155273, 8.038797378540039, -4.299890995025635, -0.427904337644577, 26.140464782714844, -71.64378356933594, 230.22705078125, -0.43994140625, -0.573974609375, -0.707763671875, 0, 
402, 3632600518, -0.648841381072998, -0.11021825671195984, 0.6825370192527771, 0.31782928109169006, 8.103828430175781, -4.044828414916992, -0.5255179405212402, 27.731090545654297, -71.51026153564453, 243.708740234375, -0.45947265625, -0.54541015625, -0.704345703125, 0, 
403, 3632608851, -0.6507902145385742, -0.09719322621822357, 0.6885337829589844, 0.3048971891403198, 8.283564567565918, -3.999799966812134, -0.6337923407554626, 28.846187591552734, -74.24068450927734, 256.3484802246094, -0.47998046875, -0.51318359375, -0.6923828125, 0, 
404, 3632617184, -0.6523832082748413, -0.08353285491466522, 0.6946443319320679, 0.2913813292980194, 8.881755828857422, -3.947049617767334, -0.8486607670783997, 29.573089599609375, -80.38988494873047, 265.8593444824219, -0.4970703125, -0.477294921875, -0.6826171875, 0, 
405, 3632625517, -0.6532512903213501, -0.0694219246506691, 0.7010365724563599, 0.2775007486343384, 9.421672821044922, -3.8696699142456055, -1.0227080583572388, 31.042200088500977, -91.35333251953125, 271.2463073730469, -0.52001953125, -0.444580078125, -0.66796875, 0, 
406, 3632633850, -0.6536456346511841, -0.05505245923995972, 0.707361102104187, 0.2633858323097229, 10.468049049377441, -3.7167649269104004, -1.1727603673934937, 31.103708267211914, -95.94768524169922, 273.5657043457031, -0.53564453125, -0.40771484375, -0.64794921875, 0, 
407, 3632642183, -0.6539494395256042, -0.04083259403705597, 0.7132529020309448, 0.24893434345722198, 11.487968444824219, -3.23940110206604, -1.4819157123565674, 34.29331588745117, -92.2693099975586, 274.8871765136719, -0.55029296875, -0.37255859375, -0.638427734375, 0, 
408, 3632650516, -0.6538602113723755, -0.026408299803733826, 0.7189744710922241, 0.2342236042022705, 11.654423713684082, -3.1260316371917725, -1.5796315670013428, 34.56549072265625, -95.0164794921875, 277.35992431640625, -0.56591796875, -0.3330078125, -0.623779296875, 0, 
409, 3632658849, -0.6530796885490417, -0.01163049042224884, 0.724738597869873, 0.21936537325382233, 12.534878730773926, -2.9894676208496094, -1.3790814876556396, 33.3040657043457, -103.45037078857422, 280.3944396972656, -0.58056640625, -0.29443359375, -0.605712890625, 0, 
410, 3632667182, -0.6516246795654297, 0.0034744441509246826, 0.7305609583854675, 0.20413058996200562, 13.543295860290527, -3.1223816871643066, -1.267876386642456, 34.32666778564453, -111.48977661132812, 284.5762634277344, -0.591796875, -0.25341796875, -0.590087890625, 0, 
411, 3632675515, -0.6495465040206909, 0.0187821164727211, 0.7363293766975403, 0.18860316276550293, 15.097715377807617, -3.144002676010132, -1.1183756589889526, 35.345462799072266, -117.984130859375, 287.9258117675781, -0.6025390625, -0.21484375, -0.573974609375, 0, 
412, 3632683848, -0.647545576095581, 0.03402093052864075, 0.7414074540138245, 0.1727939248085022, 16.59115219116211, -2.9077837467193604, -1.13296377658844, 36.964046478271484, -110.7925033569336, 289.6747741699219, -0.60986328125, -0.165283203125, -0.55517578125, 0, 
413, 3632692181, -0.6452450156211853, 0.049132078886032104, 0.7460823655128479, 0.15691250562667847, 17.72820472717285, -2.388868570327759, -0.9915866255760193, 37.81890106201172, -110.12418365478516, 288.94134521484375, -0.6181640625, -0.124755859375, -0.5390625, 0, 
414, 3632700514, -0.6431368589401245, 0.06382790952920914, 0.749944806098938, 0.14106515049934387, 18.817745208740234, -1.6178981065750122, -1.0536798238754272, 39.44606018066406, -99.88355255126953, 284.8856506347656, -0.619384765625, -0.08447265625, -0.5244140625, 0, 
415, 3632708847, -0.6409482359886169, 0.07794421911239624, 0.7532559037208557, 0.12542444467544556, 19.419023513793945, -0.46478182077407837, -0.883760392665863, 41.38482666015625, -94.66889953613281, 277.86273193359375, -0.622802734375, -0.04296875, -0.51318359375, 0, 
416, 3632717180, -0.6386018991470337, 0.09141150861978531, 0.7560937404632568, 0.11031565070152283, 20.256317138671875, 0.808430016040802, -0.7092097997665405, 40.52501678466797, -90.3065185546875, 266.22320556640625, -0.621826171875, -0.001708984375, -0.501953125, 0, 
417, 3632725513, -0.6361308693885803, 0.10417914390563965, 0.7584161758422852, 0.09646110981702805, 21.120933532714844, 2.9821207523345947, -0.7282397150993347, 32.77404022216797, -84.57189178466797, 248.85198974609375, -0.618896484375, 0.03564453125, -0.486328125, 0, 
418, 3632733846, -0.6337477564811707, 0.11599377542734146, 0.7602339386940002, 0.08348029851913452, 21.808488845825195, 5.647861957550049, -0.7679267525672913, 31.36691665649414, -76.59536743164062, 231.6493682861328, -0.61572265625, 0.070068359375, -0.4755859375, 0, 
419, 3632742179, -0.6315305233001709, 0.1269478052854538, 0.7615348100662231, 0.07164931297302246, 22.01163673400879, 8.05286979675293, -0.43007615208625793, 26.603946685791016, -67.65982055664062, 214.09994506835938, -0.61376953125, 0.103515625, -0.46826171875, 0, 
420, 3632750512, -0.6294599175453186, 0.13714179396629333, 0.7624201774597168, 0.06085461750626564, 21.6950740814209, 10.794902801513672, -0.09501409530639648, 22.115877151489258, -59.8369255065918, 197.57057189941406, -0.6083984375, 0.132080078125, -0.45654296875, 0, 
421, 3632758845, -0.6276618838310242, 0.14662247896194458, 0.7629005312919617, 0.05040442943572998, 20.573368072509766, 13.304633140563965, 0.6750284433364868, 24.936174392700195, -52.34917449951172, 188.5395965576172, -0.601318359375, 0.1611328125, -0.4521484375, 0, 
422, 3632767178, -0.6258136630058289, 0.1556839793920517, 0.7632505893707275, 0.03979599475860596, 18.53158187866211, 15.100537300109863, 1.6609687805175781, 29.945049285888672, -51.66450881958008, 185.32843017578125, -0.594970703125, 0.190185546875, -0.446533203125, 0, 
423, 3632775511, -0.6233409643173218, 0.16441239416599274, 0.7639279961585999, 0.029054060578346252, 16.96506118774414, 15.501189231872559, 2.5786314010620117, 33.132137298583984, -61.2550163269043, 182.3447265625, -0.586669921875, 0.21435546875, -0.436767578125, 0, 
424, 3632783844, -0.6202183365821838, 0.17274920642375946, 0.7649638056755066, 0.018250644207000732, 16.70289421081543, 16.19392967224121, 3.099478244781494, 35.74066925048828, -71.03678894042969, 177.32330322265625, -0.580078125, 0.240966796875, -0.430419921875, 0, 
425, 3632792177, -0.61737459897995, 0.1803891956806183, 0.765678346157074, 0.007813729345798492, 16.44573211669922, 16.927431106567383, 3.753192186355591, 38.4781494140625, -64.41594696044922, 168.06617736816406, -0.57373046875, 0.263916015625, -0.426025390625, 0, 
426, 3632800510, -0.6151885986328125, 0.18703638017177582, 0.765880286693573, -0.0018529072403907776, 15.562621116638184, 17.883852005004883, 4.298941612243652, 40.309566497802734, -51.03987503051758, 152.0943603515625, -0.56591796875, 0.2861328125, -0.418212890625, 0, 
427, 3632808843, -0.6136654615402222, 0.19238536059856415, 0.7657113075256348, -0.010224714875221252, 14.740506172180176, 19.3216609954834, 4.378252029418945, 39.43280792236328, -37.70292663574219, 128.72300720214844, -0.5576171875, 0.307373046875, -0.413330078125, 0, 
428, 3632817176, -0.6130644083023071, 0.19628940522670746, 0.765076220035553, -0.01722089946269989, 13.452152252197266, 21.227968215942383, 4.428553581237793, 39.59119415283203, -20.563438415527344, 102.73131561279297, -0.554443359375, 0.32275390625, -0.412841796875, 0, 
429, 3632825509, -0.613062858581543, 0.1988419145345688, 0.7642782330513, -0.02259039133787155, 11.613283157348633, 22.836490631103516, 4.046354293823242, 35.5821418762207, -8.873208999633789, 75.36636352539062, -0.547119140625, 0.33447265625, -0.415771484375, 0, 
430, 3632833842, -0.6132134795188904, 0.19987381994724274, 0.7637478113174438, -0.02691534161567688, 10.14658260345459, 23.976634979248047, 3.6656548976898193, 37.711544036865234, -7.102723598480225, 49.58211898803711, -0.54248046875, 0.341552734375, -0.418212890625, 0, 
431, 3632842175, -0.6132810115814209, 0.199289008975029, 0.7637230753898621, -0.030212707817554474, 9.591552734375, 24.249244689941406, 3.731752872467041, 40.18247604370117, -10.056962013244629, 22.79547119140625, -0.54296875, 0.344482421875, -0.419189453125, 0, 
432, 3632850508, -0.613276481628418, 0.197209894657135, 0.7641856670379639, -0.0321853831410408, 9.838016510009766, 23.76561164855957, 3.7452898025512695, 38.4376106262207, -11.886405944824219, -5.53975248336792, -0.54296875, 0.347412109375, -0.419189453125, 0, 
433, 3632858841, -0.6134942770004272, 0.1936357617378235, 0.7649102807044983, -0.03252337872982025, 10.39246940612793, 22.571670532226562, 3.466742992401123, 34.38947296142578, -8.015992164611816, -35.67955780029297, -0.541015625, 0.340576171875, -0.418701171875, 0, 
434, 3632867174, -0.6142858862876892, 0.18864957988262177, 0.7655748128890991, -0.031223051249980927, 10.505858421325684, 20.88706398010254, 3.2614669799804688, 30.598417282104492, 2.271583080291748, -64.56123352050781, -0.54345703125, 0.333984375, -0.421630859375, 0, 
435, 3632875507, -0.6153191924095154, 0.18235138058662415, 0.76636803150177, -0.028736397624015808, 10.818964958190918, 19.144325256347656, 2.95013427734375, 29.7896785736084, 6.229212760925293, -88.7234878540039, -0.55126953125, 0.322265625, -0.427978515625, 0, 
436, 3632883840, -0.6166839003562927, 0.17532001435756683, 0.7670228481292725, -0.02560138702392578, 11.13502025604248, 17.39557647705078, 2.3388233184814453, 30.029470443725586, 12.232878684997559, -101.78150939941406, -0.560302734375, 0.305419921875, -0.427490234375, 0, 
